"success","timeout","failed_images","failed_audio","failed_video","trial_type","trial_index","time_elapsed","internal_node_id","run_id","condition","recorded_at","source_code_version","ip","user_agent","device","browser","browser_version","platform","platform_version","referer","accept_language","check","rt","stimulus","response","question_order","url","task","delay","number","audioFile","trial_duration","font_size","block","round","value"
"true","false","[]","[]","[]","preload","0","543","0.0-0.0","33","1","2023-10-31 21:02:43","a725c3012b74bf33a1020a98cb69c237","181.47.233.218","Mozilla/5.0 (Windows NT 10.0; Win64; x64) AppleWebKit/537.36 (KHTML, like Gecko) Chrome/118.0.0.0 Safari/537.36","WebKit","Chrome","118.0.0.0","Windows","10.0","null","en-US,en;q=0.9","true","","","","","","","","","","","","","",""
"true","","","","","fullscreen","1","4806","0.0-1.0","33","1","2023-10-31 21:02:43","a725c3012b74bf33a1020a98cb69c237","181.47.233.218","Mozilla/5.0 (Windows NT 10.0; Win64; x64) AppleWebKit/537.36 (KHTML, like Gecko) Chrome/118.0.0.0 Safari/537.36","WebKit","Chrome","118.0.0.0","Windows","10.0","null","en-US,en;q=0.9","true","","","","","","","","","","","","","",""
"","","","","","html-button-response","2","9831","0.0-2.0","33","1","2023-10-31 21:02:43","a725c3012b74bf33a1020a98cb69c237","181.47.233.218","Mozilla/5.0 (Windows NT 10.0; Win64; x64) AppleWebKit/537.36 (KHTML, like Gecko) Chrome/118.0.0.0 Safari/537.36","WebKit","Chrome","118.0.0.0","Windows","10.0","null","en-US,en;q=0.9","true","5023","<p style=""font-size:24px; color:red;"">Cosas importantes a tener en cuenta antes de comenzar el experimento:</p>","0","","","","","","","","","","",""
"","","","","","html-button-response","3","13755","0.0-3.0","33","1","2023-10-31 21:02:43","a725c3012b74bf33a1020a98cb69c237","181.47.233.218","Mozilla/5.0 (Windows NT 10.0; Win64; x64) AppleWebKit/537.36 (KHTML, like Gecko) Chrome/118.0.0.0 Safari/537.36","WebKit","Chrome","118.0.0.0","Windows","10.0","null","en-US,en;q=0.9","true","3922","<p style=""font-size:24px;"">El experimento dura aproximadamente 15 minutos.</p><p style=""font-size:24px;"">Por favor, no cierres la ventana del navegador durante el experimento.</p><p style=""font-size:24px;"">Si se completa de forma parcial, no se guardará ningún resultado.</p>","0","","","","","","","","","","",""
"","","","","","html-button-response","4","16609","0.0-4.0","33","1","2023-10-31 21:02:43","a725c3012b74bf33a1020a98cb69c237","181.47.233.218","Mozilla/5.0 (Windows NT 10.0; Win64; x64) AppleWebKit/537.36 (KHTML, like Gecko) Chrome/118.0.0.0 Safari/537.36","WebKit","Chrome","118.0.0.0","Windows","10.0","null","en-US,en;q=0.9","true","2852","<p style=""font-size:24px;"">El experimento contiene estímulos sonoros.</p>","0","","","","","","","","","","",""
"","","","","","audio-button-response","5","21366","0.0-5.0-0.0","33","1","2023-10-31 21:02:43","a725c3012b74bf33a1020a98cb69c237","181.47.233.218","Mozilla/5.0 (Windows NT 10.0; Win64; x64) AppleWebKit/537.36 (KHTML, like Gecko) Chrome/118.0.0.0 Safari/537.36","WebKit","Chrome","118.0.0.0","Windows","10.0","null","en-US,en;q=0.9","true","3413","tones/440hz_short.mp3","1","","","","","","","","","","",""
"","","","","","audio-button-response","6","22262","0.0-6.0-0.0","33","1","2023-10-31 21:02:43","a725c3012b74bf33a1020a98cb69c237","181.47.233.218","Mozilla/5.0 (Windows NT 10.0; Win64; x64) AppleWebKit/537.36 (KHTML, like Gecko) Chrome/118.0.0.0 Safari/537.36","WebKit","Chrome","118.0.0.0","Windows","10.0","null","en-US,en;q=0.9","true","885","tones/880hz_short.mp3","1","","","","","","","","","","",""
"","","","","","survey-html-form","7","24691","0.0-7.0","33","1","2023-10-31 21:02:43","a725c3012b74bf33a1020a98cb69c237","181.47.233.218","Mozilla/5.0 (Windows NT 10.0; Win64; x64) AppleWebKit/537.36 (KHTML, like Gecko) Chrome/118.0.0.0 Safari/537.36","WebKit","Chrome","118.0.0.0","Windows","10.0","null","en-US,en;q=0.9","true","2422","","{""response"":""25""}","","","","","","","","","","",""
"","","","","","survey-multi-choice","8","35663","0.0-8.0","33","1","2023-10-31 21:02:43","a725c3012b74bf33a1020a98cb69c237","181.47.233.218","Mozilla/5.0 (Windows NT 10.0; Win64; x64) AppleWebKit/537.36 (KHTML, like Gecko) Chrome/118.0.0.0 Safari/537.36","WebKit","Chrome","118.0.0.0","Windows","10.0","null","en-US,en;q=0.9","true","10969","","{""gender"":""Hombre"",""hand"":""Derecha""}","[0,1]","","","","","","","","","",""
"","","","","","external-html","9","81599","0.0-9.0","33","1","2023-10-31 21:02:43","a725c3012b74bf33a1020a98cb69c237","181.47.233.218","Mozilla/5.0 (Windows NT 10.0; Win64; x64) AppleWebKit/537.36 (KHTML, like Gecko) Chrome/118.0.0.0 Safari/537.36","WebKit","Chrome","118.0.0.0","Windows","10.0","null","en-US,en;q=0.9","true","45574","","","","instructions/instructions.html","","","","","","","","",""
"","","","","","external-html","10","91342","0.0-10.0","33","1","2023-10-31 21:02:43","a725c3012b74bf33a1020a98cb69c237","181.47.233.218","Mozilla/5.0 (Windows NT 10.0; Win64; x64) AppleWebKit/537.36 (KHTML, like Gecko) Chrome/118.0.0.0 Safari/537.36","WebKit","Chrome","118.0.0.0","Windows","10.0","null","en-US,en;q=0.9","true","9416","","","","instructions/animation.html","","","","","","","","",""
"","","","","","html-keyboard-response","11","94003","0.0-11.0-0.0","33","1","2023-10-31 21:02:43","a725c3012b74bf33a1020a98cb69c237","181.47.233.218","Mozilla/5.0 (Windows NT 10.0; Win64; x64) AppleWebKit/537.36 (KHTML, like Gecko) Chrome/118.0.0.0 Safari/537.36","WebKit","Chrome","118.0.0.0","Windows","10.0","null","en-US,en;q=0.9","true","null","<div style=""font-size:100px;"">X</div>","null","","","fixation","","","","","","","",""
"","","","","","audio-keyboard-response","12","95164","0.0-11.0-1.0","33","1","2023-10-31 21:02:43","a725c3012b74bf33a1020a98cb69c237","181.47.233.218","Mozilla/5.0 (Windows NT 10.0; Win64; x64) AppleWebKit/537.36 (KHTML, like Gecko) Chrome/118.0.0.0 Safari/537.36","WebKit","Chrome","118.0.0.0","Windows","10.0","null","en-US,en;q=0.9","true","null","tones/880hz_short.mp3","null","","","tone_number_task","1000","47","tones/880hz_short.mp3","1150","100","null","null",""
"","","","","","html-keyboard-response","13","96187","0.0-11.0-4.0-0.0","33","1","2023-10-31 21:02:43","a725c3012b74bf33a1020a98cb69c237","181.47.233.218","Mozilla/5.0 (Windows NT 10.0; Win64; x64) AppleWebKit/537.36 (KHTML, like Gecko) Chrome/118.0.0.0 Safari/537.36","WebKit","Chrome","118.0.0.0","Windows","10.0","null","en-US,en;q=0.9","true","1021","tones/880hz_short.mp3","k","","","empty_block","","47","","","","null","null",""
"","","","","","html-keyboard-response","14","101805","0.0-11.0-4.0-1.0","33","1","2023-10-31 21:02:43","a725c3012b74bf33a1020a98cb69c237","181.47.233.218","Mozilla/5.0 (Windows NT 10.0; Win64; x64) AppleWebKit/537.36 (KHTML, like Gecko) Chrome/118.0.0.0 Safari/537.36","WebKit","Chrome","118.0.0.0","Windows","10.0","null","en-US,en;q=0.9","true","5617","tones/880hz_short.mp3","s","","","empty_block","","47","","","","null","null",""
"","","","","","html-keyboard-response","15","104475","0.0-13.0-0.0","33","1","2023-10-31 21:02:43","a725c3012b74bf33a1020a98cb69c237","181.47.233.218","Mozilla/5.0 (Windows NT 10.0; Win64; x64) AppleWebKit/537.36 (KHTML, like Gecko) Chrome/118.0.0.0 Safari/537.36","WebKit","Chrome","118.0.0.0","Windows","10.0","null","en-US,en;q=0.9","true","null","<div style=""font-size:100px;"">X</div>","null","","","fixation","","","","","","","",""
"","","","","","audio-keyboard-response","16","105136","0.0-13.0-1.0","33","1","2023-10-31 21:02:43","a725c3012b74bf33a1020a98cb69c237","181.47.233.218","Mozilla/5.0 (Windows NT 10.0; Win64; x64) AppleWebKit/537.36 (KHTML, like Gecko) Chrome/118.0.0.0 Safari/537.36","WebKit","Chrome","118.0.0.0","Windows","10.0","null","en-US,en;q=0.9","true","null","tones/880hz_short.mp3","null","","","tone_number_task","500","59","tones/880hz_short.mp3","650","100","null","null",""
"","","","","","html-keyboard-response","17","105643","0.0-13.0-4.0-0.0","33","1","2023-10-31 21:02:43","a725c3012b74bf33a1020a98cb69c237","181.47.233.218","Mozilla/5.0 (Windows NT 10.0; Win64; x64) AppleWebKit/537.36 (KHTML, like Gecko) Chrome/118.0.0.0 Safari/537.36","WebKit","Chrome","118.0.0.0","Windows","10.0","null","en-US,en;q=0.9","true","505","tones/880hz_short.mp3","k","","","empty_block","","59","","","","null","null",""
"","","","","","html-keyboard-response","18","105645","0.0-13.0-4.0-1.0","33","1","2023-10-31 21:02:43","a725c3012b74bf33a1020a98cb69c237","181.47.233.218","Mozilla/5.0 (Windows NT 10.0; Win64; x64) AppleWebKit/537.36 (KHTML, like Gecko) Chrome/118.0.0.0 Safari/537.36","WebKit","Chrome","118.0.0.0","Windows","10.0","null","en-US,en;q=0.9","true","0","tones/880hz_short.mp3","s","","","empty_block","","59","","","","null","null",""
"","","","","","html-keyboard-response","19","108303","0.0-15.0-0.0","33","1","2023-10-31 21:02:43","a725c3012b74bf33a1020a98cb69c237","181.47.233.218","Mozilla/5.0 (Windows NT 10.0; Win64; x64) AppleWebKit/537.36 (KHTML, like Gecko) Chrome/118.0.0.0 Safari/537.36","WebKit","Chrome","118.0.0.0","Windows","10.0","null","en-US,en;q=0.9","true","null","<div style=""font-size:100px;"">X</div>","null","","","fixation","","","","","","","",""
"","","","","","audio-keyboard-response","20","108608","0.0-15.0-1.0","33","1","2023-10-31 21:02:43","a725c3012b74bf33a1020a98cb69c237","181.47.233.218","Mozilla/5.0 (Windows NT 10.0; Win64; x64) AppleWebKit/537.36 (KHTML, like Gecko) Chrome/118.0.0.0 Safari/537.36","WebKit","Chrome","118.0.0.0","Windows","10.0","null","en-US,en;q=0.9","true","null","tones/880hz_short.mp3","null","","","tone_number_task","150","49","tones/880hz_short.mp3","300","100","null","null",""
"","","","","","html-keyboard-response","21","108928","0.0-15.0-4.0-0.0","33","1","2023-10-31 21:02:43","a725c3012b74bf33a1020a98cb69c237","181.47.233.218","Mozilla/5.0 (Windows NT 10.0; Win64; x64) AppleWebKit/537.36 (KHTML, like Gecko) Chrome/118.0.0.0 Safari/537.36","WebKit","Chrome","118.0.0.0","Windows","10.0","null","en-US,en;q=0.9","true","317","tones/880hz_short.mp3","k","","","empty_block","","49","","","","null","null",""
"","","","","","html-keyboard-response","22","108929","0.0-15.0-4.0-1.0","33","1","2023-10-31 21:02:43","a725c3012b74bf33a1020a98cb69c237","181.47.233.218","Mozilla/5.0 (Windows NT 10.0; Win64; x64) AppleWebKit/537.36 (KHTML, like Gecko) Chrome/118.0.0.0 Safari/537.36","WebKit","Chrome","118.0.0.0","Windows","10.0","null","en-US,en;q=0.9","true","0","tones/880hz_short.mp3","s","","","empty_block","","49","","","","null","null",""
"","","","","","html-keyboard-response","23","111598","0.0-17.0-0.0","33","1","2023-10-31 21:02:43","a725c3012b74bf33a1020a98cb69c237","181.47.233.218","Mozilla/5.0 (Windows NT 10.0; Win64; x64) AppleWebKit/537.36 (KHTML, like Gecko) Chrome/118.0.0.0 Safari/537.36","WebKit","Chrome","118.0.0.0","Windows","10.0","null","en-US,en;q=0.9","true","null","<div style=""font-size:100px;"">X</div>","null","","","fixation","","","","","","","",""
"","","","","","audio-keyboard-response","24","111816","0.0-17.0-1.0","33","1","2023-10-31 21:02:43","a725c3012b74bf33a1020a98cb69c237","181.47.233.218","Mozilla/5.0 (Windows NT 10.0; Win64; x64) AppleWebKit/537.36 (KHTML, like Gecko) Chrome/118.0.0.0 Safari/537.36","WebKit","Chrome","118.0.0.0","Windows","10.0","null","en-US,en;q=0.9","true","null","tones/880hz_short.mp3","null","","","tone_number_task","50","39","tones/880hz_short.mp3","200","100","null","null",""
"","","","","","html-keyboard-response","25","112781","0.0-17.0-4.0-0.0","33","1","2023-10-31 21:02:43","a725c3012b74bf33a1020a98cb69c237","181.47.233.218","Mozilla/5.0 (Windows NT 10.0; Win64; x64) AppleWebKit/537.36 (KHTML, like Gecko) Chrome/118.0.0.0 Safari/537.36","WebKit","Chrome","118.0.0.0","Windows","10.0","null","en-US,en;q=0.9","true","962","tones/880hz_short.mp3","j","","","empty_block","","39","","","","null","null",""
"","","","","","html-keyboard-response","26","112783","0.0-17.0-4.0-1.0","33","1","2023-10-31 21:02:43","a725c3012b74bf33a1020a98cb69c237","181.47.233.218","Mozilla/5.0 (Windows NT 10.0; Win64; x64) AppleWebKit/537.36 (KHTML, like Gecko) Chrome/118.0.0.0 Safari/537.36","WebKit","Chrome","118.0.0.0","Windows","10.0","null","en-US,en;q=0.9","true","0","tones/880hz_short.mp3","s","","","empty_block","","39","","","","null","null",""
"","","","","","html-button-response","27","117576","0.0-19.0","33","1","2023-10-31 21:02:43","a725c3012b74bf33a1020a98cb69c237","181.47.233.218","Mozilla/5.0 (Windows NT 10.0; Win64; x64) AppleWebKit/537.36 (KHTML, like Gecko) Chrome/118.0.0.0 Safari/537.36","WebKit","Chrome","118.0.0.0","Windows","10.0","null","en-US,en;q=0.9","true","4791","
  <h1> Muy bien </h1>
  <p> Ahora, en vez de ser presentados en dígitos, los números vendrán escritos en palabras. </p>
  <p> Por ejemplo, en vez de 44 te aparecerá ""cuarenta y cuatro"". </p>
  ","0","","","","","","","","","","",""
"","","","","","html-keyboard-response","28","120237","0.0-20.0-0.0","33","1","2023-10-31 21:02:43","a725c3012b74bf33a1020a98cb69c237","181.47.233.218","Mozilla/5.0 (Windows NT 10.0; Win64; x64) AppleWebKit/537.36 (KHTML, like Gecko) Chrome/118.0.0.0 Safari/537.36","WebKit","Chrome","118.0.0.0","Windows","10.0","null","en-US,en;q=0.9","true","null","<div style=""font-size:100px;"">X</div>","null","","","fixation","","","","","","","",""
"","","","","","audio-keyboard-response","29","121405","0.0-20.0-1.0","33","1","2023-10-31 21:02:43","a725c3012b74bf33a1020a98cb69c237","181.47.233.218","Mozilla/5.0 (Windows NT 10.0; Win64; x64) AppleWebKit/537.36 (KHTML, like Gecko) Chrome/118.0.0.0 Safari/537.36","WebKit","Chrome","118.0.0.0","Windows","10.0","null","en-US,en;q=0.9","true","null","tones/880hz_short.mp3","null","","","tone_number_task","1000","treinta y seis","tones/880hz_short.mp3","1150","60","null","null",""
"","","","","","html-keyboard-response","30","122139","0.0-20.0-4.0-0.0","33","1","2023-10-31 21:02:43","a725c3012b74bf33a1020a98cb69c237","181.47.233.218","Mozilla/5.0 (Windows NT 10.0; Win64; x64) AppleWebKit/537.36 (KHTML, like Gecko) Chrome/118.0.0.0 Safari/537.36","WebKit","Chrome","118.0.0.0","Windows","10.0","null","en-US,en;q=0.9","true","731","tones/880hz_short.mp3","j","","","empty_block","","treinta y seis","","","","null","null",""
"","","","","","html-keyboard-response","31","122141","0.0-20.0-4.0-1.0","33","1","2023-10-31 21:02:43","a725c3012b74bf33a1020a98cb69c237","181.47.233.218","Mozilla/5.0 (Windows NT 10.0; Win64; x64) AppleWebKit/537.36 (KHTML, like Gecko) Chrome/118.0.0.0 Safari/537.36","WebKit","Chrome","118.0.0.0","Windows","10.0","null","en-US,en;q=0.9","true","0","tones/880hz_short.mp3","s","","","empty_block","","treinta y seis","","","","null","null",""
"","","","","","html-button-response","32","125966","0.0-22.0","33","1","2023-10-31 21:02:43","a725c3012b74bf33a1020a98cb69c237","181.47.233.218","Mozilla/5.0 (Windows NT 10.0; Win64; x64) AppleWebKit/537.36 (KHTML, like Gecko) Chrome/118.0.0.0 Safari/537.36","WebKit","Chrome","118.0.0.0","Windows","10.0","null","en-US,en;q=0.9","true","3823","
  <h1> Fin del Entrenamiento </h1>
  <p> ¡Felicitaciones, terminaste el entrenamiento! Ahora vamos a comenzar con el experimento. </p>
  <p> Es importante tener en cuenta que consta de cuatro bloques.</p>
  <p> Podés aprovechar los momentos entre bloques para tomar un breve descanso o tomar agua entre cada uno</p>
  <p> Recordá que tenés que responder lo más rápido que puedas, pero sin equivocarte. </p>
  ","0","","","","","","","","","","",""
"","","","","","external-html","33","135879","0.0-23.0","33","1","2023-10-31 21:02:43","a725c3012b74bf33a1020a98cb69c237","181.47.233.218","Mozilla/5.0 (Windows NT 10.0; Win64; x64) AppleWebKit/537.36 (KHTML, like Gecko) Chrome/118.0.0.0 Safari/537.36","WebKit","Chrome","118.0.0.0","Windows","10.0","null","en-US,en;q=0.9","true","9588","","","","instructions/instructions_digits_first.html","","","","","","","","",""
"","","","","","call-function","34","135883","0.0-24.0","33","1","2023-10-31 21:02:43","a725c3012b74bf33a1020a98cb69c237","181.47.233.218","Mozilla/5.0 (Windows NT 10.0; Win64; x64) AppleWebKit/537.36 (KHTML, like Gecko) Chrome/118.0.0.0 Safari/537.36","WebKit","Chrome","118.0.0.0","Windows","10.0","null","en-US,en;q=0.9","true","","","","","","","","","","","","","",""
"","","","","","html-keyboard-response","35","138550","0.0-25.0","33","1","2023-10-31 21:02:43","a725c3012b74bf33a1020a98cb69c237","181.47.233.218","Mozilla/5.0 (Windows NT 10.0; Win64; x64) AppleWebKit/537.36 (KHTML, like Gecko) Chrome/118.0.0.0 Safari/537.36","WebKit","Chrome","118.0.0.0","Windows","10.0","null","en-US,en;q=0.9","true","null","<div style=""font-size:100px;"">X</div>","null","","","fixation","","","","","","","",""
"","","","","","audio-keyboard-response","36","139488","0.0-26.0","33","1","2023-10-31 21:02:43","a725c3012b74bf33a1020a98cb69c237","181.47.233.218","Mozilla/5.0 (Windows NT 10.0; Win64; x64) AppleWebKit/537.36 (KHTML, like Gecko) Chrome/118.0.0.0 Safari/537.36","WebKit","Chrome","118.0.0.0","Windows","10.0","null","en-US,en;q=0.9","true","939","tones/440hz_short.mp3","a","","","tone_number_task","992.5","34","tones/440hz_short.mp3","1142.5","100","0","0",""
"","","","","","html-keyboard-response","37","139555","0.0-27.0-0.0","33","1","2023-10-31 21:02:43","a725c3012b74bf33a1020a98cb69c237","181.47.233.218","Mozilla/5.0 (Windows NT 10.0; Win64; x64) AppleWebKit/537.36 (KHTML, like Gecko) Chrome/118.0.0.0 Safari/537.36","WebKit","Chrome","118.0.0.0","Windows","10.0","null","en-US,en;q=0.9","true","null","","null","","","delay_block","","","","","","0","0",""
"","","","","","html-keyboard-response","38","139716","0.0-27.0-1.0","33","1","2023-10-31 21:02:43","a725c3012b74bf33a1020a98cb69c237","181.47.233.218","Mozilla/5.0 (Windows NT 10.0; Win64; x64) AppleWebKit/537.36 (KHTML, like Gecko) Chrome/118.0.0.0 Safari/537.36","WebKit","Chrome","118.0.0.0","Windows","10.0","null","en-US,en;q=0.9","true","null","<p id=""stimulus"" style=""font-size:100px;"">34</p>","null","","","tone_number_task_remaining_before_delay","","34","","203.5","100","0","0",""
"","","","","","html-keyboard-response","39","140220","0.0-30.0-0.0","33","1","2023-10-31 21:02:43","a725c3012b74bf33a1020a98cb69c237","181.47.233.218","Mozilla/5.0 (Windows NT 10.0; Win64; x64) AppleWebKit/537.36 (KHTML, like Gecko) Chrome/118.0.0.0 Safari/537.36","WebKit","Chrome","118.0.0.0","Windows","10.0","null","en-US,en;q=0.9","true","502","<p id=""stimulus"" style=""font-size:100px;"">34</p>","j","","","empty_block","","34","","","","0","0",""
"","","","","","html-keyboard-response","40","142885","0.0-31.0","33","1","2023-10-31 21:02:43","a725c3012b74bf33a1020a98cb69c237","181.47.233.218","Mozilla/5.0 (Windows NT 10.0; Win64; x64) AppleWebKit/537.36 (KHTML, like Gecko) Chrome/118.0.0.0 Safari/537.36","WebKit","Chrome","118.0.0.0","Windows","10.0","null","en-US,en;q=0.9","true","null","<div style=""font-size:100px;"">X</div>","null","","","fixation","","","","","","","",""
"","","","","","audio-keyboard-response","41","143151","0.0-32.0","33","1","2023-10-31 21:02:43","a725c3012b74bf33a1020a98cb69c237","181.47.233.218","Mozilla/5.0 (Windows NT 10.0; Win64; x64) AppleWebKit/537.36 (KHTML, like Gecko) Chrome/118.0.0.0 Safari/537.36","WebKit","Chrome","118.0.0.0","Windows","10.0","null","en-US,en;q=0.9","true","null","tones/880hz_short.mp3","null","","","tone_number_task","102.5","59","tones/880hz_short.mp3","252.5","100","0","1",""
"","","","","","html-keyboard-response","42","143724","0.0-35.0-0.0","33","1","2023-10-31 21:02:43","a725c3012b74bf33a1020a98cb69c237","181.47.233.218","Mozilla/5.0 (Windows NT 10.0; Win64; x64) AppleWebKit/537.36 (KHTML, like Gecko) Chrome/118.0.0.0 Safari/537.36","WebKit","Chrome","118.0.0.0","Windows","10.0","null","en-US,en;q=0.9","true","571","tones/880hz_short.mp3","s","","","empty_block","","59","","","","0","1",""
"","","","","","html-keyboard-response","43","143749","0.0-35.0-1.0","33","1","2023-10-31 21:02:43","a725c3012b74bf33a1020a98cb69c237","181.47.233.218","Mozilla/5.0 (Windows NT 10.0; Win64; x64) AppleWebKit/537.36 (KHTML, like Gecko) Chrome/118.0.0.0 Safari/537.36","WebKit","Chrome","118.0.0.0","Windows","10.0","null","en-US,en;q=0.9","true","22","tones/880hz_short.mp3","k","","","empty_block","","59","","","","0","1",""
"","","","","","html-keyboard-response","44","146419","0.0-37.0","33","1","2023-10-31 21:02:43","a725c3012b74bf33a1020a98cb69c237","181.47.233.218","Mozilla/5.0 (Windows NT 10.0; Win64; x64) AppleWebKit/537.36 (KHTML, like Gecko) Chrome/118.0.0.0 Safari/537.36","WebKit","Chrome","118.0.0.0","Windows","10.0","null","en-US,en;q=0.9","true","null","<div style=""font-size:100px;"">X</div>","null","","","fixation","","","","","","","",""
"","","","","","audio-keyboard-response","45","146675","0.0-38.0","33","1","2023-10-31 21:02:43","a725c3012b74bf33a1020a98cb69c237","181.47.233.218","Mozilla/5.0 (Windows NT 10.0; Win64; x64) AppleWebKit/537.36 (KHTML, like Gecko) Chrome/118.0.0.0 Safari/537.36","WebKit","Chrome","118.0.0.0","Windows","10.0","null","en-US,en;q=0.9","true","null","tones/880hz_short.mp3","null","","","tone_number_task","102.5","24","tones/880hz_short.mp3","252.5","100","0","2",""
"","","","","","html-keyboard-response","46","147888","0.0-41.0-0.0","33","1","2023-10-31 21:02:43","a725c3012b74bf33a1020a98cb69c237","181.47.233.218","Mozilla/5.0 (Windows NT 10.0; Win64; x64) AppleWebKit/537.36 (KHTML, like Gecko) Chrome/118.0.0.0 Safari/537.36","WebKit","Chrome","118.0.0.0","Windows","10.0","null","en-US,en;q=0.9","true","null","tones/880hz_short.mp3","null","","","empty_block","","24","","","","0","2",""
"","","","","","html-keyboard-response","47","148125","0.0-41.0-1.0","33","1","2023-10-31 21:02:43","a725c3012b74bf33a1020a98cb69c237","181.47.233.218","Mozilla/5.0 (Windows NT 10.0; Win64; x64) AppleWebKit/537.36 (KHTML, like Gecko) Chrome/118.0.0.0 Safari/537.36","WebKit","Chrome","118.0.0.0","Windows","10.0","null","en-US,en;q=0.9","true","234","tones/880hz_short.mp3","j","","","empty_block","","24","","","","0","2",""
"","","","","","html-keyboard-response","48","150787","0.0-43.0","33","1","2023-10-31 21:02:43","a725c3012b74bf33a1020a98cb69c237","181.47.233.218","Mozilla/5.0 (Windows NT 10.0; Win64; x64) AppleWebKit/537.36 (KHTML, like Gecko) Chrome/118.0.0.0 Safari/537.36","WebKit","Chrome","118.0.0.0","Windows","10.0","null","en-US,en;q=0.9","true","null","<div style=""font-size:100px;"">X</div>","null","","","fixation","","","","","","","",""
"","","","","","audio-keyboard-response","49","151635","0.0-44.0","33","1","2023-10-31 21:02:43","a725c3012b74bf33a1020a98cb69c237","181.47.233.218","Mozilla/5.0 (Windows NT 10.0; Win64; x64) AppleWebKit/537.36 (KHTML, like Gecko) Chrome/118.0.0.0 Safari/537.36","WebKit","Chrome","118.0.0.0","Windows","10.0","null","en-US,en;q=0.9","true","843","tones/440hz_short.mp3","a","","","tone_number_task","992.5","40","tones/440hz_short.mp3","1142.5","100","0","3",""
"","","","","","html-keyboard-response","50","151790","0.0-45.0-0.0","33","1","2023-10-31 21:02:43","a725c3012b74bf33a1020a98cb69c237","181.47.233.218","Mozilla/5.0 (Windows NT 10.0; Win64; x64) AppleWebKit/537.36 (KHTML, like Gecko) Chrome/118.0.0.0 Safari/537.36","WebKit","Chrome","118.0.0.0","Windows","10.0","null","en-US,en;q=0.9","true","null","","null","","","delay_block","","","","","","0","3",""
"","","","","","html-keyboard-response","51","151949","0.0-45.0-1.0","33","1","2023-10-31 21:02:43","a725c3012b74bf33a1020a98cb69c237","181.47.233.218","Mozilla/5.0 (Windows NT 10.0; Win64; x64) AppleWebKit/537.36 (KHTML, like Gecko) Chrome/118.0.0.0 Safari/537.36","WebKit","Chrome","118.0.0.0","Windows","10.0","null","en-US,en;q=0.9","true","null","<p id=""stimulus"" style=""font-size:100px;"">40</p>","null","","","tone_number_task_remaining_before_delay","","40","","299.5","100","0","3",""
"","","","","","html-keyboard-response","52","152438","0.0-48.0-0.0","33","1","2023-10-31 21:02:43","a725c3012b74bf33a1020a98cb69c237","181.47.233.218","Mozilla/5.0 (Windows NT 10.0; Win64; x64) AppleWebKit/537.36 (KHTML, like Gecko) Chrome/118.0.0.0 Safari/537.36","WebKit","Chrome","118.0.0.0","Windows","10.0","null","en-US,en;q=0.9","true","487","<p id=""stimulus"" style=""font-size:100px;"">40</p>","j","","","empty_block","","40","","","","0","3",""
"","","","","","html-keyboard-response","53","155096","0.0-49.0","33","1","2023-10-31 21:02:43","a725c3012b74bf33a1020a98cb69c237","181.47.233.218","Mozilla/5.0 (Windows NT 10.0; Win64; x64) AppleWebKit/537.36 (KHTML, like Gecko) Chrome/118.0.0.0 Safari/537.36","WebKit","Chrome","118.0.0.0","Windows","10.0","null","en-US,en;q=0.9","true","null","<div style=""font-size:100px;"">X</div>","null","","","fixation","","","","","","","",""
"","","","","","audio-keyboard-response","54","155355","0.0-50.0","33","1","2023-10-31 21:02:43","a725c3012b74bf33a1020a98cb69c237","181.47.233.218","Mozilla/5.0 (Windows NT 10.0; Win64; x64) AppleWebKit/537.36 (KHTML, like Gecko) Chrome/118.0.0.0 Safari/537.36","WebKit","Chrome","118.0.0.0","Windows","10.0","null","en-US,en;q=0.9","true","null","tones/880hz_short.mp3","null","","","tone_number_task","102.5","66","tones/880hz_short.mp3","252.5","100","0","4",""
"","","","","","html-keyboard-response","55","155979","0.0-53.0-0.0","33","1","2023-10-31 21:02:43","a725c3012b74bf33a1020a98cb69c237","181.47.233.218","Mozilla/5.0 (Windows NT 10.0; Win64; x64) AppleWebKit/537.36 (KHTML, like Gecko) Chrome/118.0.0.0 Safari/537.36","WebKit","Chrome","118.0.0.0","Windows","10.0","null","en-US,en;q=0.9","true","622","tones/880hz_short.mp3","k","","","empty_block","","66","","","","0","4",""
"","","","","","html-keyboard-response","56","155982","0.0-53.0-1.0","33","1","2023-10-31 21:02:43","a725c3012b74bf33a1020a98cb69c237","181.47.233.218","Mozilla/5.0 (Windows NT 10.0; Win64; x64) AppleWebKit/537.36 (KHTML, like Gecko) Chrome/118.0.0.0 Safari/537.36","WebKit","Chrome","118.0.0.0","Windows","10.0","null","en-US,en;q=0.9","true","0","tones/880hz_short.mp3","s","","","empty_block","","66","","","","0","4",""
"","","","","","html-keyboard-response","57","158649","0.0-55.0","33","1","2023-10-31 21:02:43","a725c3012b74bf33a1020a98cb69c237","181.47.233.218","Mozilla/5.0 (Windows NT 10.0; Win64; x64) AppleWebKit/537.36 (KHTML, like Gecko) Chrome/118.0.0.0 Safari/537.36","WebKit","Chrome","118.0.0.0","Windows","10.0","null","en-US,en;q=0.9","true","null","<div style=""font-size:100px;"">X</div>","null","","","fixation","","","","","","","",""
"","","","","","audio-keyboard-response","58","158809","0.0-56.0","33","1","2023-10-31 21:02:43","a725c3012b74bf33a1020a98cb69c237","181.47.233.218","Mozilla/5.0 (Windows NT 10.0; Win64; x64) AppleWebKit/537.36 (KHTML, like Gecko) Chrome/118.0.0.0 Safari/537.36","WebKit","Chrome","118.0.0.0","Windows","10.0","null","en-US,en;q=0.9","true","null","tones/880hz_short.mp3","null","","","tone_number_task","0","46","tones/880hz_short.mp3","150","100","0","5",""
"","","","","","html-keyboard-response","59","159388","0.0-59.0-0.0","33","1","2023-10-31 21:02:43","a725c3012b74bf33a1020a98cb69c237","181.47.233.218","Mozilla/5.0 (Windows NT 10.0; Win64; x64) AppleWebKit/537.36 (KHTML, like Gecko) Chrome/118.0.0.0 Safari/537.36","WebKit","Chrome","118.0.0.0","Windows","10.0","null","en-US,en;q=0.9","true","576","tones/880hz_short.mp3","k","","","empty_block","","46","","","","0","5",""
"","","","","","html-keyboard-response","60","159390","0.0-59.0-1.0","33","1","2023-10-31 21:02:43","a725c3012b74bf33a1020a98cb69c237","181.47.233.218","Mozilla/5.0 (Windows NT 10.0; Win64; x64) AppleWebKit/537.36 (KHTML, like Gecko) Chrome/118.0.0.0 Safari/537.36","WebKit","Chrome","118.0.0.0","Windows","10.0","null","en-US,en;q=0.9","true","0","tones/880hz_short.mp3","s","","","empty_block","","46","","","","0","5",""
"","","","","","html-keyboard-response","61","162057","0.0-61.0","33","1","2023-10-31 21:02:43","a725c3012b74bf33a1020a98cb69c237","181.47.233.218","Mozilla/5.0 (Windows NT 10.0; Win64; x64) AppleWebKit/537.36 (KHTML, like Gecko) Chrome/118.0.0.0 Safari/537.36","WebKit","Chrome","118.0.0.0","Windows","10.0","null","en-US,en;q=0.9","true","null","<div style=""font-size:100px;"">X</div>","null","","","fixation","","","","","","","",""
"","","","","","audio-keyboard-response","62","163208","0.0-62.0","33","1","2023-10-31 21:02:43","a725c3012b74bf33a1020a98cb69c237","181.47.233.218","Mozilla/5.0 (Windows NT 10.0; Win64; x64) AppleWebKit/537.36 (KHTML, like Gecko) Chrome/118.0.0.0 Safari/537.36","WebKit","Chrome","118.0.0.0","Windows","10.0","null","en-US,en;q=0.9","true","null","tones/880hz_short.mp3","null","","","tone_number_task","992.5","49","tones/880hz_short.mp3","1142.5","100","0","6",""
"","","","","","html-keyboard-response","63","163215","0.0-65.0-0.0","33","1","2023-10-31 21:02:43","a725c3012b74bf33a1020a98cb69c237","181.47.233.218","Mozilla/5.0 (Windows NT 10.0; Win64; x64) AppleWebKit/537.36 (KHTML, like Gecko) Chrome/118.0.0.0 Safari/537.36","WebKit","Chrome","118.0.0.0","Windows","10.0","null","en-US,en;q=0.9","true","4","tones/880hz_short.mp3","s","","","empty_block","","49","","","","0","6",""
"","","","","","html-keyboard-response","64","163594","0.0-65.0-1.0","33","1","2023-10-31 21:02:43","a725c3012b74bf33a1020a98cb69c237","181.47.233.218","Mozilla/5.0 (Windows NT 10.0; Win64; x64) AppleWebKit/537.36 (KHTML, like Gecko) Chrome/118.0.0.0 Safari/537.36","WebKit","Chrome","118.0.0.0","Windows","10.0","null","en-US,en;q=0.9","true","377","tones/880hz_short.mp3","k","","","empty_block","","49","","","","0","6",""
"","","","","","html-keyboard-response","65","166258","0.0-67.0","33","1","2023-10-31 21:02:43","a725c3012b74bf33a1020a98cb69c237","181.47.233.218","Mozilla/5.0 (Windows NT 10.0; Win64; x64) AppleWebKit/537.36 (KHTML, like Gecko) Chrome/118.0.0.0 Safari/537.36","WebKit","Chrome","118.0.0.0","Windows","10.0","null","en-US,en;q=0.9","true","null","<div style=""font-size:100px;"">X</div>","null","","","fixation","","","","","","","",""
"","","","","","audio-keyboard-response","66","167437","0.0-68.0","33","1","2023-10-31 21:02:43","a725c3012b74bf33a1020a98cb69c237","181.47.233.218","Mozilla/5.0 (Windows NT 10.0; Win64; x64) AppleWebKit/537.36 (KHTML, like Gecko) Chrome/118.0.0.0 Safari/537.36","WebKit","Chrome","118.0.0.0","Windows","10.0","null","en-US,en;q=0.9","true","null","tones/880hz_short.mp3","null","","","tone_number_task","1025","58","tones/880hz_short.mp3","1175","100","0","7",""
"","","","","","html-keyboard-response","67","167860","0.0-71.0-0.0","33","1","2023-10-31 21:02:43","a725c3012b74bf33a1020a98cb69c237","181.47.233.218","Mozilla/5.0 (Windows NT 10.0; Win64; x64) AppleWebKit/537.36 (KHTML, like Gecko) Chrome/118.0.0.0 Safari/537.36","WebKit","Chrome","118.0.0.0","Windows","10.0","null","en-US,en;q=0.9","true","420","tones/880hz_short.mp3","k","","","empty_block","","58","","","","0","7",""
"","","","","","html-keyboard-response","68","167863","0.0-71.0-1.0","33","1","2023-10-31 21:02:43","a725c3012b74bf33a1020a98cb69c237","181.47.233.218","Mozilla/5.0 (Windows NT 10.0; Win64; x64) AppleWebKit/537.36 (KHTML, like Gecko) Chrome/118.0.0.0 Safari/537.36","WebKit","Chrome","118.0.0.0","Windows","10.0","null","en-US,en;q=0.9","true","0","tones/880hz_short.mp3","s","","","empty_block","","58","","","","0","7",""
"","","","","","html-keyboard-response","69","170521","0.0-73.0","33","1","2023-10-31 21:02:43","a725c3012b74bf33a1020a98cb69c237","181.47.233.218","Mozilla/5.0 (Windows NT 10.0; Win64; x64) AppleWebKit/537.36 (KHTML, like Gecko) Chrome/118.0.0.0 Safari/537.36","WebKit","Chrome","118.0.0.0","Windows","10.0","null","en-US,en;q=0.9","true","null","<div style=""font-size:100px;"">X</div>","null","","","fixation","","","","","","","",""
"","","","","","audio-keyboard-response","70","170779","0.0-74.0","33","1","2023-10-31 21:02:43","a725c3012b74bf33a1020a98cb69c237","181.47.233.218","Mozilla/5.0 (Windows NT 10.0; Win64; x64) AppleWebKit/537.36 (KHTML, like Gecko) Chrome/118.0.0.0 Safari/537.36","WebKit","Chrome","118.0.0.0","Windows","10.0","null","en-US,en;q=0.9","true","null","tones/440hz_short.mp3","null","","","tone_number_task","102.5","42","tones/440hz_short.mp3","252.5","100","0","8",""
"","","","","","html-keyboard-response","71","171342","0.0-77.0-0.0","33","1","2023-10-31 21:02:43","a725c3012b74bf33a1020a98cb69c237","181.47.233.218","Mozilla/5.0 (Windows NT 10.0; Win64; x64) AppleWebKit/537.36 (KHTML, like Gecko) Chrome/118.0.0.0 Safari/537.36","WebKit","Chrome","118.0.0.0","Windows","10.0","null","en-US,en;q=0.9","true","559","tones/440hz_short.mp3","a","","","empty_block","","42","","","","0","8",""
"","","","","","html-keyboard-response","72","171363","0.0-77.0-1.0","33","1","2023-10-31 21:02:43","a725c3012b74bf33a1020a98cb69c237","181.47.233.218","Mozilla/5.0 (Windows NT 10.0; Win64; x64) AppleWebKit/537.36 (KHTML, like Gecko) Chrome/118.0.0.0 Safari/537.36","WebKit","Chrome","118.0.0.0","Windows","10.0","null","en-US,en;q=0.9","true","19","tones/440hz_short.mp3","j","","","empty_block","","42","","","","0","8",""
"","","","","","html-keyboard-response","73","174025","0.0-79.0","33","1","2023-10-31 21:02:43","a725c3012b74bf33a1020a98cb69c237","181.47.233.218","Mozilla/5.0 (Windows NT 10.0; Win64; x64) AppleWebKit/537.36 (KHTML, like Gecko) Chrome/118.0.0.0 Safari/537.36","WebKit","Chrome","118.0.0.0","Windows","10.0","null","en-US,en;q=0.9","true","null","<div style=""font-size:100px;"">X</div>","null","","","fixation","","","","","","","",""
"","","","","","audio-keyboard-response","74","174182","0.0-80.0","33","1","2023-10-31 21:02:43","a725c3012b74bf33a1020a98cb69c237","181.47.233.218","Mozilla/5.0 (Windows NT 10.0; Win64; x64) AppleWebKit/537.36 (KHTML, like Gecko) Chrome/118.0.0.0 Safari/537.36","WebKit","Chrome","118.0.0.0","Windows","10.0","null","en-US,en;q=0.9","true","null","tones/880hz_short.mp3","null","","","tone_number_task","0","60","tones/880hz_short.mp3","150","100","0","9",""
"","","","","","html-keyboard-response","75","174749","0.0-83.0-0.0","33","1","2023-10-31 21:02:43","a725c3012b74bf33a1020a98cb69c237","181.47.233.218","Mozilla/5.0 (Windows NT 10.0; Win64; x64) AppleWebKit/537.36 (KHTML, like Gecko) Chrome/118.0.0.0 Safari/537.36","WebKit","Chrome","118.0.0.0","Windows","10.0","null","en-US,en;q=0.9","true","564","tones/880hz_short.mp3","k","","","empty_block","","60","","","","0","9",""
"","","","","","html-keyboard-response","76","174752","0.0-83.0-1.0","33","1","2023-10-31 21:02:43","a725c3012b74bf33a1020a98cb69c237","181.47.233.218","Mozilla/5.0 (Windows NT 10.0; Win64; x64) AppleWebKit/537.36 (KHTML, like Gecko) Chrome/118.0.0.0 Safari/537.36","WebKit","Chrome","118.0.0.0","Windows","10.0","null","en-US,en;q=0.9","true","0","tones/880hz_short.mp3","s","","","empty_block","","60","","","","0","9",""
"","","","","","html-keyboard-response","77","177414","0.0-85.0","33","1","2023-10-31 21:02:43","a725c3012b74bf33a1020a98cb69c237","181.47.233.218","Mozilla/5.0 (Windows NT 10.0; Win64; x64) AppleWebKit/537.36 (KHTML, like Gecko) Chrome/118.0.0.0 Safari/537.36","WebKit","Chrome","118.0.0.0","Windows","10.0","null","en-US,en;q=0.9","true","null","<div style=""font-size:100px;"">X</div>","null","","","fixation","","","","","","","",""
"","","","","","audio-keyboard-response","78","177569","0.0-86.0","33","1","2023-10-31 21:02:43","a725c3012b74bf33a1020a98cb69c237","181.47.233.218","Mozilla/5.0 (Windows NT 10.0; Win64; x64) AppleWebKit/537.36 (KHTML, like Gecko) Chrome/118.0.0.0 Safari/537.36","WebKit","Chrome","118.0.0.0","Windows","10.0","null","en-US,en;q=0.9","true","null","tones/880hz_short.mp3","null","","","tone_number_task","0","63","tones/880hz_short.mp3","150","100","0","10",""
"","","","","","html-keyboard-response","79","177935","0.0-89.0-0.0","33","1","2023-10-31 21:02:43","a725c3012b74bf33a1020a98cb69c237","181.47.233.218","Mozilla/5.0 (Windows NT 10.0; Win64; x64) AppleWebKit/537.36 (KHTML, like Gecko) Chrome/118.0.0.0 Safari/537.36","WebKit","Chrome","118.0.0.0","Windows","10.0","null","en-US,en;q=0.9","true","363","tones/880hz_short.mp3","k","","","empty_block","","63","","","","0","10",""
"","","","","","html-keyboard-response","80","177939","0.0-89.0-1.0","33","1","2023-10-31 21:02:43","a725c3012b74bf33a1020a98cb69c237","181.47.233.218","Mozilla/5.0 (Windows NT 10.0; Win64; x64) AppleWebKit/537.36 (KHTML, like Gecko) Chrome/118.0.0.0 Safari/537.36","WebKit","Chrome","118.0.0.0","Windows","10.0","null","en-US,en;q=0.9","true","0","tones/880hz_short.mp3","s","","","empty_block","","63","","","","0","10",""
"","","","","","html-keyboard-response","81","180604","0.0-91.0","33","1","2023-10-31 21:02:43","a725c3012b74bf33a1020a98cb69c237","181.47.233.218","Mozilla/5.0 (Windows NT 10.0; Win64; x64) AppleWebKit/537.36 (KHTML, like Gecko) Chrome/118.0.0.0 Safari/537.36","WebKit","Chrome","118.0.0.0","Windows","10.0","null","en-US,en;q=0.9","true","null","<div style=""font-size:100px;"">X</div>","null","","","fixation","","","","","","","",""
"","","","","","audio-keyboard-response","82","181788","0.0-92.0","33","1","2023-10-31 21:02:43","a725c3012b74bf33a1020a98cb69c237","181.47.233.218","Mozilla/5.0 (Windows NT 10.0; Win64; x64) AppleWebKit/537.36 (KHTML, like Gecko) Chrome/118.0.0.0 Safari/537.36","WebKit","Chrome","118.0.0.0","Windows","10.0","null","en-US,en;q=0.9","true","null","tones/440hz_short.mp3","null","","","tone_number_task","1025","66","tones/440hz_short.mp3","1175","100","0","11",""
"","","","","","html-keyboard-response","83","182506","0.0-95.0-0.0","33","1","2023-10-31 21:02:43","a725c3012b74bf33a1020a98cb69c237","181.47.233.218","Mozilla/5.0 (Windows NT 10.0; Win64; x64) AppleWebKit/537.36 (KHTML, like Gecko) Chrome/118.0.0.0 Safari/537.36","WebKit","Chrome","118.0.0.0","Windows","10.0","null","en-US,en;q=0.9","true","714","tones/440hz_short.mp3","k","","","empty_block","","66","","","","0","11",""
"","","","","","html-keyboard-response","84","182509","0.0-95.0-1.0","33","1","2023-10-31 21:02:43","a725c3012b74bf33a1020a98cb69c237","181.47.233.218","Mozilla/5.0 (Windows NT 10.0; Win64; x64) AppleWebKit/537.36 (KHTML, like Gecko) Chrome/118.0.0.0 Safari/537.36","WebKit","Chrome","118.0.0.0","Windows","10.0","null","en-US,en;q=0.9","true","0","tones/440hz_short.mp3","a","","","empty_block","","66","","","","0","11",""
"","","","","","html-keyboard-response","85","185167","0.0-97.0","33","1","2023-10-31 21:02:43","a725c3012b74bf33a1020a98cb69c237","181.47.233.218","Mozilla/5.0 (Windows NT 10.0; Win64; x64) AppleWebKit/537.36 (KHTML, like Gecko) Chrome/118.0.0.0 Safari/537.36","WebKit","Chrome","118.0.0.0","Windows","10.0","null","en-US,en;q=0.9","true","null","<div style=""font-size:100px;"">X</div>","null","","","fixation","","","","","","","",""
"","","","","","audio-keyboard-response","86","186352","0.0-98.0","33","1","2023-10-31 21:02:43","a725c3012b74bf33a1020a98cb69c237","181.47.233.218","Mozilla/5.0 (Windows NT 10.0; Win64; x64) AppleWebKit/537.36 (KHTML, like Gecko) Chrome/118.0.0.0 Safari/537.36","WebKit","Chrome","118.0.0.0","Windows","10.0","null","en-US,en;q=0.9","true","null","tones/880hz_short.mp3","null","","","tone_number_task","1025","47","tones/880hz_short.mp3","1175","100","0","12",""
"","","","","","html-keyboard-response","87","186637","0.0-101.0-0.0","33","1","2023-10-31 21:02:43","a725c3012b74bf33a1020a98cb69c237","181.47.233.218","Mozilla/5.0 (Windows NT 10.0; Win64; x64) AppleWebKit/537.36 (KHTML, like Gecko) Chrome/118.0.0.0 Safari/537.36","WebKit","Chrome","118.0.0.0","Windows","10.0","null","en-US,en;q=0.9","true","282","tones/880hz_short.mp3","k","","","empty_block","","47","","","","0","12",""
"","","","","","html-keyboard-response","88","186641","0.0-101.0-1.0","33","1","2023-10-31 21:02:43","a725c3012b74bf33a1020a98cb69c237","181.47.233.218","Mozilla/5.0 (Windows NT 10.0; Win64; x64) AppleWebKit/537.36 (KHTML, like Gecko) Chrome/118.0.0.0 Safari/537.36","WebKit","Chrome","118.0.0.0","Windows","10.0","null","en-US,en;q=0.9","true","0","tones/880hz_short.mp3","s","","","empty_block","","47","","","","0","12",""
"","","","","","html-keyboard-response","89","189308","0.0-103.0","33","1","2023-10-31 21:02:43","a725c3012b74bf33a1020a98cb69c237","181.47.233.218","Mozilla/5.0 (Windows NT 10.0; Win64; x64) AppleWebKit/537.36 (KHTML, like Gecko) Chrome/118.0.0.0 Safari/537.36","WebKit","Chrome","118.0.0.0","Windows","10.0","null","en-US,en;q=0.9","true","null","<div style=""font-size:100px;"">X</div>","null","","","fixation","","","","","","","",""
"","","","","","audio-keyboard-response","90","189463","0.0-104.0","33","1","2023-10-31 21:02:43","a725c3012b74bf33a1020a98cb69c237","181.47.233.218","Mozilla/5.0 (Windows NT 10.0; Win64; x64) AppleWebKit/537.36 (KHTML, like Gecko) Chrome/118.0.0.0 Safari/537.36","WebKit","Chrome","118.0.0.0","Windows","10.0","null","en-US,en;q=0.9","true","null","tones/440hz_short.mp3","null","","","tone_number_task","0","28","tones/440hz_short.mp3","150","100","0","13",""
"","","","","","html-keyboard-response","91","190092","0.0-107.0-0.0","33","1","2023-10-31 21:02:43","a725c3012b74bf33a1020a98cb69c237","181.47.233.218","Mozilla/5.0 (Windows NT 10.0; Win64; x64) AppleWebKit/537.36 (KHTML, like Gecko) Chrome/118.0.0.0 Safari/537.36","WebKit","Chrome","118.0.0.0","Windows","10.0","null","en-US,en;q=0.9","true","625","tones/440hz_short.mp3","j","","","empty_block","","28","","","","0","13",""
"","","","","","html-keyboard-response","92","190095","0.0-107.0-1.0","33","1","2023-10-31 21:02:43","a725c3012b74bf33a1020a98cb69c237","181.47.233.218","Mozilla/5.0 (Windows NT 10.0; Win64; x64) AppleWebKit/537.36 (KHTML, like Gecko) Chrome/118.0.0.0 Safari/537.36","WebKit","Chrome","118.0.0.0","Windows","10.0","null","en-US,en;q=0.9","true","0","tones/440hz_short.mp3","a","","","empty_block","","28","","","","0","13",""
"","","","","","html-keyboard-response","93","192756","0.0-109.0","33","1","2023-10-31 21:02:43","a725c3012b74bf33a1020a98cb69c237","181.47.233.218","Mozilla/5.0 (Windows NT 10.0; Win64; x64) AppleWebKit/537.36 (KHTML, like Gecko) Chrome/118.0.0.0 Safari/537.36","WebKit","Chrome","118.0.0.0","Windows","10.0","null","en-US,en;q=0.9","true","null","<div style=""font-size:100px;"">X</div>","null","","","fixation","","","","","","","",""
"","","","","","audio-keyboard-response","94","193014","0.0-110.0","33","1","2023-10-31 21:02:43","a725c3012b74bf33a1020a98cb69c237","181.47.233.218","Mozilla/5.0 (Windows NT 10.0; Win64; x64) AppleWebKit/537.36 (KHTML, like Gecko) Chrome/118.0.0.0 Safari/537.36","WebKit","Chrome","118.0.0.0","Windows","10.0","null","en-US,en;q=0.9","true","null","tones/880hz_short.mp3","null","","","tone_number_task","102.5","47","tones/880hz_short.mp3","252.5","100","0","14",""
"","","","","","html-keyboard-response","95","193500","0.0-113.0-0.0","33","1","2023-10-31 21:02:43","a725c3012b74bf33a1020a98cb69c237","181.47.233.218","Mozilla/5.0 (Windows NT 10.0; Win64; x64) AppleWebKit/537.36 (KHTML, like Gecko) Chrome/118.0.0.0 Safari/537.36","WebKit","Chrome","118.0.0.0","Windows","10.0","null","en-US,en;q=0.9","true","482","tones/880hz_short.mp3","k","","","empty_block","","47","","","","0","14",""
"","","","","","html-keyboard-response","96","193504","0.0-113.0-1.0","33","1","2023-10-31 21:02:43","a725c3012b74bf33a1020a98cb69c237","181.47.233.218","Mozilla/5.0 (Windows NT 10.0; Win64; x64) AppleWebKit/537.36 (KHTML, like Gecko) Chrome/118.0.0.0 Safari/537.36","WebKit","Chrome","118.0.0.0","Windows","10.0","null","en-US,en;q=0.9","true","0","tones/880hz_short.mp3","s","","","empty_block","","47","","","","0","14",""
"","","","","","html-keyboard-response","97","196163","0.0-115.0","33","1","2023-10-31 21:02:43","a725c3012b74bf33a1020a98cb69c237","181.47.233.218","Mozilla/5.0 (Windows NT 10.0; Win64; x64) AppleWebKit/537.36 (KHTML, like Gecko) Chrome/118.0.0.0 Safari/537.36","WebKit","Chrome","118.0.0.0","Windows","10.0","null","en-US,en;q=0.9","true","null","<div style=""font-size:100px;"">X</div>","null","","","fixation","","","","","","","",""
"","","","","","audio-keyboard-response","98","196319","0.0-116.0","33","1","2023-10-31 21:02:43","a725c3012b74bf33a1020a98cb69c237","181.47.233.218","Mozilla/5.0 (Windows NT 10.0; Win64; x64) AppleWebKit/537.36 (KHTML, like Gecko) Chrome/118.0.0.0 Safari/537.36","WebKit","Chrome","118.0.0.0","Windows","10.0","null","en-US,en;q=0.9","true","null","tones/440hz_short.mp3","null","","","tone_number_task","0","63","tones/440hz_short.mp3","150","100","0","15",""
"","","","","","html-keyboard-response","99","196739","0.0-119.0-0.0","33","1","2023-10-31 21:02:43","a725c3012b74bf33a1020a98cb69c237","181.47.233.218","Mozilla/5.0 (Windows NT 10.0; Win64; x64) AppleWebKit/537.36 (KHTML, like Gecko) Chrome/118.0.0.0 Safari/537.36","WebKit","Chrome","118.0.0.0","Windows","10.0","null","en-US,en;q=0.9","true","416","tones/440hz_short.mp3","k","","","empty_block","","63","","","","0","15",""
"","","","","","html-keyboard-response","100","196742","0.0-119.0-1.0","33","1","2023-10-31 21:02:43","a725c3012b74bf33a1020a98cb69c237","181.47.233.218","Mozilla/5.0 (Windows NT 10.0; Win64; x64) AppleWebKit/537.36 (KHTML, like Gecko) Chrome/118.0.0.0 Safari/537.36","WebKit","Chrome","118.0.0.0","Windows","10.0","null","en-US,en;q=0.9","true","0","tones/440hz_short.mp3","s","","","empty_block","","63","","","","0","15",""
"","","","","","html-keyboard-response","101","199409","0.0-121.0","33","1","2023-10-31 21:02:43","a725c3012b74bf33a1020a98cb69c237","181.47.233.218","Mozilla/5.0 (Windows NT 10.0; Win64; x64) AppleWebKit/537.36 (KHTML, like Gecko) Chrome/118.0.0.0 Safari/537.36","WebKit","Chrome","118.0.0.0","Windows","10.0","null","en-US,en;q=0.9","true","null","<div style=""font-size:100px;"">X</div>","null","","","fixation","","","","","","","",""
"","","","","","audio-keyboard-response","102","200558","0.0-122.0","33","1","2023-10-31 21:02:43","a725c3012b74bf33a1020a98cb69c237","181.47.233.218","Mozilla/5.0 (Windows NT 10.0; Win64; x64) AppleWebKit/537.36 (KHTML, like Gecko) Chrome/118.0.0.0 Safari/537.36","WebKit","Chrome","118.0.0.0","Windows","10.0","null","en-US,en;q=0.9","true","null","tones/440hz_short.mp3","null","","","tone_number_task","992.5","63","tones/440hz_short.mp3","1142.5","100","0","16",""
"","","","","","html-keyboard-response","103","201073","0.0-125.0-0.0","33","1","2023-10-31 21:02:43","a725c3012b74bf33a1020a98cb69c237","181.47.233.218","Mozilla/5.0 (Windows NT 10.0; Win64; x64) AppleWebKit/537.36 (KHTML, like Gecko) Chrome/118.0.0.0 Safari/537.36","WebKit","Chrome","118.0.0.0","Windows","10.0","null","en-US,en;q=0.9","true","511","tones/440hz_short.mp3","k","","","empty_block","","63","","","","0","16",""
"","","","","","html-keyboard-response","104","201077","0.0-125.0-1.0","33","1","2023-10-31 21:02:43","a725c3012b74bf33a1020a98cb69c237","181.47.233.218","Mozilla/5.0 (Windows NT 10.0; Win64; x64) AppleWebKit/537.36 (KHTML, like Gecko) Chrome/118.0.0.0 Safari/537.36","WebKit","Chrome","118.0.0.0","Windows","10.0","null","en-US,en;q=0.9","true","0","tones/440hz_short.mp3","a","","","empty_block","","63","","","","0","16",""
"","","","","","html-keyboard-response","105","203740","0.0-127.0","33","1","2023-10-31 21:02:43","a725c3012b74bf33a1020a98cb69c237","181.47.233.218","Mozilla/5.0 (Windows NT 10.0; Win64; x64) AppleWebKit/537.36 (KHTML, like Gecko) Chrome/118.0.0.0 Safari/537.36","WebKit","Chrome","118.0.0.0","Windows","10.0","null","en-US,en;q=0.9","true","null","<div style=""font-size:100px;"">X</div>","null","","","fixation","","","","","","","",""
"","","","","","audio-keyboard-response","106","204926","0.0-128.0","33","1","2023-10-31 21:02:43","a725c3012b74bf33a1020a98cb69c237","181.47.233.218","Mozilla/5.0 (Windows NT 10.0; Win64; x64) AppleWebKit/537.36 (KHTML, like Gecko) Chrome/118.0.0.0 Safari/537.36","WebKit","Chrome","118.0.0.0","Windows","10.0","null","en-US,en;q=0.9","true","null","tones/880hz_short.mp3","null","","","tone_number_task","1025","40","tones/880hz_short.mp3","1175","100","0","17",""
"","","","","","html-keyboard-response","107","205290","0.0-131.0-0.0","33","1","2023-10-31 21:02:43","a725c3012b74bf33a1020a98cb69c237","181.47.233.218","Mozilla/5.0 (Windows NT 10.0; Win64; x64) AppleWebKit/537.36 (KHTML, like Gecko) Chrome/118.0.0.0 Safari/537.36","WebKit","Chrome","118.0.0.0","Windows","10.0","null","en-US,en;q=0.9","true","360","tones/880hz_short.mp3","j","","","empty_block","","40","","","","0","17",""
"","","","","","html-keyboard-response","108","205293","0.0-131.0-1.0","33","1","2023-10-31 21:02:43","a725c3012b74bf33a1020a98cb69c237","181.47.233.218","Mozilla/5.0 (Windows NT 10.0; Win64; x64) AppleWebKit/537.36 (KHTML, like Gecko) Chrome/118.0.0.0 Safari/537.36","WebKit","Chrome","118.0.0.0","Windows","10.0","null","en-US,en;q=0.9","true","0","tones/880hz_short.mp3","s","","","empty_block","","40","","","","0","17",""
"","","","","","html-keyboard-response","109","207953","0.0-133.0","33","1","2023-10-31 21:02:43","a725c3012b74bf33a1020a98cb69c237","181.47.233.218","Mozilla/5.0 (Windows NT 10.0; Win64; x64) AppleWebKit/537.36 (KHTML, like Gecko) Chrome/118.0.0.0 Safari/537.36","WebKit","Chrome","118.0.0.0","Windows","10.0","null","en-US,en;q=0.9","true","null","<div style=""font-size:100px;"">X</div>","null","","","fixation","","","","","","","",""
"","","","","","audio-keyboard-response","110","208212","0.0-134.0","33","1","2023-10-31 21:02:43","a725c3012b74bf33a1020a98cb69c237","181.47.233.218","Mozilla/5.0 (Windows NT 10.0; Win64; x64) AppleWebKit/537.36 (KHTML, like Gecko) Chrome/118.0.0.0 Safari/537.36","WebKit","Chrome","118.0.0.0","Windows","10.0","null","en-US,en;q=0.9","true","null","tones/440hz_short.mp3","null","","","tone_number_task","102.5","47","tones/440hz_short.mp3","252.5","100","0","18",""
"","","","","","html-keyboard-response","111","208631","0.0-137.0-0.0","33","1","2023-10-31 21:02:43","a725c3012b74bf33a1020a98cb69c237","181.47.233.218","Mozilla/5.0 (Windows NT 10.0; Win64; x64) AppleWebKit/537.36 (KHTML, like Gecko) Chrome/118.0.0.0 Safari/537.36","WebKit","Chrome","118.0.0.0","Windows","10.0","null","en-US,en;q=0.9","true","416","tones/440hz_short.mp3","k","","","empty_block","","47","","","","0","18",""
"","","","","","html-keyboard-response","112","208635","0.0-137.0-1.0","33","1","2023-10-31 21:02:43","a725c3012b74bf33a1020a98cb69c237","181.47.233.218","Mozilla/5.0 (Windows NT 10.0; Win64; x64) AppleWebKit/537.36 (KHTML, like Gecko) Chrome/118.0.0.0 Safari/537.36","WebKit","Chrome","118.0.0.0","Windows","10.0","null","en-US,en;q=0.9","true","0","tones/440hz_short.mp3","s","","","empty_block","","47","","","","0","18",""
"","","","","","html-keyboard-response","113","211303","0.0-139.0","33","1","2023-10-31 21:02:43","a725c3012b74bf33a1020a98cb69c237","181.47.233.218","Mozilla/5.0 (Windows NT 10.0; Win64; x64) AppleWebKit/537.36 (KHTML, like Gecko) Chrome/118.0.0.0 Safari/537.36","WebKit","Chrome","118.0.0.0","Windows","10.0","null","en-US,en;q=0.9","true","null","<div style=""font-size:100px;"">X</div>","null","","","fixation","","","","","","","",""
"","","","","","audio-keyboard-response","114","211457","0.0-140.0","33","1","2023-10-31 21:02:43","a725c3012b74bf33a1020a98cb69c237","181.47.233.218","Mozilla/5.0 (Windows NT 10.0; Win64; x64) AppleWebKit/537.36 (KHTML, like Gecko) Chrome/118.0.0.0 Safari/537.36","WebKit","Chrome","118.0.0.0","Windows","10.0","null","en-US,en;q=0.9","true","null","tones/880hz_short.mp3","null","","","tone_number_task","0","41","tones/880hz_short.mp3","150","100","0","19",""
"","","","","","html-keyboard-response","115","212665","0.0-143.0-0.0","33","1","2023-10-31 21:02:43","a725c3012b74bf33a1020a98cb69c237","181.47.233.218","Mozilla/5.0 (Windows NT 10.0; Win64; x64) AppleWebKit/537.36 (KHTML, like Gecko) Chrome/118.0.0.0 Safari/537.36","WebKit","Chrome","118.0.0.0","Windows","10.0","null","en-US,en;q=0.9","true","null","tones/880hz_short.mp3","null","","","empty_block","","41","","","","0","19",""
"","","","","","html-keyboard-response","116","213165","0.0-143.0-1.0","33","1","2023-10-31 21:02:43","a725c3012b74bf33a1020a98cb69c237","181.47.233.218","Mozilla/5.0 (Windows NT 10.0; Win64; x64) AppleWebKit/537.36 (KHTML, like Gecko) Chrome/118.0.0.0 Safari/537.36","WebKit","Chrome","118.0.0.0","Windows","10.0","null","en-US,en;q=0.9","true","496","tones/880hz_short.mp3","j","","","empty_block","","41","","","","0","19",""
"","","","","","html-keyboard-response","117","215827","0.0-145.0","33","1","2023-10-31 21:02:43","a725c3012b74bf33a1020a98cb69c237","181.47.233.218","Mozilla/5.0 (Windows NT 10.0; Win64; x64) AppleWebKit/537.36 (KHTML, like Gecko) Chrome/118.0.0.0 Safari/537.36","WebKit","Chrome","118.0.0.0","Windows","10.0","null","en-US,en;q=0.9","true","null","<div style=""font-size:100px;"">X</div>","null","","","fixation","","","","","","","",""
"","","","","","audio-keyboard-response","118","216590","0.0-146.0","33","1","2023-10-31 21:02:43","a725c3012b74bf33a1020a98cb69c237","181.47.233.218","Mozilla/5.0 (Windows NT 10.0; Win64; x64) AppleWebKit/537.36 (KHTML, like Gecko) Chrome/118.0.0.0 Safari/537.36","WebKit","Chrome","118.0.0.0","Windows","10.0","null","en-US,en;q=0.9","true","757","tones/440hz_short.mp3","a","","","tone_number_task","992.5","58","tones/440hz_short.mp3","1142.5","100","0","20",""
"","","","","","html-keyboard-response","119","216839","0.0-147.0-0.0","33","1","2023-10-31 21:02:43","a725c3012b74bf33a1020a98cb69c237","181.47.233.218","Mozilla/5.0 (Windows NT 10.0; Win64; x64) AppleWebKit/537.36 (KHTML, like Gecko) Chrome/118.0.0.0 Safari/537.36","WebKit","Chrome","118.0.0.0","Windows","10.0","null","en-US,en;q=0.9","true","null","","null","","","delay_block","","","","","","0","20",""
"","","","","","html-keyboard-response","120","217000","0.0-147.0-1.0","33","1","2023-10-31 21:02:43","a725c3012b74bf33a1020a98cb69c237","181.47.233.218","Mozilla/5.0 (Windows NT 10.0; Win64; x64) AppleWebKit/537.36 (KHTML, like Gecko) Chrome/118.0.0.0 Safari/537.36","WebKit","Chrome","118.0.0.0","Windows","10.0","null","en-US,en;q=0.9","true","null","<p id=""stimulus"" style=""font-size:100px;"">58</p>","null","","","tone_number_task_remaining_before_delay","","58","","385.5","100","0","20",""
"","","","","","html-keyboard-response","121","217359","0.0-150.0-0.0","33","1","2023-10-31 21:02:43","a725c3012b74bf33a1020a98cb69c237","181.47.233.218","Mozilla/5.0 (Windows NT 10.0; Win64; x64) AppleWebKit/537.36 (KHTML, like Gecko) Chrome/118.0.0.0 Safari/537.36","WebKit","Chrome","118.0.0.0","Windows","10.0","null","en-US,en;q=0.9","true","355","<p id=""stimulus"" style=""font-size:100px;"">58</p>","k","","","empty_block","","58","","","","0","20",""
"","","","","","html-keyboard-response","122","220024","0.0-151.0","33","1","2023-10-31 21:02:43","a725c3012b74bf33a1020a98cb69c237","181.47.233.218","Mozilla/5.0 (Windows NT 10.0; Win64; x64) AppleWebKit/537.36 (KHTML, like Gecko) Chrome/118.0.0.0 Safari/537.36","WebKit","Chrome","118.0.0.0","Windows","10.0","null","en-US,en;q=0.9","true","null","<div style=""font-size:100px;"">X</div>","null","","","fixation","","","","","","","",""
"","","","","","audio-keyboard-response","123","221208","0.0-152.0","33","1","2023-10-31 21:02:43","a725c3012b74bf33a1020a98cb69c237","181.47.233.218","Mozilla/5.0 (Windows NT 10.0; Win64; x64) AppleWebKit/537.36 (KHTML, like Gecko) Chrome/118.0.0.0 Safari/537.36","WebKit","Chrome","118.0.0.0","Windows","10.0","null","en-US,en;q=0.9","true","null","tones/880hz_short.mp3","null","","","tone_number_task","1025","25","tones/880hz_short.mp3","1175","100","0","21",""
"","","","","","html-keyboard-response","124","222419","0.0-155.0-0.0","33","1","2023-10-31 21:02:43","a725c3012b74bf33a1020a98cb69c237","181.47.233.218","Mozilla/5.0 (Windows NT 10.0; Win64; x64) AppleWebKit/537.36 (KHTML, like Gecko) Chrome/118.0.0.0 Safari/537.36","WebKit","Chrome","118.0.0.0","Windows","10.0","null","en-US,en;q=0.9","true","null","tones/880hz_short.mp3","null","","","empty_block","","25","","","","0","21",""
"","","","","","html-keyboard-response","125","222688","0.0-155.0-1.0","33","1","2023-10-31 21:02:43","a725c3012b74bf33a1020a98cb69c237","181.47.233.218","Mozilla/5.0 (Windows NT 10.0; Win64; x64) AppleWebKit/537.36 (KHTML, like Gecko) Chrome/118.0.0.0 Safari/537.36","WebKit","Chrome","118.0.0.0","Windows","10.0","null","en-US,en;q=0.9","true","266","tones/880hz_short.mp3","s","","","empty_block","","25","","","","0","21",""
"","","","","","html-keyboard-response","126","225348","0.0-157.0","33","1","2023-10-31 21:02:43","a725c3012b74bf33a1020a98cb69c237","181.47.233.218","Mozilla/5.0 (Windows NT 10.0; Win64; x64) AppleWebKit/537.36 (KHTML, like Gecko) Chrome/118.0.0.0 Safari/537.36","WebKit","Chrome","118.0.0.0","Windows","10.0","null","en-US,en;q=0.9","true","null","<div style=""font-size:100px;"">X</div>","null","","","fixation","","","","","","","",""
"","","","","","audio-keyboard-response","127","225607","0.0-158.0","33","1","2023-10-31 21:02:43","a725c3012b74bf33a1020a98cb69c237","181.47.233.218","Mozilla/5.0 (Windows NT 10.0; Win64; x64) AppleWebKit/537.36 (KHTML, like Gecko) Chrome/118.0.0.0 Safari/537.36","WebKit","Chrome","118.0.0.0","Windows","10.0","null","en-US,en;q=0.9","true","null","tones/440hz_short.mp3","null","","","tone_number_task","102.5","34","tones/440hz_short.mp3","252.5","100","0","22",""
"","","","","","html-keyboard-response","128","226825","0.0-161.0-0.0","33","1","2023-10-31 21:02:43","a725c3012b74bf33a1020a98cb69c237","181.47.233.218","Mozilla/5.0 (Windows NT 10.0; Win64; x64) AppleWebKit/537.36 (KHTML, like Gecko) Chrome/118.0.0.0 Safari/537.36","WebKit","Chrome","118.0.0.0","Windows","10.0","null","en-US,en;q=0.9","true","null","tones/440hz_short.mp3","null","","","empty_block","","34","","","","0","22",""
"","","","","","html-keyboard-response","129","226831","0.0-161.0-1.0","33","1","2023-10-31 21:02:43","a725c3012b74bf33a1020a98cb69c237","181.47.233.218","Mozilla/5.0 (Windows NT 10.0; Win64; x64) AppleWebKit/537.36 (KHTML, like Gecko) Chrome/118.0.0.0 Safari/537.36","WebKit","Chrome","118.0.0.0","Windows","10.0","null","en-US,en;q=0.9","true","1","tones/440hz_short.mp3","j","","","empty_block","","34","","","","0","22",""
"","","","","","html-keyboard-response","130","229498","0.0-163.0","33","1","2023-10-31 21:02:43","a725c3012b74bf33a1020a98cb69c237","181.47.233.218","Mozilla/5.0 (Windows NT 10.0; Win64; x64) AppleWebKit/537.36 (KHTML, like Gecko) Chrome/118.0.0.0 Safari/537.36","WebKit","Chrome","118.0.0.0","Windows","10.0","null","en-US,en;q=0.9","true","null","<div style=""font-size:100px;"">X</div>","null","","","fixation","","","","","","","",""
"","","","","","audio-keyboard-response","131","230652","0.0-164.0","33","1","2023-10-31 21:02:43","a725c3012b74bf33a1020a98cb69c237","181.47.233.218","Mozilla/5.0 (Windows NT 10.0; Win64; x64) AppleWebKit/537.36 (KHTML, like Gecko) Chrome/118.0.0.0 Safari/537.36","WebKit","Chrome","118.0.0.0","Windows","10.0","null","en-US,en;q=0.9","true","null","tones/880hz_short.mp3","null","","","tone_number_task","992.5","36","tones/880hz_short.mp3","1142.5","100","0","23",""
"","","","","","html-keyboard-response","132","231071","0.0-167.0-0.0","33","1","2023-10-31 21:02:43","a725c3012b74bf33a1020a98cb69c237","181.47.233.218","Mozilla/5.0 (Windows NT 10.0; Win64; x64) AppleWebKit/537.36 (KHTML, like Gecko) Chrome/118.0.0.0 Safari/537.36","WebKit","Chrome","118.0.0.0","Windows","10.0","null","en-US,en;q=0.9","true","414","tones/880hz_short.mp3","s","","","empty_block","","36","","","","0","23",""
"","","","","","html-keyboard-response","133","231141","0.0-167.0-1.0","33","1","2023-10-31 21:02:43","a725c3012b74bf33a1020a98cb69c237","181.47.233.218","Mozilla/5.0 (Windows NT 10.0; Win64; x64) AppleWebKit/537.36 (KHTML, like Gecko) Chrome/118.0.0.0 Safari/537.36","WebKit","Chrome","118.0.0.0","Windows","10.0","null","en-US,en;q=0.9","true","66","tones/880hz_short.mp3","j","","","empty_block","","36","","","","0","23",""
"","","","","","html-keyboard-response","134","233807","0.0-169.0","33","1","2023-10-31 21:02:43","a725c3012b74bf33a1020a98cb69c237","181.47.233.218","Mozilla/5.0 (Windows NT 10.0; Win64; x64) AppleWebKit/537.36 (KHTML, like Gecko) Chrome/118.0.0.0 Safari/537.36","WebKit","Chrome","118.0.0.0","Windows","10.0","null","en-US,en;q=0.9","true","null","<div style=""font-size:100px;"">X</div>","null","","","fixation","","","","","","","",""
"","","","","","audio-keyboard-response","135","233965","0.0-170.0","33","1","2023-10-31 21:02:43","a725c3012b74bf33a1020a98cb69c237","181.47.233.218","Mozilla/5.0 (Windows NT 10.0; Win64; x64) AppleWebKit/537.36 (KHTML, like Gecko) Chrome/118.0.0.0 Safari/537.36","WebKit","Chrome","118.0.0.0","Windows","10.0","null","en-US,en;q=0.9","true","null","tones/440hz_short.mp3","null","","","tone_number_task","0","63","tones/440hz_short.mp3","150","100","0","24",""
"","","","","","html-keyboard-response","136","234935","0.0-173.0-0.0","33","1","2023-10-31 21:02:43","a725c3012b74bf33a1020a98cb69c237","181.47.233.218","Mozilla/5.0 (Windows NT 10.0; Win64; x64) AppleWebKit/537.36 (KHTML, like Gecko) Chrome/118.0.0.0 Safari/537.36","WebKit","Chrome","118.0.0.0","Windows","10.0","null","en-US,en;q=0.9","true","967","tones/440hz_short.mp3","k","","","empty_block","","63","","","","0","24",""
"","","","","","html-keyboard-response","137","234939","0.0-173.0-1.0","33","1","2023-10-31 21:02:43","a725c3012b74bf33a1020a98cb69c237","181.47.233.218","Mozilla/5.0 (Windows NT 10.0; Win64; x64) AppleWebKit/537.36 (KHTML, like Gecko) Chrome/118.0.0.0 Safari/537.36","WebKit","Chrome","118.0.0.0","Windows","10.0","null","en-US,en;q=0.9","true","0","tones/440hz_short.mp3","a","","","empty_block","","63","","","","0","24",""
"","","","","","html-keyboard-response","138","237602","0.0-175.0","33","1","2023-10-31 21:02:43","a725c3012b74bf33a1020a98cb69c237","181.47.233.218","Mozilla/5.0 (Windows NT 10.0; Win64; x64) AppleWebKit/537.36 (KHTML, like Gecko) Chrome/118.0.0.0 Safari/537.36","WebKit","Chrome","118.0.0.0","Windows","10.0","null","en-US,en;q=0.9","true","null","<div style=""font-size:100px;"">X</div>","null","","","fixation","","","","","","","",""
"","","","","","audio-keyboard-response","139","237860","0.0-176.0","33","1","2023-10-31 21:02:43","a725c3012b74bf33a1020a98cb69c237","181.47.233.218","Mozilla/5.0 (Windows NT 10.0; Win64; x64) AppleWebKit/537.36 (KHTML, like Gecko) Chrome/118.0.0.0 Safari/537.36","WebKit","Chrome","118.0.0.0","Windows","10.0","null","en-US,en;q=0.9","true","null","tones/440hz_short.mp3","null","","","tone_number_task","102.5","61","tones/440hz_short.mp3","252.5","100","0","25",""
"","","","","","html-keyboard-response","140","238886","0.0-179.0-0.0","33","1","2023-10-31 21:02:43","a725c3012b74bf33a1020a98cb69c237","181.47.233.218","Mozilla/5.0 (Windows NT 10.0; Win64; x64) AppleWebKit/537.36 (KHTML, like Gecko) Chrome/118.0.0.0 Safari/537.36","WebKit","Chrome","118.0.0.0","Windows","10.0","null","en-US,en;q=0.9","true","1020","tones/440hz_short.mp3","k","","","empty_block","","61","","","","0","25",""
"","","","","","html-keyboard-response","141","238891","0.0-179.0-1.0","33","1","2023-10-31 21:02:43","a725c3012b74bf33a1020a98cb69c237","181.47.233.218","Mozilla/5.0 (Windows NT 10.0; Win64; x64) AppleWebKit/537.36 (KHTML, like Gecko) Chrome/118.0.0.0 Safari/537.36","WebKit","Chrome","118.0.0.0","Windows","10.0","null","en-US,en;q=0.9","true","0","tones/440hz_short.mp3","a","","","empty_block","","61","","","","0","25",""
"","","","","","html-keyboard-response","142","241552","0.0-181.0","33","1","2023-10-31 21:02:43","a725c3012b74bf33a1020a98cb69c237","181.47.233.218","Mozilla/5.0 (Windows NT 10.0; Win64; x64) AppleWebKit/537.36 (KHTML, like Gecko) Chrome/118.0.0.0 Safari/537.36","WebKit","Chrome","118.0.0.0","Windows","10.0","null","en-US,en;q=0.9","true","null","<div style=""font-size:100px;"">X</div>","null","","","fixation","","","","","","","",""
"","","","","","audio-keyboard-response","143","241711","0.0-182.0","33","1","2023-10-31 21:02:43","a725c3012b74bf33a1020a98cb69c237","181.47.233.218","Mozilla/5.0 (Windows NT 10.0; Win64; x64) AppleWebKit/537.36 (KHTML, like Gecko) Chrome/118.0.0.0 Safari/537.36","WebKit","Chrome","118.0.0.0","Windows","10.0","null","en-US,en;q=0.9","true","null","tones/440hz_short.mp3","null","","","tone_number_task","0","38","tones/440hz_short.mp3","150","100","0","26",""
"","","","","","html-keyboard-response","144","242695","0.0-185.0-0.0","33","1","2023-10-31 21:02:43","a725c3012b74bf33a1020a98cb69c237","181.47.233.218","Mozilla/5.0 (Windows NT 10.0; Win64; x64) AppleWebKit/537.36 (KHTML, like Gecko) Chrome/118.0.0.0 Safari/537.36","WebKit","Chrome","118.0.0.0","Windows","10.0","null","en-US,en;q=0.9","true","979","tones/440hz_short.mp3","j","","","empty_block","","38","","","","0","26",""
"","","","","","html-keyboard-response","145","242713","0.0-185.0-1.0","33","1","2023-10-31 21:02:43","a725c3012b74bf33a1020a98cb69c237","181.47.233.218","Mozilla/5.0 (Windows NT 10.0; Win64; x64) AppleWebKit/537.36 (KHTML, like Gecko) Chrome/118.0.0.0 Safari/537.36","WebKit","Chrome","118.0.0.0","Windows","10.0","null","en-US,en;q=0.9","true","13","tones/440hz_short.mp3","a","","","empty_block","","38","","","","0","26",""
"","","","","","html-keyboard-response","146","245379","0.0-187.0","33","1","2023-10-31 21:02:43","a725c3012b74bf33a1020a98cb69c237","181.47.233.218","Mozilla/5.0 (Windows NT 10.0; Win64; x64) AppleWebKit/537.36 (KHTML, like Gecko) Chrome/118.0.0.0 Safari/537.36","WebKit","Chrome","118.0.0.0","Windows","10.0","null","en-US,en;q=0.9","true","null","<div style=""font-size:100px;"">X</div>","null","","","fixation","","","","","","","",""
"","","","","","audio-keyboard-response","147","246534","0.0-188.0","33","1","2023-10-31 21:02:43","a725c3012b74bf33a1020a98cb69c237","181.47.233.218","Mozilla/5.0 (Windows NT 10.0; Win64; x64) AppleWebKit/537.36 (KHTML, like Gecko) Chrome/118.0.0.0 Safari/537.36","WebKit","Chrome","118.0.0.0","Windows","10.0","null","en-US,en;q=0.9","true","null","tones/880hz_short.mp3","null","","","tone_number_task","992.5","51","tones/880hz_short.mp3","1142.5","100","0","27",""
"","","","","","html-keyboard-response","148","247622","0.0-191.0-0.0","33","1","2023-10-31 21:02:43","a725c3012b74bf33a1020a98cb69c237","181.47.233.218","Mozilla/5.0 (Windows NT 10.0; Win64; x64) AppleWebKit/537.36 (KHTML, like Gecko) Chrome/118.0.0.0 Safari/537.36","WebKit","Chrome","118.0.0.0","Windows","10.0","null","en-US,en;q=0.9","true","1083","tones/880hz_short.mp3","k","","","empty_block","","51","","","","0","27",""
"","","","","","html-keyboard-response","149","247627","0.0-191.0-1.0","33","1","2023-10-31 21:02:43","a725c3012b74bf33a1020a98cb69c237","181.47.233.218","Mozilla/5.0 (Windows NT 10.0; Win64; x64) AppleWebKit/537.36 (KHTML, like Gecko) Chrome/118.0.0.0 Safari/537.36","WebKit","Chrome","118.0.0.0","Windows","10.0","null","en-US,en;q=0.9","true","0","tones/880hz_short.mp3","s","","","empty_block","","51","","","","0","27",""
"","","","","","html-keyboard-response","150","250289","0.0-193.0","33","1","2023-10-31 21:02:43","a725c3012b74bf33a1020a98cb69c237","181.47.233.218","Mozilla/5.0 (Windows NT 10.0; Win64; x64) AppleWebKit/537.36 (KHTML, like Gecko) Chrome/118.0.0.0 Safari/537.36","WebKit","Chrome","118.0.0.0","Windows","10.0","null","en-US,en;q=0.9","true","null","<div style=""font-size:100px;"">X</div>","null","","","fixation","","","","","","","",""
"","","","","","audio-keyboard-response","151","250561","0.0-194.0","33","1","2023-10-31 21:02:43","a725c3012b74bf33a1020a98cb69c237","181.47.233.218","Mozilla/5.0 (Windows NT 10.0; Win64; x64) AppleWebKit/537.36 (KHTML, like Gecko) Chrome/118.0.0.0 Safari/537.36","WebKit","Chrome","118.0.0.0","Windows","10.0","null","en-US,en;q=0.9","true","null","tones/880hz_short.mp3","null","","","tone_number_task","102.5","34","tones/880hz_short.mp3","252.5","100","0","28",""
"","","","","","html-keyboard-response","152","251782","0.0-197.0-0.0","33","1","2023-10-31 21:02:43","a725c3012b74bf33a1020a98cb69c237","181.47.233.218","Mozilla/5.0 (Windows NT 10.0; Win64; x64) AppleWebKit/537.36 (KHTML, like Gecko) Chrome/118.0.0.0 Safari/537.36","WebKit","Chrome","118.0.0.0","Windows","10.0","null","en-US,en;q=0.9","true","null","tones/880hz_short.mp3","null","","","empty_block","","34","","","","0","28",""
"","","","","","html-keyboard-response","153","251797","0.0-197.0-1.0","33","1","2023-10-31 21:02:43","a725c3012b74bf33a1020a98cb69c237","181.47.233.218","Mozilla/5.0 (Windows NT 10.0; Win64; x64) AppleWebKit/537.36 (KHTML, like Gecko) Chrome/118.0.0.0 Safari/537.36","WebKit","Chrome","118.0.0.0","Windows","10.0","null","en-US,en;q=0.9","true","9","tones/880hz_short.mp3","k","","","empty_block","","34","","","","0","28",""
