"success","timeout","failed_images","failed_audio","failed_video","trial_type","trial_index","time_elapsed","internal_node_id","run_id","condition","recorded_at","source_code_version","ip","user_agent","device","browser","browser_version","platform","platform_version","referer","accept_language","check","rt","stimulus","response","question_order","url","task","delay","number","audioFile","trial_duration","font_size","block","round","value"
"true","false","[]","[]","[]","preload","0","1093","0.0-0.0","23","1","2023-10-21 19:33:33","a725c3012b74bf33a1020a98cb69c237","69.23.117.183","Mozilla/5.0 (Macintosh; Intel Mac OS X 10_15_7) AppleWebKit/537.36 (KHTML, like Gecko) Chrome/116.0.0.0 Safari/537.36","Macintosh","Chrome","116.0.0.0","OS X","10_15_7","null","en,es-419;q=0.9,es;q=0.8,fr;q=0.7","true","","","","","","","","","","","","","",""
"true","","","","","fullscreen","1","6345","0.0-1.0","23","1","2023-10-21 19:33:33","a725c3012b74bf33a1020a98cb69c237","69.23.117.183","Mozilla/5.0 (Macintosh; Intel Mac OS X 10_15_7) AppleWebKit/537.36 (KHTML, like Gecko) Chrome/116.0.0.0 Safari/537.36","Macintosh","Chrome","116.0.0.0","OS X","10_15_7","null","en,es-419;q=0.9,es;q=0.8,fr;q=0.7","true","","","","","","","","","","","","","",""
"","","","","","html-button-response","2","8748","0.0-2.0","23","1","2023-10-21 19:33:33","a725c3012b74bf33a1020a98cb69c237","69.23.117.183","Mozilla/5.0 (Macintosh; Intel Mac OS X 10_15_7) AppleWebKit/537.36 (KHTML, like Gecko) Chrome/116.0.0.0 Safari/537.36","Macintosh","Chrome","116.0.0.0","OS X","10_15_7","null","en,es-419;q=0.9,es;q=0.8,fr;q=0.7","true","2400","<p style=""font-size:24px; color:red;"">Cosas importantes a tener en cuenta antes de comenzar el experimento:</p>","0","","","","","","","","","","",""
"","","","","","html-button-response","3","88888","0.0-3.0","23","1","2023-10-21 19:33:33","a725c3012b74bf33a1020a98cb69c237","69.23.117.183","Mozilla/5.0 (Macintosh; Intel Mac OS X 10_15_7) AppleWebKit/537.36 (KHTML, like Gecko) Chrome/116.0.0.0 Safari/537.36","Macintosh","Chrome","116.0.0.0","OS X","10_15_7","null","en,es-419;q=0.9,es;q=0.8,fr;q=0.7","true","80135","<p style=""font-size:24px;"">El experimento dura aproximadamente 15 minutos.</p><p style=""font-size:24px;"">Por favor, no cierres la ventana del navegador durante el experimento.</p><p style=""font-size:24px;"">Si se completa de forma parcial, no se guardará ningún resultado.</p>","0","","","","","","","","","","",""
"","","","","","html-button-response","4","91809","0.0-4.0","23","1","2023-10-21 19:33:33","a725c3012b74bf33a1020a98cb69c237","69.23.117.183","Mozilla/5.0 (Macintosh; Intel Mac OS X 10_15_7) AppleWebKit/537.36 (KHTML, like Gecko) Chrome/116.0.0.0 Safari/537.36","Macintosh","Chrome","116.0.0.0","OS X","10_15_7","null","en,es-419;q=0.9,es;q=0.8,fr;q=0.7","true","2917","<p style=""font-size:24px;"">El experimento contiene estímulos sonoros.</p>","0","","","","","","","","","","",""
"","","","","","audio-button-response","5","94940","0.0-5.0-0.0","23","1","2023-10-21 19:33:33","a725c3012b74bf33a1020a98cb69c237","69.23.117.183","Mozilla/5.0 (Macintosh; Intel Mac OS X 10_15_7) AppleWebKit/537.36 (KHTML, like Gecko) Chrome/116.0.0.0 Safari/537.36","Macintosh","Chrome","116.0.0.0","OS X","10_15_7","null","en,es-419;q=0.9,es;q=0.8,fr;q=0.7","true","3083","tones/440hz_short.mp3","1","","","","","","","","","","",""
"","","","","","audio-button-response","6","96405","0.0-6.0-0.0","23","1","2023-10-21 19:33:33","a725c3012b74bf33a1020a98cb69c237","69.23.117.183","Mozilla/5.0 (Macintosh; Intel Mac OS X 10_15_7) AppleWebKit/537.36 (KHTML, like Gecko) Chrome/116.0.0.0 Safari/537.36","Macintosh","Chrome","116.0.0.0","OS X","10_15_7","null","en,es-419;q=0.9,es;q=0.8,fr;q=0.7","true","1461","tones/880hz_short.mp3","1","","","","","","","","","","",""
"","","","","","survey-html-form","7","98757","0.0-7.0","23","1","2023-10-21 19:33:33","a725c3012b74bf33a1020a98cb69c237","69.23.117.183","Mozilla/5.0 (Macintosh; Intel Mac OS X 10_15_7) AppleWebKit/537.36 (KHTML, like Gecko) Chrome/116.0.0.0 Safari/537.36","Macintosh","Chrome","116.0.0.0","OS X","10_15_7","null","en,es-419;q=0.9,es;q=0.8,fr;q=0.7","true","2346","","{""response"":""23""}","","","","","","","","","","",""
"","","","","","survey-multi-choice","8","111818","0.0-8.0","23","1","2023-10-21 19:33:33","a725c3012b74bf33a1020a98cb69c237","69.23.117.183","Mozilla/5.0 (Macintosh; Intel Mac OS X 10_15_7) AppleWebKit/537.36 (KHTML, like Gecko) Chrome/116.0.0.0 Safari/537.36","Macintosh","Chrome","116.0.0.0","OS X","10_15_7","null","en,es-419;q=0.9,es;q=0.8,fr;q=0.7","true","13056","","{""gender"":""Hombre"",""hand"":""Derecha""}","[0,1]","","","","","","","","","",""
"","","","","","external-html","9","173328","0.0-9.0","23","1","2023-10-21 19:33:33","a725c3012b74bf33a1020a98cb69c237","69.23.117.183","Mozilla/5.0 (Macintosh; Intel Mac OS X 10_15_7) AppleWebKit/537.36 (KHTML, like Gecko) Chrome/116.0.0.0 Safari/537.36","Macintosh","Chrome","116.0.0.0","OS X","10_15_7","null","en,es-419;q=0.9,es;q=0.8,fr;q=0.7","true","60758","","","","instructions/instructions.html","","","","","","","","",""
"","","","","","external-html","10","220160","0.0-10.0","23","1","2023-10-21 19:33:33","a725c3012b74bf33a1020a98cb69c237","69.23.117.183","Mozilla/5.0 (Macintosh; Intel Mac OS X 10_15_7) AppleWebKit/537.36 (KHTML, like Gecko) Chrome/116.0.0.0 Safari/537.36","Macintosh","Chrome","116.0.0.0","OS X","10_15_7","null","en,es-419;q=0.9,es;q=0.8,fr;q=0.7","true","45648","","","","instructions/animation.html","","","","","","","","",""
"","","","","","html-keyboard-response","11","223062","0.0-11.0-0.0","23","1","2023-10-21 19:33:33","a725c3012b74bf33a1020a98cb69c237","69.23.117.183","Mozilla/5.0 (Macintosh; Intel Mac OS X 10_15_7) AppleWebKit/537.36 (KHTML, like Gecko) Chrome/116.0.0.0 Safari/537.36","Macintosh","Chrome","116.0.0.0","OS X","10_15_7","null","en,es-419;q=0.9,es;q=0.8,fr;q=0.7","true","null","<div style=""font-size:100px;"">X</div>","null","","","fixation","","","","","","","",""
"","","","","","audio-keyboard-response","12","223510","0.0-11.0-1.0","23","1","2023-10-21 19:33:33","a725c3012b74bf33a1020a98cb69c237","69.23.117.183","Mozilla/5.0 (Macintosh; Intel Mac OS X 10_15_7) AppleWebKit/537.36 (KHTML, like Gecko) Chrome/116.0.0.0 Safari/537.36","Macintosh","Chrome","116.0.0.0","OS X","10_15_7","null","en,es-419;q=0.9,es;q=0.8,fr;q=0.7","true","416","tones/880hz_short.mp3","s","","","tone_number_task","1000","36","tones/880hz_short.mp3","1150","100","null","null",""
"","","","","","html-keyboard-response","13","224102","0.0-11.0-2.0-0.0","23","1","2023-10-21 19:33:33","a725c3012b74bf33a1020a98cb69c237","69.23.117.183","Mozilla/5.0 (Macintosh; Intel Mac OS X 10_15_7) AppleWebKit/537.36 (KHTML, like Gecko) Chrome/116.0.0.0 Safari/537.36","Macintosh","Chrome","116.0.0.0","OS X","10_15_7","null","en,es-419;q=0.9,es;q=0.8,fr;q=0.7","true","null","","null","","","delay_block","","","","","","null","null",""
"","","","","","html-keyboard-response","14","224262","0.0-11.0-2.0-1.0","23","1","2023-10-21 19:33:33","a725c3012b74bf33a1020a98cb69c237","69.23.117.183","Mozilla/5.0 (Macintosh; Intel Mac OS X 10_15_7) AppleWebKit/537.36 (KHTML, like Gecko) Chrome/116.0.0.0 Safari/537.36","Macintosh","Chrome","116.0.0.0","OS X","10_15_7","null","en,es-419;q=0.9,es;q=0.8,fr;q=0.7","true","null","<p id=""stimulus"" style=""font-size:100px;"">36</p>","null","","","tone_number_task_remaining_before_delay","","36","","734","100","null","null",""
"","","","","","html-keyboard-response","15","224785","0.0-11.0-5.0-0.0","23","1","2023-10-21 19:33:33","a725c3012b74bf33a1020a98cb69c237","69.23.117.183","Mozilla/5.0 (Macintosh; Intel Mac OS X 10_15_7) AppleWebKit/537.36 (KHTML, like Gecko) Chrome/116.0.0.0 Safari/537.36","Macintosh","Chrome","116.0.0.0","OS X","10_15_7","null","en,es-419;q=0.9,es;q=0.8,fr;q=0.7","true","521","<p id=""stimulus"" style=""font-size:100px;"">36</p>","j","","","empty_block","","36","","","","null","null",""
"","","","","","html-keyboard-response","16","227678","0.0-13.0-0.0","23","1","2023-10-21 19:33:33","a725c3012b74bf33a1020a98cb69c237","69.23.117.183","Mozilla/5.0 (Macintosh; Intel Mac OS X 10_15_7) AppleWebKit/537.36 (KHTML, like Gecko) Chrome/116.0.0.0 Safari/537.36","Macintosh","Chrome","116.0.0.0","OS X","10_15_7","null","en,es-419;q=0.9,es;q=0.8,fr;q=0.7","true","null","<div style=""font-size:100px;"">X</div>","null","","","fixation","","","","","","","",""
"","","","","","audio-keyboard-response","17","228333","0.0-13.0-1.0","23","1","2023-10-21 19:33:33","a725c3012b74bf33a1020a98cb69c237","69.23.117.183","Mozilla/5.0 (Macintosh; Intel Mac OS X 10_15_7) AppleWebKit/537.36 (KHTML, like Gecko) Chrome/116.0.0.0 Safari/537.36","Macintosh","Chrome","116.0.0.0","OS X","10_15_7","null","en,es-419;q=0.9,es;q=0.8,fr;q=0.7","true","null","tones/440hz_short.mp3","null","","","tone_number_task","500","27","tones/440hz_short.mp3","650","100","null","null",""
"","","","","","html-keyboard-response","18","228406","0.0-13.0-4.0-0.0","23","1","2023-10-21 19:33:33","a725c3012b74bf33a1020a98cb69c237","69.23.117.183","Mozilla/5.0 (Macintosh; Intel Mac OS X 10_15_7) AppleWebKit/537.36 (KHTML, like Gecko) Chrome/116.0.0.0 Safari/537.36","Macintosh","Chrome","116.0.0.0","OS X","10_15_7","null","en,es-419;q=0.9,es;q=0.8,fr;q=0.7","true","72","tones/440hz_short.mp3","a","","","empty_block","","27","","","","null","null",""
"","","","","","html-keyboard-response","19","228729","0.0-13.0-4.0-1.0","23","1","2023-10-21 19:33:33","a725c3012b74bf33a1020a98cb69c237","69.23.117.183","Mozilla/5.0 (Macintosh; Intel Mac OS X 10_15_7) AppleWebKit/537.36 (KHTML, like Gecko) Chrome/116.0.0.0 Safari/537.36","Macintosh","Chrome","116.0.0.0","OS X","10_15_7","null","en,es-419;q=0.9,es;q=0.8,fr;q=0.7","true","321","tones/440hz_short.mp3","j","","","empty_block","","27","","","","null","null",""
"","","","","","html-keyboard-response","20","231622","0.0-15.0-0.0","23","1","2023-10-21 19:33:33","a725c3012b74bf33a1020a98cb69c237","69.23.117.183","Mozilla/5.0 (Macintosh; Intel Mac OS X 10_15_7) AppleWebKit/537.36 (KHTML, like Gecko) Chrome/116.0.0.0 Safari/537.36","Macintosh","Chrome","116.0.0.0","OS X","10_15_7","null","en,es-419;q=0.9,es;q=0.8,fr;q=0.7","true","null","<div style=""font-size:100px;"">X</div>","null","","","fixation","","","","","","","",""
"","","","","","audio-keyboard-response","21","231931","0.0-15.0-1.0","23","1","2023-10-21 19:33:33","a725c3012b74bf33a1020a98cb69c237","69.23.117.183","Mozilla/5.0 (Macintosh; Intel Mac OS X 10_15_7) AppleWebKit/537.36 (KHTML, like Gecko) Chrome/116.0.0.0 Safari/537.36","Macintosh","Chrome","116.0.0.0","OS X","10_15_7","null","en,es-419;q=0.9,es;q=0.8,fr;q=0.7","true","null","tones/440hz_short.mp3","null","","","tone_number_task","150","57","tones/440hz_short.mp3","300","100","null","null",""
"","","","","","html-keyboard-response","22","232184","0.0-15.0-4.0-0.0","23","1","2023-10-21 19:33:33","a725c3012b74bf33a1020a98cb69c237","69.23.117.183","Mozilla/5.0 (Macintosh; Intel Mac OS X 10_15_7) AppleWebKit/537.36 (KHTML, like Gecko) Chrome/116.0.0.0 Safari/537.36","Macintosh","Chrome","116.0.0.0","OS X","10_15_7","null","en,es-419;q=0.9,es;q=0.8,fr;q=0.7","true","251","tones/440hz_short.mp3","s","","","empty_block","","57","","","","null","null",""
"","","","","","html-keyboard-response","23","232523","0.0-15.0-4.0-1.0","23","1","2023-10-21 19:33:33","a725c3012b74bf33a1020a98cb69c237","69.23.117.183","Mozilla/5.0 (Macintosh; Intel Mac OS X 10_15_7) AppleWebKit/537.36 (KHTML, like Gecko) Chrome/116.0.0.0 Safari/537.36","Macintosh","Chrome","116.0.0.0","OS X","10_15_7","null","en,es-419;q=0.9,es;q=0.8,fr;q=0.7","true","337","tones/440hz_short.mp3","k","","","empty_block","","57","","","","null","null",""
"","","","","","html-button-response","24","236223","0.0-15.0-6.0-0.0","23","1","2023-10-21 19:33:33","a725c3012b74bf33a1020a98cb69c237","69.23.117.183","Mozilla/5.0 (Macintosh; Intel Mac OS X 10_15_7) AppleWebKit/537.36 (KHTML, like Gecko) Chrome/116.0.0.0 Safari/537.36","Macintosh","Chrome","116.0.0.0","OS X","10_15_7","null","en,es-419;q=0.9,es;q=0.8,fr;q=0.7","true","3698","
  '<p style=""font-size:24px; color:red;"">Incorrecto</p><p> Respondiste alguno de los estímulos de manera incorrecta.</p><p>Por favor, repasá las instrucciones y seguimos desde donde nos quedamos. </p>
  ","0","","","","","","","","","","",""
"","","","","","external-html","25","239677","0.0-15.0-6.0-1.0","23","1","2023-10-21 19:33:33","a725c3012b74bf33a1020a98cb69c237","69.23.117.183","Mozilla/5.0 (Macintosh; Intel Mac OS X 10_15_7) AppleWebKit/537.36 (KHTML, like Gecko) Chrome/116.0.0.0 Safari/537.36","Macintosh","Chrome","116.0.0.0","OS X","10_15_7","null","en,es-419;q=0.9,es;q=0.8,fr;q=0.7","true","2667","","","","instructions/instructions_B.html","","","","","","","","",""
"","","","","","html-keyboard-response","26","242577","0.0-15.1-0.1","23","1","2023-10-21 19:33:33","a725c3012b74bf33a1020a98cb69c237","69.23.117.183","Mozilla/5.0 (Macintosh; Intel Mac OS X 10_15_7) AppleWebKit/537.36 (KHTML, like Gecko) Chrome/116.0.0.0 Safari/537.36","Macintosh","Chrome","116.0.0.0","OS X","10_15_7","null","en,es-419;q=0.9,es;q=0.8,fr;q=0.7","true","null","<div style=""font-size:100px;"">X</div>","null","","","fixation","","","","","","","",""
"","","","","","audio-keyboard-response","27","242886","0.0-15.1-1.1","23","1","2023-10-21 19:33:33","a725c3012b74bf33a1020a98cb69c237","69.23.117.183","Mozilla/5.0 (Macintosh; Intel Mac OS X 10_15_7) AppleWebKit/537.36 (KHTML, like Gecko) Chrome/116.0.0.0 Safari/537.36","Macintosh","Chrome","116.0.0.0","OS X","10_15_7","null","en,es-419;q=0.9,es;q=0.8,fr;q=0.7","true","null","tones/440hz_short.mp3","null","","","tone_number_task","150","57","tones/440hz_short.mp3","300","100","null","null",""
"","","","","","html-keyboard-response","28","243124","0.0-15.1-4.1-0.1","23","1","2023-10-21 19:33:33","a725c3012b74bf33a1020a98cb69c237","69.23.117.183","Mozilla/5.0 (Macintosh; Intel Mac OS X 10_15_7) AppleWebKit/537.36 (KHTML, like Gecko) Chrome/116.0.0.0 Safari/537.36","Macintosh","Chrome","116.0.0.0","OS X","10_15_7","null","en,es-419;q=0.9,es;q=0.8,fr;q=0.7","true","236","tones/440hz_short.mp3","s","","","empty_block","","57","","","","null","null",""
"","","","","","html-keyboard-response","29","243446","0.0-15.1-4.1-1.1","23","1","2023-10-21 19:33:33","a725c3012b74bf33a1020a98cb69c237","69.23.117.183","Mozilla/5.0 (Macintosh; Intel Mac OS X 10_15_7) AppleWebKit/537.36 (KHTML, like Gecko) Chrome/116.0.0.0 Safari/537.36","Macintosh","Chrome","116.0.0.0","OS X","10_15_7","null","en,es-419;q=0.9,es;q=0.8,fr;q=0.7","true","321","tones/440hz_short.mp3","k","","","empty_block","","57","","","","null","null",""
"","","","","","html-button-response","30","249043","0.0-15.1-6.1-0.1","23","1","2023-10-21 19:33:33","a725c3012b74bf33a1020a98cb69c237","69.23.117.183","Mozilla/5.0 (Macintosh; Intel Mac OS X 10_15_7) AppleWebKit/537.36 (KHTML, like Gecko) Chrome/116.0.0.0 Safari/537.36","Macintosh","Chrome","116.0.0.0","OS X","10_15_7","null","en,es-419;q=0.9,es;q=0.8,fr;q=0.7","true","5594","
  '<p style=""font-size:24px; color:red;"">Incorrecto</p><p> Respondiste alguno de los estímulos de manera incorrecta.</p><p>Por favor, repasá las instrucciones y seguimos desde donde nos quedamos. </p>
  ","0","","","","","","","","","","",""
"","","","","","external-html","31","259699","0.0-15.1-6.1-1.1","23","1","2023-10-21 19:33:33","a725c3012b74bf33a1020a98cb69c237","69.23.117.183","Mozilla/5.0 (Macintosh; Intel Mac OS X 10_15_7) AppleWebKit/537.36 (KHTML, like Gecko) Chrome/116.0.0.0 Safari/537.36","Macintosh","Chrome","116.0.0.0","OS X","10_15_7","null","en,es-419;q=0.9,es;q=0.8,fr;q=0.7","true","10440","","","","instructions/instructions_B.html","","","","","","","","",""
"","","","","","html-keyboard-response","32","262601","0.0-15.2-0.2","23","1","2023-10-21 19:33:33","a725c3012b74bf33a1020a98cb69c237","69.23.117.183","Mozilla/5.0 (Macintosh; Intel Mac OS X 10_15_7) AppleWebKit/537.36 (KHTML, like Gecko) Chrome/116.0.0.0 Safari/537.36","Macintosh","Chrome","116.0.0.0","OS X","10_15_7","null","en,es-419;q=0.9,es;q=0.8,fr;q=0.7","true","null","<div style=""font-size:100px;"">X</div>","null","","","fixation","","","","","","","",""
"","","","","","audio-keyboard-response","33","262911","0.0-15.2-1.2","23","1","2023-10-21 19:33:33","a725c3012b74bf33a1020a98cb69c237","69.23.117.183","Mozilla/5.0 (Macintosh; Intel Mac OS X 10_15_7) AppleWebKit/537.36 (KHTML, like Gecko) Chrome/116.0.0.0 Safari/537.36","Macintosh","Chrome","116.0.0.0","OS X","10_15_7","null","en,es-419;q=0.9,es;q=0.8,fr;q=0.7","true","null","tones/440hz_short.mp3","null","","","tone_number_task","150","57","tones/440hz_short.mp3","300","100","null","null",""
"","","","","","html-keyboard-response","34","263099","0.0-15.2-4.2-0.2","23","1","2023-10-21 19:33:33","a725c3012b74bf33a1020a98cb69c237","69.23.117.183","Mozilla/5.0 (Macintosh; Intel Mac OS X 10_15_7) AppleWebKit/537.36 (KHTML, like Gecko) Chrome/116.0.0.0 Safari/537.36","Macintosh","Chrome","116.0.0.0","OS X","10_15_7","null","en,es-419;q=0.9,es;q=0.8,fr;q=0.7","true","185","tones/440hz_short.mp3","a","","","empty_block","","57","","","","null","null",""
"","","","","","html-keyboard-response","35","263411","0.0-15.2-4.2-1.2","23","1","2023-10-21 19:33:33","a725c3012b74bf33a1020a98cb69c237","69.23.117.183","Mozilla/5.0 (Macintosh; Intel Mac OS X 10_15_7) AppleWebKit/537.36 (KHTML, like Gecko) Chrome/116.0.0.0 Safari/537.36","Macintosh","Chrome","116.0.0.0","OS X","10_15_7","null","en,es-419;q=0.9,es;q=0.8,fr;q=0.7","true","309","tones/440hz_short.mp3","j","","","empty_block","","57","","","","null","null",""
"","","","","","html-button-response","36","264797","0.0-15.2-6.2-0.2","23","1","2023-10-21 19:33:33","a725c3012b74bf33a1020a98cb69c237","69.23.117.183","Mozilla/5.0 (Macintosh; Intel Mac OS X 10_15_7) AppleWebKit/537.36 (KHTML, like Gecko) Chrome/116.0.0.0 Safari/537.36","Macintosh","Chrome","116.0.0.0","OS X","10_15_7","null","en,es-419;q=0.9,es;q=0.8,fr;q=0.7","true","1385","
  '<p style=""font-size:24px; color:red;"">Incorrecto</p><p> Respondiste alguno de los estímulos de manera incorrecta.</p><p>Por favor, repasá las instrucciones y seguimos desde donde nos quedamos. </p>
  ","0","","","","","","","","","","",""
"","","","","","external-html","37","268236","0.0-15.2-6.2-1.2","23","1","2023-10-21 19:33:33","a725c3012b74bf33a1020a98cb69c237","69.23.117.183","Mozilla/5.0 (Macintosh; Intel Mac OS X 10_15_7) AppleWebKit/537.36 (KHTML, like Gecko) Chrome/116.0.0.0 Safari/537.36","Macintosh","Chrome","116.0.0.0","OS X","10_15_7","null","en,es-419;q=0.9,es;q=0.8,fr;q=0.7","true","3232","","","","instructions/instructions_B.html","","","","","","","","",""
"","","","","","html-keyboard-response","38","271132","0.0-15.3-0.3","23","1","2023-10-21 19:33:33","a725c3012b74bf33a1020a98cb69c237","69.23.117.183","Mozilla/5.0 (Macintosh; Intel Mac OS X 10_15_7) AppleWebKit/537.36 (KHTML, like Gecko) Chrome/116.0.0.0 Safari/537.36","Macintosh","Chrome","116.0.0.0","OS X","10_15_7","null","en,es-419;q=0.9,es;q=0.8,fr;q=0.7","true","null","<div style=""font-size:100px;"">X</div>","null","","","fixation","","","","","","","",""
"","","","","","audio-keyboard-response","39","271436","0.0-15.3-1.3","23","1","2023-10-21 19:33:33","a725c3012b74bf33a1020a98cb69c237","69.23.117.183","Mozilla/5.0 (Macintosh; Intel Mac OS X 10_15_7) AppleWebKit/537.36 (KHTML, like Gecko) Chrome/116.0.0.0 Safari/537.36","Macintosh","Chrome","116.0.0.0","OS X","10_15_7","null","en,es-419;q=0.9,es;q=0.8,fr;q=0.7","true","null","tones/440hz_short.mp3","null","","","tone_number_task","150","57","tones/440hz_short.mp3","300","100","null","null",""
"","","","","","html-keyboard-response","40","271563","0.0-15.3-4.3-0.3","23","1","2023-10-21 19:33:33","a725c3012b74bf33a1020a98cb69c237","69.23.117.183","Mozilla/5.0 (Macintosh; Intel Mac OS X 10_15_7) AppleWebKit/537.36 (KHTML, like Gecko) Chrome/116.0.0.0 Safari/537.36","Macintosh","Chrome","116.0.0.0","OS X","10_15_7","null","en,es-419;q=0.9,es;q=0.8,fr;q=0.7","true","124","tones/440hz_short.mp3","a","","","empty_block","","57","","","","null","null",""
"","","","","","html-keyboard-response","41","271833","0.0-15.3-4.3-1.3","23","1","2023-10-21 19:33:33","a725c3012b74bf33a1020a98cb69c237","69.23.117.183","Mozilla/5.0 (Macintosh; Intel Mac OS X 10_15_7) AppleWebKit/537.36 (KHTML, like Gecko) Chrome/116.0.0.0 Safari/537.36","Macintosh","Chrome","116.0.0.0","OS X","10_15_7","null","en,es-419;q=0.9,es;q=0.8,fr;q=0.7","true","269","tones/440hz_short.mp3","k","","","empty_block","","57","","","","null","null",""
"","","","","","html-keyboard-response","42","274725","0.0-17.0-0.0","23","1","2023-10-21 19:33:33","a725c3012b74bf33a1020a98cb69c237","69.23.117.183","Mozilla/5.0 (Macintosh; Intel Mac OS X 10_15_7) AppleWebKit/537.36 (KHTML, like Gecko) Chrome/116.0.0.0 Safari/537.36","Macintosh","Chrome","116.0.0.0","OS X","10_15_7","null","en,es-419;q=0.9,es;q=0.8,fr;q=0.7","true","null","<div style=""font-size:100px;"">X</div>","null","","","fixation","","","","","","","",""
"","","","","","audio-keyboard-response","43","274935","0.0-17.0-1.0","23","1","2023-10-21 19:33:33","a725c3012b74bf33a1020a98cb69c237","69.23.117.183","Mozilla/5.0 (Macintosh; Intel Mac OS X 10_15_7) AppleWebKit/537.36 (KHTML, like Gecko) Chrome/116.0.0.0 Safari/537.36","Macintosh","Chrome","116.0.0.0","OS X","10_15_7","null","en,es-419;q=0.9,es;q=0.8,fr;q=0.7","true","null","tones/880hz_short.mp3","null","","","tone_number_task","50","64","tones/880hz_short.mp3","200","100","null","null",""
"","","","","","html-keyboard-response","44","275303","0.0-17.0-4.0-0.0","23","1","2023-10-21 19:33:33","a725c3012b74bf33a1020a98cb69c237","69.23.117.183","Mozilla/5.0 (Macintosh; Intel Mac OS X 10_15_7) AppleWebKit/537.36 (KHTML, like Gecko) Chrome/116.0.0.0 Safari/537.36","Macintosh","Chrome","116.0.0.0","OS X","10_15_7","null","en,es-419;q=0.9,es;q=0.8,fr;q=0.7","true","366","tones/880hz_short.mp3","s","","","empty_block","","64","","","","null","null",""
"","","","","","html-keyboard-response","45","275644","0.0-17.0-4.0-1.0","23","1","2023-10-21 19:33:33","a725c3012b74bf33a1020a98cb69c237","69.23.117.183","Mozilla/5.0 (Macintosh; Intel Mac OS X 10_15_7) AppleWebKit/537.36 (KHTML, like Gecko) Chrome/116.0.0.0 Safari/537.36","Macintosh","Chrome","116.0.0.0","OS X","10_15_7","null","en,es-419;q=0.9,es;q=0.8,fr;q=0.7","true","338","tones/880hz_short.mp3","j","","","empty_block","","64","","","","null","null",""
"","","","","","html-button-response","46","277177","0.0-17.0-6.0-0.0","23","1","2023-10-21 19:33:33","a725c3012b74bf33a1020a98cb69c237","69.23.117.183","Mozilla/5.0 (Macintosh; Intel Mac OS X 10_15_7) AppleWebKit/537.36 (KHTML, like Gecko) Chrome/116.0.0.0 Safari/537.36","Macintosh","Chrome","116.0.0.0","OS X","10_15_7","null","en,es-419;q=0.9,es;q=0.8,fr;q=0.7","true","1530","
  '<p style=""font-size:24px; color:red;"">Incorrecto</p><p> Respondiste alguno de los estímulos de manera incorrecta.</p><p>Por favor, repasá las instrucciones y seguimos desde donde nos quedamos. </p>
  ","0","","","","","","","","","","",""
"","","","","","external-html","47","279582","0.0-17.0-6.0-1.0","23","1","2023-10-21 19:33:33","a725c3012b74bf33a1020a98cb69c237","69.23.117.183","Mozilla/5.0 (Macintosh; Intel Mac OS X 10_15_7) AppleWebKit/537.36 (KHTML, like Gecko) Chrome/116.0.0.0 Safari/537.36","Macintosh","Chrome","116.0.0.0","OS X","10_15_7","null","en,es-419;q=0.9,es;q=0.8,fr;q=0.7","true","2185","","","","instructions/instructions_B.html","","","","","","","","",""
"","","","","","html-keyboard-response","48","282478","0.0-17.1-0.1","23","1","2023-10-21 19:33:33","a725c3012b74bf33a1020a98cb69c237","69.23.117.183","Mozilla/5.0 (Macintosh; Intel Mac OS X 10_15_7) AppleWebKit/537.36 (KHTML, like Gecko) Chrome/116.0.0.0 Safari/537.36","Macintosh","Chrome","116.0.0.0","OS X","10_15_7","null","en,es-419;q=0.9,es;q=0.8,fr;q=0.7","true","null","<div style=""font-size:100px;"">X</div>","null","","","fixation","","","","","","","",""
"","","","","","audio-keyboard-response","49","282689","0.0-17.1-1.1","23","1","2023-10-21 19:33:33","a725c3012b74bf33a1020a98cb69c237","69.23.117.183","Mozilla/5.0 (Macintosh; Intel Mac OS X 10_15_7) AppleWebKit/537.36 (KHTML, like Gecko) Chrome/116.0.0.0 Safari/537.36","Macintosh","Chrome","116.0.0.0","OS X","10_15_7","null","en,es-419;q=0.9,es;q=0.8,fr;q=0.7","true","null","tones/880hz_short.mp3","null","","","tone_number_task","50","64","tones/880hz_short.mp3","200","100","null","null",""
"","","","","","html-keyboard-response","50","283371","0.0-17.1-4.1-0.1","23","1","2023-10-21 19:33:33","a725c3012b74bf33a1020a98cb69c237","69.23.117.183","Mozilla/5.0 (Macintosh; Intel Mac OS X 10_15_7) AppleWebKit/537.36 (KHTML, like Gecko) Chrome/116.0.0.0 Safari/537.36","Macintosh","Chrome","116.0.0.0","OS X","10_15_7","null","en,es-419;q=0.9,es;q=0.8,fr;q=0.7","true","680","tones/880hz_short.mp3","s","","","empty_block","","64","","","","null","null",""
"","","","","","html-keyboard-response","51","283743","0.0-17.1-4.1-1.1","23","1","2023-10-21 19:33:33","a725c3012b74bf33a1020a98cb69c237","69.23.117.183","Mozilla/5.0 (Macintosh; Intel Mac OS X 10_15_7) AppleWebKit/537.36 (KHTML, like Gecko) Chrome/116.0.0.0 Safari/537.36","Macintosh","Chrome","116.0.0.0","OS X","10_15_7","null","en,es-419;q=0.9,es;q=0.8,fr;q=0.7","true","370","tones/880hz_short.mp3","k","","","empty_block","","64","","","","null","null",""
"","","","","","html-button-response","52","293064","0.0-19.0","23","1","2023-10-21 19:33:33","a725c3012b74bf33a1020a98cb69c237","69.23.117.183","Mozilla/5.0 (Macintosh; Intel Mac OS X 10_15_7) AppleWebKit/537.36 (KHTML, like Gecko) Chrome/116.0.0.0 Safari/537.36","Macintosh","Chrome","116.0.0.0","OS X","10_15_7","null","en,es-419;q=0.9,es;q=0.8,fr;q=0.7","true","9317","
  <h1> Muy bien </h1>
  <p> Ahora, en vez de ser presentados en dígitos, los números vendrán escritos en palabras. </p>
  <p> Por ejemplo, en vez de 44 te aparecerá ""cuarenta y cuatro"". </p>
  ","0","","","","","","","","","","",""
"","","","","","html-keyboard-response","53","295959","0.0-20.0-0.0","23","1","2023-10-21 19:33:33","a725c3012b74bf33a1020a98cb69c237","69.23.117.183","Mozilla/5.0 (Macintosh; Intel Mac OS X 10_15_7) AppleWebKit/537.36 (KHTML, like Gecko) Chrome/116.0.0.0 Safari/537.36","Macintosh","Chrome","116.0.0.0","OS X","10_15_7","null","en,es-419;q=0.9,es;q=0.8,fr;q=0.7","true","null","<div style=""font-size:100px;"">X</div>","null","","","fixation","","","","","","","",""
"","","","","","audio-keyboard-response","54","296452","0.0-20.0-1.0","23","1","2023-10-21 19:33:33","a725c3012b74bf33a1020a98cb69c237","69.23.117.183","Mozilla/5.0 (Macintosh; Intel Mac OS X 10_15_7) AppleWebKit/537.36 (KHTML, like Gecko) Chrome/116.0.0.0 Safari/537.36","Macintosh","Chrome","116.0.0.0","OS X","10_15_7","null","en,es-419;q=0.9,es;q=0.8,fr;q=0.7","true","491","tones/440hz_short.mp3","a","","","tone_number_task","1000","treinta","tones/440hz_short.mp3","1150","60","null","null",""
"","","","","","html-keyboard-response","55","296966","0.0-20.0-2.0-0.0","23","1","2023-10-21 19:33:33","a725c3012b74bf33a1020a98cb69c237","69.23.117.183","Mozilla/5.0 (Macintosh; Intel Mac OS X 10_15_7) AppleWebKit/537.36 (KHTML, like Gecko) Chrome/116.0.0.0 Safari/537.36","Macintosh","Chrome","116.0.0.0","OS X","10_15_7","null","en,es-419;q=0.9,es;q=0.8,fr;q=0.7","true","null","","null","","","delay_block","","","","","","null","null",""
"","","","","","html-keyboard-response","56","297125","0.0-20.0-2.0-1.0","23","1","2023-10-21 19:33:33","a725c3012b74bf33a1020a98cb69c237","69.23.117.183","Mozilla/5.0 (Macintosh; Intel Mac OS X 10_15_7) AppleWebKit/537.36 (KHTML, like Gecko) Chrome/116.0.0.0 Safari/537.36","Macintosh","Chrome","116.0.0.0","OS X","10_15_7","null","en,es-419;q=0.9,es;q=0.8,fr;q=0.7","true","null","<p id=""stimulus"" style=""font-size:60px;"">treinta</p>","null","","","tone_number_task_remaining_before_delay","","treinta","","659","60","null","null",""
"","","","","","html-keyboard-response","57","297801","0.0-20.0-5.0-0.0","23","1","2023-10-21 19:33:33","a725c3012b74bf33a1020a98cb69c237","69.23.117.183","Mozilla/5.0 (Macintosh; Intel Mac OS X 10_15_7) AppleWebKit/537.36 (KHTML, like Gecko) Chrome/116.0.0.0 Safari/537.36","Macintosh","Chrome","116.0.0.0","OS X","10_15_7","null","en,es-419;q=0.9,es;q=0.8,fr;q=0.7","true","673","<p id=""stimulus"" style=""font-size:60px;"">treinta</p>","j","","","empty_block","","treinta","","","","null","null",""
"","","","","","html-button-response","58","300178","0.0-22.0","23","1","2023-10-21 19:33:33","a725c3012b74bf33a1020a98cb69c237","69.23.117.183","Mozilla/5.0 (Macintosh; Intel Mac OS X 10_15_7) AppleWebKit/537.36 (KHTML, like Gecko) Chrome/116.0.0.0 Safari/537.36","Macintosh","Chrome","116.0.0.0","OS X","10_15_7","null","en,es-419;q=0.9,es;q=0.8,fr;q=0.7","true","2374","
  <h1> Fin del Entrenamiento </h1>
  <p> ¡Felicitaciones, terminaste el entrenamiento! Ahora vamos a comenzar con el experimento. </p>
  <p> Es importante tener en cuenta que consta de cuatro bloques.</p>
  <p> Podés aprovechar los momentos entre bloques para tomar un breve descanso o tomar agua entre cada uno</p>
  <p> Recordá que tenés que responder lo más rápido que puedas, pero sin equivocarte. </p>
  ","0","","","","","","","","","","",""
"","","","","","external-html","59","305299","0.0-23.0","23","1","2023-10-21 19:33:33","a725c3012b74bf33a1020a98cb69c237","69.23.117.183","Mozilla/5.0 (Macintosh; Intel Mac OS X 10_15_7) AppleWebKit/537.36 (KHTML, like Gecko) Chrome/116.0.0.0 Safari/537.36","Macintosh","Chrome","116.0.0.0","OS X","10_15_7","null","en,es-419;q=0.9,es;q=0.8,fr;q=0.7","true","3958","","","","instructions/instructions_digits_first.html","","","","","","","","",""
"","","","","","call-function","60","305306","0.0-24.0","23","1","2023-10-21 19:33:33","a725c3012b74bf33a1020a98cb69c237","69.23.117.183","Mozilla/5.0 (Macintosh; Intel Mac OS X 10_15_7) AppleWebKit/537.36 (KHTML, like Gecko) Chrome/116.0.0.0 Safari/537.36","Macintosh","Chrome","116.0.0.0","OS X","10_15_7","null","en,es-419;q=0.9,es;q=0.8,fr;q=0.7","true","","","","","","","","","","","","","",""
"","","","","","html-keyboard-response","61","308199","0.0-25.0","23","1","2023-10-21 19:33:33","a725c3012b74bf33a1020a98cb69c237","69.23.117.183","Mozilla/5.0 (Macintosh; Intel Mac OS X 10_15_7) AppleWebKit/537.36 (KHTML, like Gecko) Chrome/116.0.0.0 Safari/537.36","Macintosh","Chrome","116.0.0.0","OS X","10_15_7","null","en,es-419;q=0.9,es;q=0.8,fr;q=0.7","true","null","<div style=""font-size:100px;"">X</div>","null","","","fixation","","","","","","","",""
"","","","","","audio-keyboard-response","62","308768","0.0-26.0","23","1","2023-10-21 19:33:33","a725c3012b74bf33a1020a98cb69c237","69.23.117.183","Mozilla/5.0 (Macintosh; Intel Mac OS X 10_15_7) AppleWebKit/537.36 (KHTML, like Gecko) Chrome/116.0.0.0 Safari/537.36","Macintosh","Chrome","116.0.0.0","OS X","10_15_7","null","en,es-419;q=0.9,es;q=0.8,fr;q=0.7","true","565","tones/440hz_short.mp3","a","","","tone_number_task","1025","28","tones/440hz_short.mp3","1175","100","0","0",""
"","","","","","html-keyboard-response","63","309239","0.0-27.0-0.0","23","1","2023-10-21 19:33:33","a725c3012b74bf33a1020a98cb69c237","69.23.117.183","Mozilla/5.0 (Macintosh; Intel Mac OS X 10_15_7) AppleWebKit/537.36 (KHTML, like Gecko) Chrome/116.0.0.0 Safari/537.36","Macintosh","Chrome","116.0.0.0","OS X","10_15_7","null","en,es-419;q=0.9,es;q=0.8,fr;q=0.7","true","null","","null","","","delay_block","","","","","","0","0",""
"","","","","","html-keyboard-response","64","309399","0.0-27.0-1.0","23","1","2023-10-21 19:33:33","a725c3012b74bf33a1020a98cb69c237","69.23.117.183","Mozilla/5.0 (Macintosh; Intel Mac OS X 10_15_7) AppleWebKit/537.36 (KHTML, like Gecko) Chrome/116.0.0.0 Safari/537.36","Macintosh","Chrome","116.0.0.0","OS X","10_15_7","null","en,es-419;q=0.9,es;q=0.8,fr;q=0.7","true","null","<p id=""stimulus"" style=""font-size:100px;"">28</p>","null","","","tone_number_task_remaining_before_delay","","28","","610","100","0","0",""
"","","","","","html-keyboard-response","65","309721","0.0-30.0-0.0","23","1","2023-10-21 19:33:33","a725c3012b74bf33a1020a98cb69c237","69.23.117.183","Mozilla/5.0 (Macintosh; Intel Mac OS X 10_15_7) AppleWebKit/537.36 (KHTML, like Gecko) Chrome/116.0.0.0 Safari/537.36","Macintosh","Chrome","116.0.0.0","OS X","10_15_7","null","en,es-419;q=0.9,es;q=0.8,fr;q=0.7","true","319","<p id=""stimulus"" style=""font-size:100px;"">28</p>","j","","","empty_block","","28","","","","0","0",""
"","","","","","html-keyboard-response","66","312616","0.0-31.0","23","1","2023-10-21 19:33:33","a725c3012b74bf33a1020a98cb69c237","69.23.117.183","Mozilla/5.0 (Macintosh; Intel Mac OS X 10_15_7) AppleWebKit/537.36 (KHTML, like Gecko) Chrome/116.0.0.0 Safari/537.36","Macintosh","Chrome","116.0.0.0","OS X","10_15_7","null","en,es-419;q=0.9,es;q=0.8,fr;q=0.7","true","null","<div style=""font-size:100px;"">X</div>","null","","","fixation","","","","","","","",""
"","","","","","audio-keyboard-response","67","312871","0.0-32.0","23","1","2023-10-21 19:33:33","a725c3012b74bf33a1020a98cb69c237","69.23.117.183","Mozilla/5.0 (Macintosh; Intel Mac OS X 10_15_7) AppleWebKit/537.36 (KHTML, like Gecko) Chrome/116.0.0.0 Safari/537.36","Macintosh","Chrome","116.0.0.0","OS X","10_15_7","null","en,es-419;q=0.9,es;q=0.8,fr;q=0.7","true","null","tones/440hz_short.mp3","null","","","tone_number_task","102.5","46","tones/440hz_short.mp3","252.5","100","0","1",""
"","","","","","html-keyboard-response","68","313168","0.0-35.0-0.0","23","1","2023-10-21 19:33:33","a725c3012b74bf33a1020a98cb69c237","69.23.117.183","Mozilla/5.0 (Macintosh; Intel Mac OS X 10_15_7) AppleWebKit/537.36 (KHTML, like Gecko) Chrome/116.0.0.0 Safari/537.36","Macintosh","Chrome","116.0.0.0","OS X","10_15_7","null","en,es-419;q=0.9,es;q=0.8,fr;q=0.7","true","293","tones/440hz_short.mp3","a","","","empty_block","","46","","","","0","1",""
"","","","","","html-keyboard-response","69","313549","0.0-35.0-1.0","23","1","2023-10-21 19:33:33","a725c3012b74bf33a1020a98cb69c237","69.23.117.183","Mozilla/5.0 (Macintosh; Intel Mac OS X 10_15_7) AppleWebKit/537.36 (KHTML, like Gecko) Chrome/116.0.0.0 Safari/537.36","Macintosh","Chrome","116.0.0.0","OS X","10_15_7","null","en,es-419;q=0.9,es;q=0.8,fr;q=0.7","true","378","tones/440hz_short.mp3","k","","","empty_block","","46","","","","0","1",""
"","","","","","html-keyboard-response","70","316439","0.0-37.0","23","1","2023-10-21 19:33:33","a725c3012b74bf33a1020a98cb69c237","69.23.117.183","Mozilla/5.0 (Macintosh; Intel Mac OS X 10_15_7) AppleWebKit/537.36 (KHTML, like Gecko) Chrome/116.0.0.0 Safari/537.36","Macintosh","Chrome","116.0.0.0","OS X","10_15_7","null","en,es-419;q=0.9,es;q=0.8,fr;q=0.7","true","null","<div style=""font-size:100px;"">X</div>","null","","","fixation","","","","","","","",""
"","","","","","audio-keyboard-response","71","316962","0.0-38.0","23","1","2023-10-21 19:33:33","a725c3012b74bf33a1020a98cb69c237","69.23.117.183","Mozilla/5.0 (Macintosh; Intel Mac OS X 10_15_7) AppleWebKit/537.36 (KHTML, like Gecko) Chrome/116.0.0.0 Safari/537.36","Macintosh","Chrome","116.0.0.0","OS X","10_15_7","null","en,es-419;q=0.9,es;q=0.8,fr;q=0.7","true","523","tones/880hz_short.mp3","s","","","tone_number_task","992.5","57","tones/880hz_short.mp3","1142.5","100","0","2",""
"","","","","","html-keyboard-response","72","317442","0.0-39.0-0.0","23","1","2023-10-21 19:33:33","a725c3012b74bf33a1020a98cb69c237","69.23.117.183","Mozilla/5.0 (Macintosh; Intel Mac OS X 10_15_7) AppleWebKit/537.36 (KHTML, like Gecko) Chrome/116.0.0.0 Safari/537.36","Macintosh","Chrome","116.0.0.0","OS X","10_15_7","null","en,es-419;q=0.9,es;q=0.8,fr;q=0.7","true","null","","null","","","delay_block","","","","","","0","2",""
"","","","","","html-keyboard-response","73","317602","0.0-39.0-1.0","23","1","2023-10-21 19:33:33","a725c3012b74bf33a1020a98cb69c237","69.23.117.183","Mozilla/5.0 (Macintosh; Intel Mac OS X 10_15_7) AppleWebKit/537.36 (KHTML, like Gecko) Chrome/116.0.0.0 Safari/537.36","Macintosh","Chrome","116.0.0.0","OS X","10_15_7","null","en,es-419;q=0.9,es;q=0.8,fr;q=0.7","true","null","<p id=""stimulus"" style=""font-size:100px;"">57</p>","null","","","tone_number_task_remaining_before_delay","","57","","619.5","100","0","2",""
"","","","","","html-keyboard-response","74","318101","0.0-42.0-0.0","23","1","2023-10-21 19:33:33","a725c3012b74bf33a1020a98cb69c237","69.23.117.183","Mozilla/5.0 (Macintosh; Intel Mac OS X 10_15_7) AppleWebKit/537.36 (KHTML, like Gecko) Chrome/116.0.0.0 Safari/537.36","Macintosh","Chrome","116.0.0.0","OS X","10_15_7","null","en,es-419;q=0.9,es;q=0.8,fr;q=0.7","true","496","<p id=""stimulus"" style=""font-size:100px;"">57</p>","k","","","empty_block","","57","","","","0","2",""
"","","","","","html-keyboard-response","75","320990","0.0-43.0","23","1","2023-10-21 19:33:33","a725c3012b74bf33a1020a98cb69c237","69.23.117.183","Mozilla/5.0 (Macintosh; Intel Mac OS X 10_15_7) AppleWebKit/537.36 (KHTML, like Gecko) Chrome/116.0.0.0 Safari/537.36","Macintosh","Chrome","116.0.0.0","OS X","10_15_7","null","en,es-419;q=0.9,es;q=0.8,fr;q=0.7","true","null","<div style=""font-size:100px;"">X</div>","null","","","fixation","","","","","","","",""
"","","","","","audio-keyboard-response","76","321552","0.0-44.0","23","1","2023-10-21 19:33:33","a725c3012b74bf33a1020a98cb69c237","69.23.117.183","Mozilla/5.0 (Macintosh; Intel Mac OS X 10_15_7) AppleWebKit/537.36 (KHTML, like Gecko) Chrome/116.0.0.0 Safari/537.36","Macintosh","Chrome","116.0.0.0","OS X","10_15_7","null","en,es-419;q=0.9,es;q=0.8,fr;q=0.7","true","560","tones/440hz_short.mp3","a","","","tone_number_task","1025","37","tones/440hz_short.mp3","1175","100","0","3",""
"","","","","","html-keyboard-response","77","322024","0.0-45.0-0.0","23","1","2023-10-21 19:33:33","a725c3012b74bf33a1020a98cb69c237","69.23.117.183","Mozilla/5.0 (Macintosh; Intel Mac OS X 10_15_7) AppleWebKit/537.36 (KHTML, like Gecko) Chrome/116.0.0.0 Safari/537.36","Macintosh","Chrome","116.0.0.0","OS X","10_15_7","null","en,es-419;q=0.9,es;q=0.8,fr;q=0.7","true","null","","null","","","delay_block","","","","","","0","3",""
"","","","","","html-keyboard-response","78","322184","0.0-45.0-1.0","23","1","2023-10-21 19:33:33","a725c3012b74bf33a1020a98cb69c237","69.23.117.183","Mozilla/5.0 (Macintosh; Intel Mac OS X 10_15_7) AppleWebKit/537.36 (KHTML, like Gecko) Chrome/116.0.0.0 Safari/537.36","Macintosh","Chrome","116.0.0.0","OS X","10_15_7","null","en,es-419;q=0.9,es;q=0.8,fr;q=0.7","true","null","<p id=""stimulus"" style=""font-size:100px;"">37</p>","null","","","tone_number_task_remaining_before_delay","","37","","615","100","0","3",""
"","","","","","html-keyboard-response","79","322590","0.0-48.0-0.0","23","1","2023-10-21 19:33:33","a725c3012b74bf33a1020a98cb69c237","69.23.117.183","Mozilla/5.0 (Macintosh; Intel Mac OS X 10_15_7) AppleWebKit/537.36 (KHTML, like Gecko) Chrome/116.0.0.0 Safari/537.36","Macintosh","Chrome","116.0.0.0","OS X","10_15_7","null","en,es-419;q=0.9,es;q=0.8,fr;q=0.7","true","402","<p id=""stimulus"" style=""font-size:100px;"">37</p>","j","","","empty_block","","37","","","","0","3",""
"","","","","","html-keyboard-response","80","325481","0.0-49.0","23","1","2023-10-21 19:33:33","a725c3012b74bf33a1020a98cb69c237","69.23.117.183","Mozilla/5.0 (Macintosh; Intel Mac OS X 10_15_7) AppleWebKit/537.36 (KHTML, like Gecko) Chrome/116.0.0.0 Safari/537.36","Macintosh","Chrome","116.0.0.0","OS X","10_15_7","null","en,es-419;q=0.9,es;q=0.8,fr;q=0.7","true","null","<div style=""font-size:100px;"">X</div>","null","","","fixation","","","","","","","",""
"","","","","","audio-keyboard-response","81","325639","0.0-50.0","23","1","2023-10-21 19:33:33","a725c3012b74bf33a1020a98cb69c237","69.23.117.183","Mozilla/5.0 (Macintosh; Intel Mac OS X 10_15_7) AppleWebKit/537.36 (KHTML, like Gecko) Chrome/116.0.0.0 Safari/537.36","Macintosh","Chrome","116.0.0.0","OS X","10_15_7","null","en,es-419;q=0.9,es;q=0.8,fr;q=0.7","true","null","tones/880hz_short.mp3","null","","","tone_number_task","0","54","tones/880hz_short.mp3","150","100","0","4",""
"","","","","","html-keyboard-response","82","326142","0.0-53.0-0.0","23","1","2023-10-21 19:33:33","a725c3012b74bf33a1020a98cb69c237","69.23.117.183","Mozilla/5.0 (Macintosh; Intel Mac OS X 10_15_7) AppleWebKit/537.36 (KHTML, like Gecko) Chrome/116.0.0.0 Safari/537.36","Macintosh","Chrome","116.0.0.0","OS X","10_15_7","null","en,es-419;q=0.9,es;q=0.8,fr;q=0.7","true","499","tones/880hz_short.mp3","s","","","empty_block","","54","","","","0","4",""
"","","","","","html-keyboard-response","83","326617","0.0-53.0-1.0","23","1","2023-10-21 19:33:33","a725c3012b74bf33a1020a98cb69c237","69.23.117.183","Mozilla/5.0 (Macintosh; Intel Mac OS X 10_15_7) AppleWebKit/537.36 (KHTML, like Gecko) Chrome/116.0.0.0 Safari/537.36","Macintosh","Chrome","116.0.0.0","OS X","10_15_7","null","en,es-419;q=0.9,es;q=0.8,fr;q=0.7","true","472","tones/880hz_short.mp3","k","","","empty_block","","54","","","","0","4",""
"","","","","","html-keyboard-response","84","329512","0.0-55.0","23","1","2023-10-21 19:33:33","a725c3012b74bf33a1020a98cb69c237","69.23.117.183","Mozilla/5.0 (Macintosh; Intel Mac OS X 10_15_7) AppleWebKit/537.36 (KHTML, like Gecko) Chrome/116.0.0.0 Safari/537.36","Macintosh","Chrome","116.0.0.0","OS X","10_15_7","null","en,es-419;q=0.9,es;q=0.8,fr;q=0.7","true","null","<div style=""font-size:100px;"">X</div>","null","","","fixation","","","","","","","",""
"","","","","","audio-keyboard-response","85","329672","0.0-56.0","23","1","2023-10-21 19:33:33","a725c3012b74bf33a1020a98cb69c237","69.23.117.183","Mozilla/5.0 (Macintosh; Intel Mac OS X 10_15_7) AppleWebKit/537.36 (KHTML, like Gecko) Chrome/116.0.0.0 Safari/537.36","Macintosh","Chrome","116.0.0.0","OS X","10_15_7","null","en,es-419;q=0.9,es;q=0.8,fr;q=0.7","true","null","tones/440hz_short.mp3","null","","","tone_number_task","0","33","tones/440hz_short.mp3","150","100","0","5",""
"","","","","","html-keyboard-response","86","329881","0.0-59.0-0.0","23","1","2023-10-21 19:33:33","a725c3012b74bf33a1020a98cb69c237","69.23.117.183","Mozilla/5.0 (Macintosh; Intel Mac OS X 10_15_7) AppleWebKit/537.36 (KHTML, like Gecko) Chrome/116.0.0.0 Safari/537.36","Macintosh","Chrome","116.0.0.0","OS X","10_15_7","null","en,es-419;q=0.9,es;q=0.8,fr;q=0.7","true","206","tones/440hz_short.mp3","a","","","empty_block","","33","","","","0","5",""
"","","","","","html-keyboard-response","87","330128","0.0-59.0-1.0","23","1","2023-10-21 19:33:33","a725c3012b74bf33a1020a98cb69c237","69.23.117.183","Mozilla/5.0 (Macintosh; Intel Mac OS X 10_15_7) AppleWebKit/537.36 (KHTML, like Gecko) Chrome/116.0.0.0 Safari/537.36","Macintosh","Chrome","116.0.0.0","OS X","10_15_7","null","en,es-419;q=0.9,es;q=0.8,fr;q=0.7","true","243","tones/440hz_short.mp3","j","","","empty_block","","33","","","","0","5",""
"","","","","","html-keyboard-response","88","333026","0.0-61.0","23","1","2023-10-21 19:33:33","a725c3012b74bf33a1020a98cb69c237","69.23.117.183","Mozilla/5.0 (Macintosh; Intel Mac OS X 10_15_7) AppleWebKit/537.36 (KHTML, like Gecko) Chrome/116.0.0.0 Safari/537.36","Macintosh","Chrome","116.0.0.0","OS X","10_15_7","null","en,es-419;q=0.9,es;q=0.8,fr;q=0.7","true","null","<div style=""font-size:100px;"">X</div>","null","","","fixation","","","","","","","",""
"","","","","","audio-keyboard-response","89","333184","0.0-62.0","23","1","2023-10-21 19:33:33","a725c3012b74bf33a1020a98cb69c237","69.23.117.183","Mozilla/5.0 (Macintosh; Intel Mac OS X 10_15_7) AppleWebKit/537.36 (KHTML, like Gecko) Chrome/116.0.0.0 Safari/537.36","Macintosh","Chrome","116.0.0.0","OS X","10_15_7","null","en,es-419;q=0.9,es;q=0.8,fr;q=0.7","true","null","tones/440hz_short.mp3","null","","","tone_number_task","0","47","tones/440hz_short.mp3","150","100","0","6",""
"","","","","","html-keyboard-response","90","334238","0.0-65.0-0.0","23","1","2023-10-21 19:33:33","a725c3012b74bf33a1020a98cb69c237","69.23.117.183","Mozilla/5.0 (Macintosh; Intel Mac OS X 10_15_7) AppleWebKit/537.36 (KHTML, like Gecko) Chrome/116.0.0.0 Safari/537.36","Macintosh","Chrome","116.0.0.0","OS X","10_15_7","null","en,es-419;q=0.9,es;q=0.8,fr;q=0.7","true","1050","tones/440hz_short.mp3","a","","","empty_block","","47","","","","0","6",""
"","","","","","html-keyboard-response","91","334457","0.0-65.0-1.0","23","1","2023-10-21 19:33:33","a725c3012b74bf33a1020a98cb69c237","69.23.117.183","Mozilla/5.0 (Macintosh; Intel Mac OS X 10_15_7) AppleWebKit/537.36 (KHTML, like Gecko) Chrome/116.0.0.0 Safari/537.36","Macintosh","Chrome","116.0.0.0","OS X","10_15_7","null","en,es-419;q=0.9,es;q=0.8,fr;q=0.7","true","216","tones/440hz_short.mp3","k","","","empty_block","","47","","","","0","6",""
"","","","","","html-keyboard-response","92","337352","0.0-67.0","23","1","2023-10-21 19:33:33","a725c3012b74bf33a1020a98cb69c237","69.23.117.183","Mozilla/5.0 (Macintosh; Intel Mac OS X 10_15_7) AppleWebKit/537.36 (KHTML, like Gecko) Chrome/116.0.0.0 Safari/537.36","Macintosh","Chrome","116.0.0.0","OS X","10_15_7","null","en,es-419;q=0.9,es;q=0.8,fr;q=0.7","true","null","<div style=""font-size:100px;"">X</div>","null","","","fixation","","","","","","","",""
"","","","","","audio-keyboard-response","93","337515","0.0-68.0","23","1","2023-10-21 19:33:33","a725c3012b74bf33a1020a98cb69c237","69.23.117.183","Mozilla/5.0 (Macintosh; Intel Mac OS X 10_15_7) AppleWebKit/537.36 (KHTML, like Gecko) Chrome/116.0.0.0 Safari/537.36","Macintosh","Chrome","116.0.0.0","OS X","10_15_7","null","en,es-419;q=0.9,es;q=0.8,fr;q=0.7","true","null","tones/440hz_short.mp3","null","","","tone_number_task","0","25","tones/440hz_short.mp3","150","100","0","7",""
"","","","","","html-keyboard-response","94","337832","0.0-71.0-0.0","23","1","2023-10-21 19:33:33","a725c3012b74bf33a1020a98cb69c237","69.23.117.183","Mozilla/5.0 (Macintosh; Intel Mac OS X 10_15_7) AppleWebKit/537.36 (KHTML, like Gecko) Chrome/116.0.0.0 Safari/537.36","Macintosh","Chrome","116.0.0.0","OS X","10_15_7","null","en,es-419;q=0.9,es;q=0.8,fr;q=0.7","true","313","tones/440hz_short.mp3","a","","","empty_block","","25","","","","0","7",""
"","","","","","html-keyboard-response","95","338073","0.0-71.0-1.0","23","1","2023-10-21 19:33:33","a725c3012b74bf33a1020a98cb69c237","69.23.117.183","Mozilla/5.0 (Macintosh; Intel Mac OS X 10_15_7) AppleWebKit/537.36 (KHTML, like Gecko) Chrome/116.0.0.0 Safari/537.36","Macintosh","Chrome","116.0.0.0","OS X","10_15_7","null","en,es-419;q=0.9,es;q=0.8,fr;q=0.7","true","238","tones/440hz_short.mp3","j","","","empty_block","","25","","","","0","7",""
"","","","","","html-keyboard-response","96","340969","0.0-73.0","23","1","2023-10-21 19:33:33","a725c3012b74bf33a1020a98cb69c237","69.23.117.183","Mozilla/5.0 (Macintosh; Intel Mac OS X 10_15_7) AppleWebKit/537.36 (KHTML, like Gecko) Chrome/116.0.0.0 Safari/537.36","Macintosh","Chrome","116.0.0.0","OS X","10_15_7","null","en,es-419;q=0.9,es;q=0.8,fr;q=0.7","true","null","<div style=""font-size:100px;"">X</div>","null","","","fixation","","","","","","","",""
"","","","","","audio-keyboard-response","97","341667","0.0-74.0","23","1","2023-10-21 19:33:33","a725c3012b74bf33a1020a98cb69c237","69.23.117.183","Mozilla/5.0 (Macintosh; Intel Mac OS X 10_15_7) AppleWebKit/537.36 (KHTML, like Gecko) Chrome/116.0.0.0 Safari/537.36","Macintosh","Chrome","116.0.0.0","OS X","10_15_7","null","en,es-419;q=0.9,es;q=0.8,fr;q=0.7","true","699","tones/880hz_short.mp3","s","","","tone_number_task","1025","58","tones/880hz_short.mp3","1175","100","0","8",""
"","","","","","html-keyboard-response","98","342001","0.0-75.0-0.0","23","1","2023-10-21 19:33:33","a725c3012b74bf33a1020a98cb69c237","69.23.117.183","Mozilla/5.0 (Macintosh; Intel Mac OS X 10_15_7) AppleWebKit/537.36 (KHTML, like Gecko) Chrome/116.0.0.0 Safari/537.36","Macintosh","Chrome","116.0.0.0","OS X","10_15_7","null","en,es-419;q=0.9,es;q=0.8,fr;q=0.7","true","null","","null","","","delay_block","","","","","","0","8",""
"","","","","","html-keyboard-response","99","342164","0.0-75.0-1.0","23","1","2023-10-21 19:33:33","a725c3012b74bf33a1020a98cb69c237","69.23.117.183","Mozilla/5.0 (Macintosh; Intel Mac OS X 10_15_7) AppleWebKit/537.36 (KHTML, like Gecko) Chrome/116.0.0.0 Safari/537.36","Macintosh","Chrome","116.0.0.0","OS X","10_15_7","null","en,es-419;q=0.9,es;q=0.8,fr;q=0.7","true","null","<p id=""stimulus"" style=""font-size:100px;"">58</p>","null","","","tone_number_task_remaining_before_delay","","58","","476","100","0","8",""
"","","","","","html-keyboard-response","100","342588","0.0-78.0-0.0","23","1","2023-10-21 19:33:33","a725c3012b74bf33a1020a98cb69c237","69.23.117.183","Mozilla/5.0 (Macintosh; Intel Mac OS X 10_15_7) AppleWebKit/537.36 (KHTML, like Gecko) Chrome/116.0.0.0 Safari/537.36","Macintosh","Chrome","116.0.0.0","OS X","10_15_7","null","en,es-419;q=0.9,es;q=0.8,fr;q=0.7","true","420","<p id=""stimulus"" style=""font-size:100px;"">58</p>","k","","","empty_block","","58","","","","0","8",""
"","","","","","html-keyboard-response","101","345483","0.0-79.0","23","1","2023-10-21 19:33:33","a725c3012b74bf33a1020a98cb69c237","69.23.117.183","Mozilla/5.0 (Macintosh; Intel Mac OS X 10_15_7) AppleWebKit/537.36 (KHTML, like Gecko) Chrome/116.0.0.0 Safari/537.36","Macintosh","Chrome","116.0.0.0","OS X","10_15_7","null","en,es-419;q=0.9,es;q=0.8,fr;q=0.7","true","null","<div style=""font-size:100px;"">X</div>","null","","","fixation","","","","","","","",""
"","","","","","audio-keyboard-response","102","345741","0.0-80.0","23","1","2023-10-21 19:33:33","a725c3012b74bf33a1020a98cb69c237","69.23.117.183","Mozilla/5.0 (Macintosh; Intel Mac OS X 10_15_7) AppleWebKit/537.36 (KHTML, like Gecko) Chrome/116.0.0.0 Safari/537.36","Macintosh","Chrome","116.0.0.0","OS X","10_15_7","null","en,es-419;q=0.9,es;q=0.8,fr;q=0.7","true","null","tones/440hz_short.mp3","null","","","tone_number_task","102.5","62","tones/440hz_short.mp3","252.5","100","0","9",""
"","","","","","html-keyboard-response","103","345946","0.0-83.0-0.0","23","1","2023-10-21 19:33:33","a725c3012b74bf33a1020a98cb69c237","69.23.117.183","Mozilla/5.0 (Macintosh; Intel Mac OS X 10_15_7) AppleWebKit/537.36 (KHTML, like Gecko) Chrome/116.0.0.0 Safari/537.36","Macintosh","Chrome","116.0.0.0","OS X","10_15_7","null","en,es-419;q=0.9,es;q=0.8,fr;q=0.7","true","201","tones/440hz_short.mp3","a","","","empty_block","","62","","","","0","9",""
"","","","","","html-keyboard-response","104","346259","0.0-83.0-1.0","23","1","2023-10-21 19:33:33","a725c3012b74bf33a1020a98cb69c237","69.23.117.183","Mozilla/5.0 (Macintosh; Intel Mac OS X 10_15_7) AppleWebKit/537.36 (KHTML, like Gecko) Chrome/116.0.0.0 Safari/537.36","Macintosh","Chrome","116.0.0.0","OS X","10_15_7","null","en,es-419;q=0.9,es;q=0.8,fr;q=0.7","true","309","tones/440hz_short.mp3","k","","","empty_block","","62","","","","0","9",""
"","","","","","html-keyboard-response","105","349155","0.0-85.0","23","1","2023-10-21 19:33:33","a725c3012b74bf33a1020a98cb69c237","69.23.117.183","Mozilla/5.0 (Macintosh; Intel Mac OS X 10_15_7) AppleWebKit/537.36 (KHTML, like Gecko) Chrome/116.0.0.0 Safari/537.36","Macintosh","Chrome","116.0.0.0","OS X","10_15_7","null","en,es-419;q=0.9,es;q=0.8,fr;q=0.7","true","null","<div style=""font-size:100px;"">X</div>","null","","","fixation","","","","","","","",""
"","","","","","audio-keyboard-response","106","349840","0.0-86.0","23","1","2023-10-21 19:33:33","a725c3012b74bf33a1020a98cb69c237","69.23.117.183","Mozilla/5.0 (Macintosh; Intel Mac OS X 10_15_7) AppleWebKit/537.36 (KHTML, like Gecko) Chrome/116.0.0.0 Safari/537.36","Macintosh","Chrome","116.0.0.0","OS X","10_15_7","null","en,es-419;q=0.9,es;q=0.8,fr;q=0.7","true","683","tones/880hz_short.mp3","a","","","tone_number_task","992.5","26","tones/880hz_short.mp3","1142.5","100","0","10",""
"","","","","","html-keyboard-response","107","350163","0.0-87.0-0.0","23","1","2023-10-21 19:33:33","a725c3012b74bf33a1020a98cb69c237","69.23.117.183","Mozilla/5.0 (Macintosh; Intel Mac OS X 10_15_7) AppleWebKit/537.36 (KHTML, like Gecko) Chrome/116.0.0.0 Safari/537.36","Macintosh","Chrome","116.0.0.0","OS X","10_15_7","null","en,es-419;q=0.9,es;q=0.8,fr;q=0.7","true","null","","null","","","delay_block","","","","","","0","10",""
"","","","","","html-keyboard-response","108","350323","0.0-87.0-1.0","23","1","2023-10-21 19:33:33","a725c3012b74bf33a1020a98cb69c237","69.23.117.183","Mozilla/5.0 (Macintosh; Intel Mac OS X 10_15_7) AppleWebKit/537.36 (KHTML, like Gecko) Chrome/116.0.0.0 Safari/537.36","Macintosh","Chrome","116.0.0.0","OS X","10_15_7","null","en,es-419;q=0.9,es;q=0.8,fr;q=0.7","true","null","<p id=""stimulus"" style=""font-size:100px;"">26</p>","null","","","tone_number_task_remaining_before_delay","","26","","459.5","100","0","10",""
"","","","","","html-keyboard-response","109","350910","0.0-90.0-0.0","23","1","2023-10-21 19:33:33","a725c3012b74bf33a1020a98cb69c237","69.23.117.183","Mozilla/5.0 (Macintosh; Intel Mac OS X 10_15_7) AppleWebKit/537.36 (KHTML, like Gecko) Chrome/116.0.0.0 Safari/537.36","Macintosh","Chrome","116.0.0.0","OS X","10_15_7","null","en,es-419;q=0.9,es;q=0.8,fr;q=0.7","true","583","<p id=""stimulus"" style=""font-size:100px;"">26</p>","j","","","empty_block","","26","","","","0","10",""
"","","","","","html-keyboard-response","110","353801","0.0-91.0","23","1","2023-10-21 19:33:33","a725c3012b74bf33a1020a98cb69c237","69.23.117.183","Mozilla/5.0 (Macintosh; Intel Mac OS X 10_15_7) AppleWebKit/537.36 (KHTML, like Gecko) Chrome/116.0.0.0 Safari/537.36","Macintosh","Chrome","116.0.0.0","OS X","10_15_7","null","en,es-419;q=0.9,es;q=0.8,fr;q=0.7","true","null","<div style=""font-size:100px;"">X</div>","null","","","fixation","","","","","","","",""
"","","","","","audio-keyboard-response","111","354411","0.0-92.0","23","1","2023-10-21 19:33:33","a725c3012b74bf33a1020a98cb69c237","69.23.117.183","Mozilla/5.0 (Macintosh; Intel Mac OS X 10_15_7) AppleWebKit/537.36 (KHTML, like Gecko) Chrome/116.0.0.0 Safari/537.36","Macintosh","Chrome","116.0.0.0","OS X","10_15_7","null","en,es-419;q=0.9,es;q=0.8,fr;q=0.7","true","603","tones/440hz_short.mp3","a","","","tone_number_task","992.5","28","tones/440hz_short.mp3","1142.5","100","0","11",""
"","","","","","html-keyboard-response","112","354808","0.0-93.0-0.0","23","1","2023-10-21 19:33:33","a725c3012b74bf33a1020a98cb69c237","69.23.117.183","Mozilla/5.0 (Macintosh; Intel Mac OS X 10_15_7) AppleWebKit/537.36 (KHTML, like Gecko) Chrome/116.0.0.0 Safari/537.36","Macintosh","Chrome","116.0.0.0","OS X","10_15_7","null","en,es-419;q=0.9,es;q=0.8,fr;q=0.7","true","null","","null","","","delay_block","","","","","","0","11",""
"","","","","","html-keyboard-response","113","354972","0.0-93.0-1.0","23","1","2023-10-21 19:33:33","a725c3012b74bf33a1020a98cb69c237","69.23.117.183","Mozilla/5.0 (Macintosh; Intel Mac OS X 10_15_7) AppleWebKit/537.36 (KHTML, like Gecko) Chrome/116.0.0.0 Safari/537.36","Macintosh","Chrome","116.0.0.0","OS X","10_15_7","null","en,es-419;q=0.9,es;q=0.8,fr;q=0.7","true","null","<p id=""stimulus"" style=""font-size:100px;"">28</p>","null","","","tone_number_task_remaining_before_delay","","28","","539.5","100","0","11",""
"","","","","","html-keyboard-response","114","355396","0.0-96.0-0.0","23","1","2023-10-21 19:33:33","a725c3012b74bf33a1020a98cb69c237","69.23.117.183","Mozilla/5.0 (Macintosh; Intel Mac OS X 10_15_7) AppleWebKit/537.36 (KHTML, like Gecko) Chrome/116.0.0.0 Safari/537.36","Macintosh","Chrome","116.0.0.0","OS X","10_15_7","null","en,es-419;q=0.9,es;q=0.8,fr;q=0.7","true","420","<p id=""stimulus"" style=""font-size:100px;"">28</p>","j","","","empty_block","","28","","","","0","11",""
"","","","","","html-keyboard-response","115","358291","0.0-97.0","23","1","2023-10-21 19:33:33","a725c3012b74bf33a1020a98cb69c237","69.23.117.183","Mozilla/5.0 (Macintosh; Intel Mac OS X 10_15_7) AppleWebKit/537.36 (KHTML, like Gecko) Chrome/116.0.0.0 Safari/537.36","Macintosh","Chrome","116.0.0.0","OS X","10_15_7","null","en,es-419;q=0.9,es;q=0.8,fr;q=0.7","true","null","<div style=""font-size:100px;"">X</div>","null","","","fixation","","","","","","","",""
"","","","","","audio-keyboard-response","116","358711","0.0-98.0","23","1","2023-10-21 19:33:33","a725c3012b74bf33a1020a98cb69c237","69.23.117.183","Mozilla/5.0 (Macintosh; Intel Mac OS X 10_15_7) AppleWebKit/537.36 (KHTML, like Gecko) Chrome/116.0.0.0 Safari/537.36","Macintosh","Chrome","116.0.0.0","OS X","10_15_7","null","en,es-419;q=0.9,es;q=0.8,fr;q=0.7","true","416","tones/880hz_short.mp3","s","","","tone_number_task","992.5","34","tones/880hz_short.mp3","1142.5","100","0","12",""
"","","","","","html-keyboard-response","117","359300","0.0-99.0-0.0","23","1","2023-10-21 19:33:33","a725c3012b74bf33a1020a98cb69c237","69.23.117.183","Mozilla/5.0 (Macintosh; Intel Mac OS X 10_15_7) AppleWebKit/537.36 (KHTML, like Gecko) Chrome/116.0.0.0 Safari/537.36","Macintosh","Chrome","116.0.0.0","OS X","10_15_7","null","en,es-419;q=0.9,es;q=0.8,fr;q=0.7","true","null","","null","","","delay_block","","","","","","0","12",""
"","","","","","html-keyboard-response","118","359460","0.0-99.0-1.0","23","1","2023-10-21 19:33:33","a725c3012b74bf33a1020a98cb69c237","69.23.117.183","Mozilla/5.0 (Macintosh; Intel Mac OS X 10_15_7) AppleWebKit/537.36 (KHTML, like Gecko) Chrome/116.0.0.0 Safari/537.36","Macintosh","Chrome","116.0.0.0","OS X","10_15_7","null","en,es-419;q=0.9,es;q=0.8,fr;q=0.7","true","null","<p id=""stimulus"" style=""font-size:100px;"">34</p>","null","","","tone_number_task_remaining_before_delay","","34","","726.5","100","0","12",""
"","","","","","html-keyboard-response","119","360038","0.0-102.0-0.0","23","1","2023-10-21 19:33:33","a725c3012b74bf33a1020a98cb69c237","69.23.117.183","Mozilla/5.0 (Macintosh; Intel Mac OS X 10_15_7) AppleWebKit/537.36 (KHTML, like Gecko) Chrome/116.0.0.0 Safari/537.36","Macintosh","Chrome","116.0.0.0","OS X","10_15_7","null","en,es-419;q=0.9,es;q=0.8,fr;q=0.7","true","573","<p id=""stimulus"" style=""font-size:100px;"">34</p>","j","","","empty_block","","34","","","","0","12",""
"","","","","","html-keyboard-response","120","362927","0.0-103.0","23","1","2023-10-21 19:33:33","a725c3012b74bf33a1020a98cb69c237","69.23.117.183","Mozilla/5.0 (Macintosh; Intel Mac OS X 10_15_7) AppleWebKit/537.36 (KHTML, like Gecko) Chrome/116.0.0.0 Safari/537.36","Macintosh","Chrome","116.0.0.0","OS X","10_15_7","null","en,es-419;q=0.9,es;q=0.8,fr;q=0.7","true","null","<div style=""font-size:100px;"">X</div>","null","","","fixation","","","","","","","",""
"","","","","","audio-keyboard-response","121","363351","0.0-104.0","23","1","2023-10-21 19:33:33","a725c3012b74bf33a1020a98cb69c237","69.23.117.183","Mozilla/5.0 (Macintosh; Intel Mac OS X 10_15_7) AppleWebKit/537.36 (KHTML, like Gecko) Chrome/116.0.0.0 Safari/537.36","Macintosh","Chrome","116.0.0.0","OS X","10_15_7","null","en,es-419;q=0.9,es;q=0.8,fr;q=0.7","true","416","tones/440hz_short.mp3","a","","","tone_number_task","992.5","56","tones/440hz_short.mp3","1142.5","100","0","13",""
"","","","","","html-keyboard-response","122","363937","0.0-105.0-0.0","23","1","2023-10-21 19:33:33","a725c3012b74bf33a1020a98cb69c237","69.23.117.183","Mozilla/5.0 (Macintosh; Intel Mac OS X 10_15_7) AppleWebKit/537.36 (KHTML, like Gecko) Chrome/116.0.0.0 Safari/537.36","Macintosh","Chrome","116.0.0.0","OS X","10_15_7","null","en,es-419;q=0.9,es;q=0.8,fr;q=0.7","true","null","","null","","","delay_block","","","","","","0","13",""
"","","","","","html-keyboard-response","123","364099","0.0-105.0-1.0","23","1","2023-10-21 19:33:33","a725c3012b74bf33a1020a98cb69c237","69.23.117.183","Mozilla/5.0 (Macintosh; Intel Mac OS X 10_15_7) AppleWebKit/537.36 (KHTML, like Gecko) Chrome/116.0.0.0 Safari/537.36","Macintosh","Chrome","116.0.0.0","OS X","10_15_7","null","en,es-419;q=0.9,es;q=0.8,fr;q=0.7","true","null","<p id=""stimulus"" style=""font-size:100px;"">56</p>","null","","","tone_number_task_remaining_before_delay","","56","","726.5","100","0","13",""
"","","","","","html-keyboard-response","124","364470","0.0-108.0-0.0","23","1","2023-10-21 19:33:33","a725c3012b74bf33a1020a98cb69c237","69.23.117.183","Mozilla/5.0 (Macintosh; Intel Mac OS X 10_15_7) AppleWebKit/537.36 (KHTML, like Gecko) Chrome/116.0.0.0 Safari/537.36","Macintosh","Chrome","116.0.0.0","OS X","10_15_7","null","en,es-419;q=0.9,es;q=0.8,fr;q=0.7","true","366","<p id=""stimulus"" style=""font-size:100px;"">56</p>","k","","","empty_block","","56","","","","0","13",""
"","","","","","html-keyboard-response","125","367364","0.0-109.0","23","1","2023-10-21 19:33:33","a725c3012b74bf33a1020a98cb69c237","69.23.117.183","Mozilla/5.0 (Macintosh; Intel Mac OS X 10_15_7) AppleWebKit/537.36 (KHTML, like Gecko) Chrome/116.0.0.0 Safari/537.36","Macintosh","Chrome","116.0.0.0","OS X","10_15_7","null","en,es-419;q=0.9,es;q=0.8,fr;q=0.7","true","null","<div style=""font-size:100px;"">X</div>","null","","","fixation","","","","","","","",""
"","","","","","audio-keyboard-response","126","367857","0.0-110.0","23","1","2023-10-21 19:33:33","a725c3012b74bf33a1020a98cb69c237","69.23.117.183","Mozilla/5.0 (Macintosh; Intel Mac OS X 10_15_7) AppleWebKit/537.36 (KHTML, like Gecko) Chrome/116.0.0.0 Safari/537.36","Macintosh","Chrome","116.0.0.0","OS X","10_15_7","null","en,es-419;q=0.9,es;q=0.8,fr;q=0.7","true","485","tones/880hz_short.mp3","s","","","tone_number_task","992.5","54","tones/880hz_short.mp3","1142.5","100","0","14",""
"","","","","","html-keyboard-response","127","368369","0.0-111.0-0.0","23","1","2023-10-21 19:33:33","a725c3012b74bf33a1020a98cb69c237","69.23.117.183","Mozilla/5.0 (Macintosh; Intel Mac OS X 10_15_7) AppleWebKit/537.36 (KHTML, like Gecko) Chrome/116.0.0.0 Safari/537.36","Macintosh","Chrome","116.0.0.0","OS X","10_15_7","null","en,es-419;q=0.9,es;q=0.8,fr;q=0.7","true","null","","null","","","delay_block","","","","","","0","14",""
"","","","","","html-keyboard-response","128","368532","0.0-111.0-1.0","23","1","2023-10-21 19:33:33","a725c3012b74bf33a1020a98cb69c237","69.23.117.183","Mozilla/5.0 (Macintosh; Intel Mac OS X 10_15_7) AppleWebKit/537.36 (KHTML, like Gecko) Chrome/116.0.0.0 Safari/537.36","Macintosh","Chrome","116.0.0.0","OS X","10_15_7","null","en,es-419;q=0.9,es;q=0.8,fr;q=0.7","true","null","<p id=""stimulus"" style=""font-size:100px;"">54</p>","null","","","tone_number_task_remaining_before_delay","","54","","657.5","100","0","14",""
"","","","","","html-keyboard-response","129","368993","0.0-114.0-0.0","23","1","2023-10-21 19:33:33","a725c3012b74bf33a1020a98cb69c237","69.23.117.183","Mozilla/5.0 (Macintosh; Intel Mac OS X 10_15_7) AppleWebKit/537.36 (KHTML, like Gecko) Chrome/116.0.0.0 Safari/537.36","Macintosh","Chrome","116.0.0.0","OS X","10_15_7","null","en,es-419;q=0.9,es;q=0.8,fr;q=0.7","true","457","<p id=""stimulus"" style=""font-size:100px;"">54</p>","k","","","empty_block","","54","","","","0","14",""
"","","","","","html-keyboard-response","130","371891","0.0-115.0","23","1","2023-10-21 19:33:33","a725c3012b74bf33a1020a98cb69c237","69.23.117.183","Mozilla/5.0 (Macintosh; Intel Mac OS X 10_15_7) AppleWebKit/537.36 (KHTML, like Gecko) Chrome/116.0.0.0 Safari/537.36","Macintosh","Chrome","116.0.0.0","OS X","10_15_7","null","en,es-419;q=0.9,es;q=0.8,fr;q=0.7","true","null","<div style=""font-size:100px;"">X</div>","null","","","fixation","","","","","","","",""
"","","","","","audio-keyboard-response","131","372776","0.0-116.0","23","1","2023-10-21 19:33:33","a725c3012b74bf33a1020a98cb69c237","69.23.117.183","Mozilla/5.0 (Macintosh; Intel Mac OS X 10_15_7) AppleWebKit/537.36 (KHTML, like Gecko) Chrome/116.0.0.0 Safari/537.36","Macintosh","Chrome","116.0.0.0","OS X","10_15_7","null","en,es-419;q=0.9,es;q=0.8,fr;q=0.7","true","885","tones/880hz_short.mp3","s","","","tone_number_task","992.5","28","tones/880hz_short.mp3","1142.5","100","0","15",""
"","","","","","html-keyboard-response","132","372899","0.0-117.0-0.0","23","1","2023-10-21 19:33:33","a725c3012b74bf33a1020a98cb69c237","69.23.117.183","Mozilla/5.0 (Macintosh; Intel Mac OS X 10_15_7) AppleWebKit/537.36 (KHTML, like Gecko) Chrome/116.0.0.0 Safari/537.36","Macintosh","Chrome","116.0.0.0","OS X","10_15_7","null","en,es-419;q=0.9,es;q=0.8,fr;q=0.7","true","null","","null","","","delay_block","","","","","","0","15",""
"","","","","","html-keyboard-response","133","373059","0.0-117.0-1.0","23","1","2023-10-21 19:33:33","a725c3012b74bf33a1020a98cb69c237","69.23.117.183","Mozilla/5.0 (Macintosh; Intel Mac OS X 10_15_7) AppleWebKit/537.36 (KHTML, like Gecko) Chrome/116.0.0.0 Safari/537.36","Macintosh","Chrome","116.0.0.0","OS X","10_15_7","null","en,es-419;q=0.9,es;q=0.8,fr;q=0.7","true","null","<p id=""stimulus"" style=""font-size:100px;"">28</p>","null","","","tone_number_task_remaining_before_delay","","28","","257.5","100","0","15",""
"","","","","","html-keyboard-response","134","373505","0.0-120.0-0.0","23","1","2023-10-21 19:33:33","a725c3012b74bf33a1020a98cb69c237","69.23.117.183","Mozilla/5.0 (Macintosh; Intel Mac OS X 10_15_7) AppleWebKit/537.36 (KHTML, like Gecko) Chrome/116.0.0.0 Safari/537.36","Macintosh","Chrome","116.0.0.0","OS X","10_15_7","null","en,es-419;q=0.9,es;q=0.8,fr;q=0.7","true","442","<p id=""stimulus"" style=""font-size:100px;"">28</p>","j","","","empty_block","","28","","","","0","15",""
"","","","","","html-keyboard-response","135","376399","0.0-121.0","23","1","2023-10-21 19:33:33","a725c3012b74bf33a1020a98cb69c237","69.23.117.183","Mozilla/5.0 (Macintosh; Intel Mac OS X 10_15_7) AppleWebKit/537.36 (KHTML, like Gecko) Chrome/116.0.0.0 Safari/537.36","Macintosh","Chrome","116.0.0.0","OS X","10_15_7","null","en,es-419;q=0.9,es;q=0.8,fr;q=0.7","true","null","<div style=""font-size:100px;"">X</div>","null","","","fixation","","","","","","","",""
"","","","","","audio-keyboard-response","136","376664","0.0-122.0","23","1","2023-10-21 19:33:33","a725c3012b74bf33a1020a98cb69c237","69.23.117.183","Mozilla/5.0 (Macintosh; Intel Mac OS X 10_15_7) AppleWebKit/537.36 (KHTML, like Gecko) Chrome/116.0.0.0 Safari/537.36","Macintosh","Chrome","116.0.0.0","OS X","10_15_7","null","en,es-419;q=0.9,es;q=0.8,fr;q=0.7","true","null","tones/880hz_short.mp3","null","","","tone_number_task","102.5","63","tones/880hz_short.mp3","252.5","100","0","16",""
"","","","","","html-keyboard-response","137","376864","0.0-125.0-0.0","23","1","2023-10-21 19:33:33","a725c3012b74bf33a1020a98cb69c237","69.23.117.183","Mozilla/5.0 (Macintosh; Intel Mac OS X 10_15_7) AppleWebKit/537.36 (KHTML, like Gecko) Chrome/116.0.0.0 Safari/537.36","Macintosh","Chrome","116.0.0.0","OS X","10_15_7","null","en,es-419;q=0.9,es;q=0.8,fr;q=0.7","true","196","tones/880hz_short.mp3","s","","","empty_block","","63","","","","0","16",""
"","","","","","html-keyboard-response","138","377098","0.0-125.0-1.0","23","1","2023-10-21 19:33:33","a725c3012b74bf33a1020a98cb69c237","69.23.117.183","Mozilla/5.0 (Macintosh; Intel Mac OS X 10_15_7) AppleWebKit/537.36 (KHTML, like Gecko) Chrome/116.0.0.0 Safari/537.36","Macintosh","Chrome","116.0.0.0","OS X","10_15_7","null","en,es-419;q=0.9,es;q=0.8,fr;q=0.7","true","230","tones/880hz_short.mp3","k","","","empty_block","","63","","","","0","16",""
"","","","","","html-keyboard-response","139","379994","0.0-127.0","23","1","2023-10-21 19:33:33","a725c3012b74bf33a1020a98cb69c237","69.23.117.183","Mozilla/5.0 (Macintosh; Intel Mac OS X 10_15_7) AppleWebKit/537.36 (KHTML, like Gecko) Chrome/116.0.0.0 Safari/537.36","Macintosh","Chrome","116.0.0.0","OS X","10_15_7","null","en,es-419;q=0.9,es;q=0.8,fr;q=0.7","true","null","<div style=""font-size:100px;"">X</div>","null","","","fixation","","","","","","","",""
"","","","","","audio-keyboard-response","140","380435","0.0-128.0","23","1","2023-10-21 19:33:33","a725c3012b74bf33a1020a98cb69c237","69.23.117.183","Mozilla/5.0 (Macintosh; Intel Mac OS X 10_15_7) AppleWebKit/537.36 (KHTML, like Gecko) Chrome/116.0.0.0 Safari/537.36","Macintosh","Chrome","116.0.0.0","OS X","10_15_7","null","en,es-419;q=0.9,es;q=0.8,fr;q=0.7","true","437","tones/880hz_short.mp3","s","","","tone_number_task","1025","33","tones/880hz_short.mp3","1175","100","0","17",""
"","","","","","html-keyboard-response","141","381033","0.0-129.0-0.0","23","1","2023-10-21 19:33:33","a725c3012b74bf33a1020a98cb69c237","69.23.117.183","Mozilla/5.0 (Macintosh; Intel Mac OS X 10_15_7) AppleWebKit/537.36 (KHTML, like Gecko) Chrome/116.0.0.0 Safari/537.36","Macintosh","Chrome","116.0.0.0","OS X","10_15_7","null","en,es-419;q=0.9,es;q=0.8,fr;q=0.7","true","null","","null","","","delay_block","","","","","","0","17",""
"","","","","","html-keyboard-response","142","381192","0.0-129.0-1.0","23","1","2023-10-21 19:33:33","a725c3012b74bf33a1020a98cb69c237","69.23.117.183","Mozilla/5.0 (Macintosh; Intel Mac OS X 10_15_7) AppleWebKit/537.36 (KHTML, like Gecko) Chrome/116.0.0.0 Safari/537.36","Macintosh","Chrome","116.0.0.0","OS X","10_15_7","null","en,es-419;q=0.9,es;q=0.8,fr;q=0.7","true","null","<p id=""stimulus"" style=""font-size:100px;"">33</p>","null","","","tone_number_task_remaining_before_delay","","33","","738","100","0","17",""
"","","","","","html-keyboard-response","143","381472","0.0-132.0-0.0","23","1","2023-10-21 19:33:33","a725c3012b74bf33a1020a98cb69c237","69.23.117.183","Mozilla/5.0 (Macintosh; Intel Mac OS X 10_15_7) AppleWebKit/537.36 (KHTML, like Gecko) Chrome/116.0.0.0 Safari/537.36","Macintosh","Chrome","116.0.0.0","OS X","10_15_7","null","en,es-419;q=0.9,es;q=0.8,fr;q=0.7","true","275","<p id=""stimulus"" style=""font-size:100px;"">33</p>","j","","","empty_block","","33","","","","0","17",""
"","","","","","html-keyboard-response","144","384373","0.0-133.0","23","1","2023-10-21 19:33:33","a725c3012b74bf33a1020a98cb69c237","69.23.117.183","Mozilla/5.0 (Macintosh; Intel Mac OS X 10_15_7) AppleWebKit/537.36 (KHTML, like Gecko) Chrome/116.0.0.0 Safari/537.36","Macintosh","Chrome","116.0.0.0","OS X","10_15_7","null","en,es-419;q=0.9,es;q=0.8,fr;q=0.7","true","null","<div style=""font-size:100px;"">X</div>","null","","","fixation","","","","","","","",""
"","","","","","audio-keyboard-response","145","384838","0.0-134.0","23","1","2023-10-21 19:33:33","a725c3012b74bf33a1020a98cb69c237","69.23.117.183","Mozilla/5.0 (Macintosh; Intel Mac OS X 10_15_7) AppleWebKit/537.36 (KHTML, like Gecko) Chrome/116.0.0.0 Safari/537.36","Macintosh","Chrome","116.0.0.0","OS X","10_15_7","null","en,es-419;q=0.9,es;q=0.8,fr;q=0.7","true","459","tones/880hz_short.mp3","s","","","tone_number_task","1025","52","tones/880hz_short.mp3","1175","100","0","18",""
"","","","","","html-keyboard-response","146","385410","0.0-135.0-0.0","23","1","2023-10-21 19:33:33","a725c3012b74bf33a1020a98cb69c237","69.23.117.183","Mozilla/5.0 (Macintosh; Intel Mac OS X 10_15_7) AppleWebKit/537.36 (KHTML, like Gecko) Chrome/116.0.0.0 Safari/537.36","Macintosh","Chrome","116.0.0.0","OS X","10_15_7","null","en,es-419;q=0.9,es;q=0.8,fr;q=0.7","true","null","","null","","","delay_block","","","","","","0","18",""
"","","","","","html-keyboard-response","147","385572","0.0-135.0-1.0","23","1","2023-10-21 19:33:33","a725c3012b74bf33a1020a98cb69c237","69.23.117.183","Mozilla/5.0 (Macintosh; Intel Mac OS X 10_15_7) AppleWebKit/537.36 (KHTML, like Gecko) Chrome/116.0.0.0 Safari/537.36","Macintosh","Chrome","116.0.0.0","OS X","10_15_7","null","en,es-419;q=0.9,es;q=0.8,fr;q=0.7","true","null","<p id=""stimulus"" style=""font-size:100px;"">52</p>","null","","","tone_number_task_remaining_before_delay","","52","","716","100","0","18",""
"","","","","","html-keyboard-response","148","385886","0.0-138.0-0.0","23","1","2023-10-21 19:33:33","a725c3012b74bf33a1020a98cb69c237","69.23.117.183","Mozilla/5.0 (Macintosh; Intel Mac OS X 10_15_7) AppleWebKit/537.36 (KHTML, like Gecko) Chrome/116.0.0.0 Safari/537.36","Macintosh","Chrome","116.0.0.0","OS X","10_15_7","null","en,es-419;q=0.9,es;q=0.8,fr;q=0.7","true","309","<p id=""stimulus"" style=""font-size:100px;"">52</p>","k","","","empty_block","","52","","","","0","18",""
"","","","","","html-keyboard-response","149","388777","0.0-139.0","23","1","2023-10-21 19:33:33","a725c3012b74bf33a1020a98cb69c237","69.23.117.183","Mozilla/5.0 (Macintosh; Intel Mac OS X 10_15_7) AppleWebKit/537.36 (KHTML, like Gecko) Chrome/116.0.0.0 Safari/537.36","Macintosh","Chrome","116.0.0.0","OS X","10_15_7","null","en,es-419;q=0.9,es;q=0.8,fr;q=0.7","true","null","<div style=""font-size:100px;"">X</div>","null","","","fixation","","","","","","","",""
"","","","","","audio-keyboard-response","150","389042","0.0-140.0","23","1","2023-10-21 19:33:33","a725c3012b74bf33a1020a98cb69c237","69.23.117.183","Mozilla/5.0 (Macintosh; Intel Mac OS X 10_15_7) AppleWebKit/537.36 (KHTML, like Gecko) Chrome/116.0.0.0 Safari/537.36","Macintosh","Chrome","116.0.0.0","OS X","10_15_7","null","en,es-419;q=0.9,es;q=0.8,fr;q=0.7","true","null","tones/880hz_short.mp3","null","","","tone_number_task","102.5","40","tones/880hz_short.mp3","252.5","100","0","19",""
"","","","","","html-keyboard-response","151","389910","0.0-143.0-0.0","23","1","2023-10-21 19:33:33","a725c3012b74bf33a1020a98cb69c237","69.23.117.183","Mozilla/5.0 (Macintosh; Intel Mac OS X 10_15_7) AppleWebKit/537.36 (KHTML, like Gecko) Chrome/116.0.0.0 Safari/537.36","Macintosh","Chrome","116.0.0.0","OS X","10_15_7","null","en,es-419;q=0.9,es;q=0.8,fr;q=0.7","true","863","tones/880hz_short.mp3","a","","","empty_block","","40","","","","0","19",""
"","","","","","html-keyboard-response","152","390078","0.0-143.0-1.0","23","1","2023-10-21 19:33:33","a725c3012b74bf33a1020a98cb69c237","69.23.117.183","Mozilla/5.0 (Macintosh; Intel Mac OS X 10_15_7) AppleWebKit/537.36 (KHTML, like Gecko) Chrome/116.0.0.0 Safari/537.36","Macintosh","Chrome","116.0.0.0","OS X","10_15_7","null","en,es-419;q=0.9,es;q=0.8,fr;q=0.7","true","163","tones/880hz_short.mp3","s","","","empty_block","","40","","","","0","19",""
"","","","","","html-keyboard-response","153","392979","0.0-145.0","23","1","2023-10-21 19:33:33","a725c3012b74bf33a1020a98cb69c237","69.23.117.183","Mozilla/5.0 (Macintosh; Intel Mac OS X 10_15_7) AppleWebKit/537.36 (KHTML, like Gecko) Chrome/116.0.0.0 Safari/537.36","Macintosh","Chrome","116.0.0.0","OS X","10_15_7","null","en,es-419;q=0.9,es;q=0.8,fr;q=0.7","true","null","<div style=""font-size:100px;"">X</div>","null","","","fixation","","","","","","","",""
"","","","","","audio-keyboard-response","154","393612","0.0-146.0","23","1","2023-10-21 19:33:33","a725c3012b74bf33a1020a98cb69c237","69.23.117.183","Mozilla/5.0 (Macintosh; Intel Mac OS X 10_15_7) AppleWebKit/537.36 (KHTML, like Gecko) Chrome/116.0.0.0 Safari/537.36","Macintosh","Chrome","116.0.0.0","OS X","10_15_7","null","en,es-419;q=0.9,es;q=0.8,fr;q=0.7","true","624","tones/440hz_short.mp3","s","","","tone_number_task","992.5","50","tones/440hz_short.mp3","1142.5","100","0","20",""
"","","","","","html-keyboard-response","155","393986","0.0-147.0-0.0","23","1","2023-10-21 19:33:33","a725c3012b74bf33a1020a98cb69c237","69.23.117.183","Mozilla/5.0 (Macintosh; Intel Mac OS X 10_15_7) AppleWebKit/537.36 (KHTML, like Gecko) Chrome/116.0.0.0 Safari/537.36","Macintosh","Chrome","116.0.0.0","OS X","10_15_7","null","en,es-419;q=0.9,es;q=0.8,fr;q=0.7","true","null","","null","","","delay_block","","","","","","0","20",""
"","","","","","html-keyboard-response","156","394149","0.0-147.0-1.0","23","1","2023-10-21 19:33:33","a725c3012b74bf33a1020a98cb69c237","69.23.117.183","Mozilla/5.0 (Macintosh; Intel Mac OS X 10_15_7) AppleWebKit/537.36 (KHTML, like Gecko) Chrome/116.0.0.0 Safari/537.36","Macintosh","Chrome","116.0.0.0","OS X","10_15_7","null","en,es-419;q=0.9,es;q=0.8,fr;q=0.7","true","null","<p id=""stimulus"" style=""font-size:100px;"">50</p>","null","","","tone_number_task_remaining_before_delay","","50","","518.5","100","0","20",""
"","","","","","html-keyboard-response","157","394632","0.0-150.0-0.0","23","1","2023-10-21 19:33:33","a725c3012b74bf33a1020a98cb69c237","69.23.117.183","Mozilla/5.0 (Macintosh; Intel Mac OS X 10_15_7) AppleWebKit/537.36 (KHTML, like Gecko) Chrome/116.0.0.0 Safari/537.36","Macintosh","Chrome","116.0.0.0","OS X","10_15_7","null","en,es-419;q=0.9,es;q=0.8,fr;q=0.7","true","478","<p id=""stimulus"" style=""font-size:100px;"">50</p>","k","","","empty_block","","50","","","","0","20",""
"","","","","","html-keyboard-response","158","397522","0.0-151.0","23","1","2023-10-21 19:33:33","a725c3012b74bf33a1020a98cb69c237","69.23.117.183","Mozilla/5.0 (Macintosh; Intel Mac OS X 10_15_7) AppleWebKit/537.36 (KHTML, like Gecko) Chrome/116.0.0.0 Safari/537.36","Macintosh","Chrome","116.0.0.0","OS X","10_15_7","null","en,es-419;q=0.9,es;q=0.8,fr;q=0.7","true","null","<div style=""font-size:100px;"">X</div>","null","","","fixation","","","","","","","",""
"","","","","","audio-keyboard-response","159","397683","0.0-152.0","23","1","2023-10-21 19:33:33","a725c3012b74bf33a1020a98cb69c237","69.23.117.183","Mozilla/5.0 (Macintosh; Intel Mac OS X 10_15_7) AppleWebKit/537.36 (KHTML, like Gecko) Chrome/116.0.0.0 Safari/537.36","Macintosh","Chrome","116.0.0.0","OS X","10_15_7","null","en,es-419;q=0.9,es;q=0.8,fr;q=0.7","true","null","tones/440hz_short.mp3","null","","","tone_number_task","0","36","tones/440hz_short.mp3","150","100","0","21",""
"","","","","","html-keyboard-response","160","398371","0.0-155.0-0.0","23","1","2023-10-21 19:33:33","a725c3012b74bf33a1020a98cb69c237","69.23.117.183","Mozilla/5.0 (Macintosh; Intel Mac OS X 10_15_7) AppleWebKit/537.36 (KHTML, like Gecko) Chrome/116.0.0.0 Safari/537.36","Macintosh","Chrome","116.0.0.0","OS X","10_15_7","null","en,es-419;q=0.9,es;q=0.8,fr;q=0.7","true","681","tones/440hz_short.mp3","a","","","empty_block","","36","","","","0","21",""
"","","","","","html-keyboard-response","161","398632","0.0-155.0-1.0","23","1","2023-10-21 19:33:33","a725c3012b74bf33a1020a98cb69c237","69.23.117.183","Mozilla/5.0 (Macintosh; Intel Mac OS X 10_15_7) AppleWebKit/537.36 (KHTML, like Gecko) Chrome/116.0.0.0 Safari/537.36","Macintosh","Chrome","116.0.0.0","OS X","10_15_7","null","en,es-419;q=0.9,es;q=0.8,fr;q=0.7","true","256","tones/440hz_short.mp3","j","","","empty_block","","36","","","","0","21",""
"","","","","","html-keyboard-response","162","401533","0.0-157.0","23","1","2023-10-21 19:33:33","a725c3012b74bf33a1020a98cb69c237","69.23.117.183","Mozilla/5.0 (Macintosh; Intel Mac OS X 10_15_7) AppleWebKit/537.36 (KHTML, like Gecko) Chrome/116.0.0.0 Safari/537.36","Macintosh","Chrome","116.0.0.0","OS X","10_15_7","null","en,es-419;q=0.9,es;q=0.8,fr;q=0.7","true","null","<div style=""font-size:100px;"">X</div>","null","","","fixation","","","","","","","",""
"","","","","","audio-keyboard-response","163","401793","0.0-158.0","23","1","2023-10-21 19:33:33","a725c3012b74bf33a1020a98cb69c237","69.23.117.183","Mozilla/5.0 (Macintosh; Intel Mac OS X 10_15_7) AppleWebKit/537.36 (KHTML, like Gecko) Chrome/116.0.0.0 Safari/537.36","Macintosh","Chrome","116.0.0.0","OS X","10_15_7","null","en,es-419;q=0.9,es;q=0.8,fr;q=0.7","true","null","tones/440hz_short.mp3","null","","","tone_number_task","102.5","69","tones/440hz_short.mp3","252.5","100","0","22",""
"","","","","","html-keyboard-response","164","402135","0.0-161.0-0.0","23","1","2023-10-21 19:33:33","a725c3012b74bf33a1020a98cb69c237","69.23.117.183","Mozilla/5.0 (Macintosh; Intel Mac OS X 10_15_7) AppleWebKit/537.36 (KHTML, like Gecko) Chrome/116.0.0.0 Safari/537.36","Macintosh","Chrome","116.0.0.0","OS X","10_15_7","null","en,es-419;q=0.9,es;q=0.8,fr;q=0.7","true","337","tones/440hz_short.mp3","a","","","empty_block","","69","","","","0","22",""
"","","","","","html-keyboard-response","165","402330","0.0-161.0-1.0","23","1","2023-10-21 19:33:33","a725c3012b74bf33a1020a98cb69c237","69.23.117.183","Mozilla/5.0 (Macintosh; Intel Mac OS X 10_15_7) AppleWebKit/537.36 (KHTML, like Gecko) Chrome/116.0.0.0 Safari/537.36","Macintosh","Chrome","116.0.0.0","OS X","10_15_7","null","en,es-419;q=0.9,es;q=0.8,fr;q=0.7","true","190","tones/440hz_short.mp3","k","","","empty_block","","69","","","","0","22",""
"","","","","","html-keyboard-response","166","405225","0.0-163.0","23","1","2023-10-21 19:33:33","a725c3012b74bf33a1020a98cb69c237","69.23.117.183","Mozilla/5.0 (Macintosh; Intel Mac OS X 10_15_7) AppleWebKit/537.36 (KHTML, like Gecko) Chrome/116.0.0.0 Safari/537.36","Macintosh","Chrome","116.0.0.0","OS X","10_15_7","null","en,es-419;q=0.9,es;q=0.8,fr;q=0.7","true","null","<div style=""font-size:100px;"">X</div>","null","","","fixation","","","","","","","",""
"","","","","","audio-keyboard-response","167","405494","0.0-164.0","23","1","2023-10-21 19:33:33","a725c3012b74bf33a1020a98cb69c237","69.23.117.183","Mozilla/5.0 (Macintosh; Intel Mac OS X 10_15_7) AppleWebKit/537.36 (KHTML, like Gecko) Chrome/116.0.0.0 Safari/537.36","Macintosh","Chrome","116.0.0.0","OS X","10_15_7","null","en,es-419;q=0.9,es;q=0.8,fr;q=0.7","true","null","tones/880hz_short.mp3","null","","","tone_number_task","102.5","54","tones/880hz_short.mp3","252.5","100","0","23",""
"","","","","","html-keyboard-response","168","406316","0.0-167.0-0.0","23","1","2023-10-21 19:33:33","a725c3012b74bf33a1020a98cb69c237","69.23.117.183","Mozilla/5.0 (Macintosh; Intel Mac OS X 10_15_7) AppleWebKit/537.36 (KHTML, like Gecko) Chrome/116.0.0.0 Safari/537.36","Macintosh","Chrome","116.0.0.0","OS X","10_15_7","null","en,es-419;q=0.9,es;q=0.8,fr;q=0.7","true","816","tones/880hz_short.mp3","s","","","empty_block","","54","","","","0","23",""
"","","","","","html-keyboard-response","169","406603","0.0-167.0-1.0","23","1","2023-10-21 19:33:33","a725c3012b74bf33a1020a98cb69c237","69.23.117.183","Mozilla/5.0 (Macintosh; Intel Mac OS X 10_15_7) AppleWebKit/537.36 (KHTML, like Gecko) Chrome/116.0.0.0 Safari/537.36","Macintosh","Chrome","116.0.0.0","OS X","10_15_7","null","en,es-419;q=0.9,es;q=0.8,fr;q=0.7","true","282","tones/880hz_short.mp3","k","","","empty_block","","54","","","","0","23",""
"","","","","","html-keyboard-response","170","409501","0.0-169.0","23","1","2023-10-21 19:33:33","a725c3012b74bf33a1020a98cb69c237","69.23.117.183","Mozilla/5.0 (Macintosh; Intel Mac OS X 10_15_7) AppleWebKit/537.36 (KHTML, like Gecko) Chrome/116.0.0.0 Safari/537.36","Macintosh","Chrome","116.0.0.0","OS X","10_15_7","null","en,es-419;q=0.9,es;q=0.8,fr;q=0.7","true","null","<div style=""font-size:100px;"">X</div>","null","","","fixation","","","","","","","",""
"","","","","","audio-keyboard-response","171","409667","0.0-170.0","23","1","2023-10-21 19:33:33","a725c3012b74bf33a1020a98cb69c237","69.23.117.183","Mozilla/5.0 (Macintosh; Intel Mac OS X 10_15_7) AppleWebKit/537.36 (KHTML, like Gecko) Chrome/116.0.0.0 Safari/537.36","Macintosh","Chrome","116.0.0.0","OS X","10_15_7","null","en,es-419;q=0.9,es;q=0.8,fr;q=0.7","true","null","tones/440hz_short.mp3","null","","","tone_number_task","0","33","tones/440hz_short.mp3","150","100","0","24",""
"","","","","","html-keyboard-response","172","410126","0.0-173.0-0.0","23","1","2023-10-21 19:33:33","a725c3012b74bf33a1020a98cb69c237","69.23.117.183","Mozilla/5.0 (Macintosh; Intel Mac OS X 10_15_7) AppleWebKit/537.36 (KHTML, like Gecko) Chrome/116.0.0.0 Safari/537.36","Macintosh","Chrome","116.0.0.0","OS X","10_15_7","null","en,es-419;q=0.9,es;q=0.8,fr;q=0.7","true","455","tones/440hz_short.mp3","a","","","empty_block","","33","","","","0","24",""
"","","","","","html-keyboard-response","173","410282","0.0-173.0-1.0","23","1","2023-10-21 19:33:33","a725c3012b74bf33a1020a98cb69c237","69.23.117.183","Mozilla/5.0 (Macintosh; Intel Mac OS X 10_15_7) AppleWebKit/537.36 (KHTML, like Gecko) Chrome/116.0.0.0 Safari/537.36","Macintosh","Chrome","116.0.0.0","OS X","10_15_7","null","en,es-419;q=0.9,es;q=0.8,fr;q=0.7","true","150","tones/440hz_short.mp3","j","","","empty_block","","33","","","","0","24",""
"","","","","","html-keyboard-response","174","413178","0.0-175.0","23","1","2023-10-21 19:33:33","a725c3012b74bf33a1020a98cb69c237","69.23.117.183","Mozilla/5.0 (Macintosh; Intel Mac OS X 10_15_7) AppleWebKit/537.36 (KHTML, like Gecko) Chrome/116.0.0.0 Safari/537.36","Macintosh","Chrome","116.0.0.0","OS X","10_15_7","null","en,es-419;q=0.9,es;q=0.8,fr;q=0.7","true","null","<div style=""font-size:100px;"">X</div>","null","","","fixation","","","","","","","",""
"","","","","","audio-keyboard-response","175","413857","0.0-176.0","23","1","2023-10-21 19:33:33","a725c3012b74bf33a1020a98cb69c237","69.23.117.183","Mozilla/5.0 (Macintosh; Intel Mac OS X 10_15_7) AppleWebKit/537.36 (KHTML, like Gecko) Chrome/116.0.0.0 Safari/537.36","Macintosh","Chrome","116.0.0.0","OS X","10_15_7","null","en,es-419;q=0.9,es;q=0.8,fr;q=0.7","true","672","tones/880hz_short.mp3","s","","","tone_number_task","1025","23","tones/880hz_short.mp3","1175","100","0","25",""
"","","","","","html-keyboard-response","176","414219","0.0-177.0-0.0","23","1","2023-10-21 19:33:33","a725c3012b74bf33a1020a98cb69c237","69.23.117.183","Mozilla/5.0 (Macintosh; Intel Mac OS X 10_15_7) AppleWebKit/537.36 (KHTML, like Gecko) Chrome/116.0.0.0 Safari/537.36","Macintosh","Chrome","116.0.0.0","OS X","10_15_7","null","en,es-419;q=0.9,es;q=0.8,fr;q=0.7","true","null","","null","","","delay_block","","","","","","0","25",""
"","","","","","html-keyboard-response","177","414379","0.0-177.0-1.0","23","1","2023-10-21 19:33:33","a725c3012b74bf33a1020a98cb69c237","69.23.117.183","Mozilla/5.0 (Macintosh; Intel Mac OS X 10_15_7) AppleWebKit/537.36 (KHTML, like Gecko) Chrome/116.0.0.0 Safari/537.36","Macintosh","Chrome","116.0.0.0","OS X","10_15_7","null","en,es-419;q=0.9,es;q=0.8,fr;q=0.7","true","null","<p id=""stimulus"" style=""font-size:100px;"">23</p>","null","","","tone_number_task_remaining_before_delay","","23","","503","100","0","25",""
"","","","","","html-keyboard-response","178","414673","0.0-180.0-0.0","23","1","2023-10-21 19:33:33","a725c3012b74bf33a1020a98cb69c237","69.23.117.183","Mozilla/5.0 (Macintosh; Intel Mac OS X 10_15_7) AppleWebKit/537.36 (KHTML, like Gecko) Chrome/116.0.0.0 Safari/537.36","Macintosh","Chrome","116.0.0.0","OS X","10_15_7","null","en,es-419;q=0.9,es;q=0.8,fr;q=0.7","true","285","<p id=""stimulus"" style=""font-size:100px;"">23</p>","j","","","empty_block","","23","","","","0","25",""
"","","","","","html-keyboard-response","179","417572","0.0-181.0","23","1","2023-10-21 19:33:33","a725c3012b74bf33a1020a98cb69c237","69.23.117.183","Mozilla/5.0 (Macintosh; Intel Mac OS X 10_15_7) AppleWebKit/537.36 (KHTML, like Gecko) Chrome/116.0.0.0 Safari/537.36","Macintosh","Chrome","116.0.0.0","OS X","10_15_7","null","en,es-419;q=0.9,es;q=0.8,fr;q=0.7","true","null","<div style=""font-size:100px;"">X</div>","null","","","fixation","","","","","","","",""
"","","","","","audio-keyboard-response","180","418021","0.0-182.0","23","1","2023-10-21 19:33:33","a725c3012b74bf33a1020a98cb69c237","69.23.117.183","Mozilla/5.0 (Macintosh; Intel Mac OS X 10_15_7) AppleWebKit/537.36 (KHTML, like Gecko) Chrome/116.0.0.0 Safari/537.36","Macintosh","Chrome","116.0.0.0","OS X","10_15_7","null","en,es-419;q=0.9,es;q=0.8,fr;q=0.7","true","443","tones/440hz_short.mp3","a","","","tone_number_task","1025","52","tones/440hz_short.mp3","1175","100","0","26",""
"","","","","","html-keyboard-response","181","418614","0.0-183.0-0.0","23","1","2023-10-21 19:33:33","a725c3012b74bf33a1020a98cb69c237","69.23.117.183","Mozilla/5.0 (Macintosh; Intel Mac OS X 10_15_7) AppleWebKit/537.36 (KHTML, like Gecko) Chrome/116.0.0.0 Safari/537.36","Macintosh","Chrome","116.0.0.0","OS X","10_15_7","null","en,es-419;q=0.9,es;q=0.8,fr;q=0.7","true","null","","null","","","delay_block","","","","","","0","26",""
"","","","","","html-keyboard-response","182","418781","0.0-183.0-1.0","23","1","2023-10-21 19:33:33","a725c3012b74bf33a1020a98cb69c237","69.23.117.183","Mozilla/5.0 (Macintosh; Intel Mac OS X 10_15_7) AppleWebKit/537.36 (KHTML, like Gecko) Chrome/116.0.0.0 Safari/537.36","Macintosh","Chrome","116.0.0.0","OS X","10_15_7","null","en,es-419;q=0.9,es;q=0.8,fr;q=0.7","true","null","<p id=""stimulus"" style=""font-size:100px;"">52</p>","null","","","tone_number_task_remaining_before_delay","","52","","732","100","0","26",""
"","","","","","html-keyboard-response","183","419047","0.0-186.0-0.0","23","1","2023-10-21 19:33:33","a725c3012b74bf33a1020a98cb69c237","69.23.117.183","Mozilla/5.0 (Macintosh; Intel Mac OS X 10_15_7) AppleWebKit/537.36 (KHTML, like Gecko) Chrome/116.0.0.0 Safari/537.36","Macintosh","Chrome","116.0.0.0","OS X","10_15_7","null","en,es-419;q=0.9,es;q=0.8,fr;q=0.7","true","261","<p id=""stimulus"" style=""font-size:100px;"">52</p>","k","","","empty_block","","52","","","","0","26",""
"","","","","","html-keyboard-response","184","421942","0.0-187.0","23","1","2023-10-21 19:33:33","a725c3012b74bf33a1020a98cb69c237","69.23.117.183","Mozilla/5.0 (Macintosh; Intel Mac OS X 10_15_7) AppleWebKit/537.36 (KHTML, like Gecko) Chrome/116.0.0.0 Safari/537.36","Macintosh","Chrome","116.0.0.0","OS X","10_15_7","null","en,es-419;q=0.9,es;q=0.8,fr;q=0.7","true","null","<div style=""font-size:100px;"">X</div>","null","","","fixation","","","","","","","",""
"","","","","","audio-keyboard-response","185","422706","0.0-188.0","23","1","2023-10-21 19:33:33","a725c3012b74bf33a1020a98cb69c237","69.23.117.183","Mozilla/5.0 (Macintosh; Intel Mac OS X 10_15_7) AppleWebKit/537.36 (KHTML, like Gecko) Chrome/116.0.0.0 Safari/537.36","Macintosh","Chrome","116.0.0.0","OS X","10_15_7","null","en,es-419;q=0.9,es;q=0.8,fr;q=0.7","true","757","tones/440hz_short.mp3","s","","","tone_number_task","992.5","48","tones/440hz_short.mp3","1142.5","100","0","27",""
"","","","","","html-keyboard-response","186","422954","0.0-189.0-0.0","23","1","2023-10-21 19:33:33","a725c3012b74bf33a1020a98cb69c237","69.23.117.183","Mozilla/5.0 (Macintosh; Intel Mac OS X 10_15_7) AppleWebKit/537.36 (KHTML, like Gecko) Chrome/116.0.0.0 Safari/537.36","Macintosh","Chrome","116.0.0.0","OS X","10_15_7","null","en,es-419;q=0.9,es;q=0.8,fr;q=0.7","true","null","","null","","","delay_block","","","","","","0","27",""
"","","","","","html-keyboard-response","187","423115","0.0-189.0-1.0","23","1","2023-10-21 19:33:33","a725c3012b74bf33a1020a98cb69c237","69.23.117.183","Mozilla/5.0 (Macintosh; Intel Mac OS X 10_15_7) AppleWebKit/537.36 (KHTML, like Gecko) Chrome/116.0.0.0 Safari/537.36","Macintosh","Chrome","116.0.0.0","OS X","10_15_7","null","en,es-419;q=0.9,es;q=0.8,fr;q=0.7","true","null","<p id=""stimulus"" style=""font-size:100px;"">48</p>","null","","","tone_number_task_remaining_before_delay","","48","","385.5","100","0","27",""
"","","","","","html-keyboard-response","188","423661","0.0-192.0-0.0","23","1","2023-10-21 19:33:33","a725c3012b74bf33a1020a98cb69c237","69.23.117.183","Mozilla/5.0 (Macintosh; Intel Mac OS X 10_15_7) AppleWebKit/537.36 (KHTML, like Gecko) Chrome/116.0.0.0 Safari/537.36","Macintosh","Chrome","116.0.0.0","OS X","10_15_7","null","en,es-419;q=0.9,es;q=0.8,fr;q=0.7","true","541","<p id=""stimulus"" style=""font-size:100px;"">48</p>","k","","","empty_block","","48","","","","0","27",""
"","","","","","html-keyboard-response","189","426553","0.0-193.0","23","1","2023-10-21 19:33:33","a725c3012b74bf33a1020a98cb69c237","69.23.117.183","Mozilla/5.0 (Macintosh; Intel Mac OS X 10_15_7) AppleWebKit/537.36 (KHTML, like Gecko) Chrome/116.0.0.0 Safari/537.36","Macintosh","Chrome","116.0.0.0","OS X","10_15_7","null","en,es-419;q=0.9,es;q=0.8,fr;q=0.7","true","null","<div style=""font-size:100px;"">X</div>","null","","","fixation","","","","","","","",""
"","","","","","audio-keyboard-response","190","426815","0.0-194.0","23","1","2023-10-21 19:33:33","a725c3012b74bf33a1020a98cb69c237","69.23.117.183","Mozilla/5.0 (Macintosh; Intel Mac OS X 10_15_7) AppleWebKit/537.36 (KHTML, like Gecko) Chrome/116.0.0.0 Safari/537.36","Macintosh","Chrome","116.0.0.0","OS X","10_15_7","null","en,es-419;q=0.9,es;q=0.8,fr;q=0.7","true","null","tones/440hz_short.mp3","null","","","tone_number_task","102.5","47","tones/440hz_short.mp3","252.5","100","0","28",""
"","","","","","html-keyboard-response","191","427158","0.0-197.0-0.0","23","1","2023-10-21 19:33:33","a725c3012b74bf33a1020a98cb69c237","69.23.117.183","Mozilla/5.0 (Macintosh; Intel Mac OS X 10_15_7) AppleWebKit/537.36 (KHTML, like Gecko) Chrome/116.0.0.0 Safari/537.36","Macintosh","Chrome","116.0.0.0","OS X","10_15_7","null","en,es-419;q=0.9,es;q=0.8,fr;q=0.7","true","338","tones/440hz_short.mp3","a","","","empty_block","","47","","","","0","28",""
"","","","","","html-keyboard-response","192","427695","0.0-197.0-1.0","23","1","2023-10-21 19:33:33","a725c3012b74bf33a1020a98cb69c237","69.23.117.183","Mozilla/5.0 (Macintosh; Intel Mac OS X 10_15_7) AppleWebKit/537.36 (KHTML, like Gecko) Chrome/116.0.0.0 Safari/537.36","Macintosh","Chrome","116.0.0.0","OS X","10_15_7","null","en,es-419;q=0.9,es;q=0.8,fr;q=0.7","true","532","tones/440hz_short.mp3","j","","","empty_block","","47","","","","0","28",""
"","","","","","html-keyboard-response","193","430588","0.0-199.0","23","1","2023-10-21 19:33:33","a725c3012b74bf33a1020a98cb69c237","69.23.117.183","Mozilla/5.0 (Macintosh; Intel Mac OS X 10_15_7) AppleWebKit/537.36 (KHTML, like Gecko) Chrome/116.0.0.0 Safari/537.36","Macintosh","Chrome","116.0.0.0","OS X","10_15_7","null","en,es-419;q=0.9,es;q=0.8,fr;q=0.7","true","null","<div style=""font-size:100px;"">X</div>","null","","","fixation","","","","","","","",""
"","","","","","audio-keyboard-response","194","431303","0.0-200.0","23","1","2023-10-21 19:33:33","a725c3012b74bf33a1020a98cb69c237","69.23.117.183","Mozilla/5.0 (Macintosh; Intel Mac OS X 10_15_7) AppleWebKit/537.36 (KHTML, like Gecko) Chrome/116.0.0.0 Safari/537.36","Macintosh","Chrome","116.0.0.0","OS X","10_15_7","null","en,es-419;q=0.9,es;q=0.8,fr;q=0.7","true","709","tones/880hz_short.mp3","s","","","tone_number_task","992.5","31","tones/880hz_short.mp3","1142.5","100","0","29",""
"","","","","","html-keyboard-response","195","431593","0.0-201.0-0.0","23","1","2023-10-21 19:33:33","a725c3012b74bf33a1020a98cb69c237","69.23.117.183","Mozilla/5.0 (Macintosh; Intel Mac OS X 10_15_7) AppleWebKit/537.36 (KHTML, like Gecko) Chrome/116.0.0.0 Safari/537.36","Macintosh","Chrome","116.0.0.0","OS X","10_15_7","null","en,es-419;q=0.9,es;q=0.8,fr;q=0.7","true","null","","null","","","delay_block","","","","","","0","29",""
"","","","","","html-keyboard-response","196","431756","0.0-201.0-1.0","23","1","2023-10-21 19:33:33","a725c3012b74bf33a1020a98cb69c237","69.23.117.183","Mozilla/5.0 (Macintosh; Intel Mac OS X 10_15_7) AppleWebKit/537.36 (KHTML, like Gecko) Chrome/116.0.0.0 Safari/537.36","Macintosh","Chrome","116.0.0.0","OS X","10_15_7","null","en,es-419;q=0.9,es;q=0.8,fr;q=0.7","true","null","<p id=""stimulus"" style=""font-size:100px;"">31</p>","null","","","tone_number_task_remaining_before_delay","","31","","433.5","100","0","29",""
"","","","","","html-keyboard-response","197","432098","0.0-204.0-0.0","23","1","2023-10-21 19:33:33","a725c3012b74bf33a1020a98cb69c237","69.23.117.183","Mozilla/5.0 (Macintosh; Intel Mac OS X 10_15_7) AppleWebKit/537.36 (KHTML, like Gecko) Chrome/116.0.0.0 Safari/537.36","Macintosh","Chrome","116.0.0.0","OS X","10_15_7","null","en,es-419;q=0.9,es;q=0.8,fr;q=0.7","true","337","<p id=""stimulus"" style=""font-size:100px;"">31</p>","j","","","empty_block","","31","","","","0","29",""
"","","","","","html-keyboard-response","198","434996","0.0-205.0","23","1","2023-10-21 19:33:33","a725c3012b74bf33a1020a98cb69c237","69.23.117.183","Mozilla/5.0 (Macintosh; Intel Mac OS X 10_15_7) AppleWebKit/537.36 (KHTML, like Gecko) Chrome/116.0.0.0 Safari/537.36","Macintosh","Chrome","116.0.0.0","OS X","10_15_7","null","en,es-419;q=0.9,es;q=0.8,fr;q=0.7","true","null","<div style=""font-size:100px;"">X</div>","null","","","fixation","","","","","","","",""
"","","","","","audio-keyboard-response","199","435258","0.0-206.0","23","1","2023-10-21 19:33:33","a725c3012b74bf33a1020a98cb69c237","69.23.117.183","Mozilla/5.0 (Macintosh; Intel Mac OS X 10_15_7) AppleWebKit/537.36 (KHTML, like Gecko) Chrome/116.0.0.0 Safari/537.36","Macintosh","Chrome","116.0.0.0","OS X","10_15_7","null","en,es-419;q=0.9,es;q=0.8,fr;q=0.7","true","null","tones/440hz_short.mp3","null","","","tone_number_task","102.5","27","tones/440hz_short.mp3","252.5","100","0","30",""
"","","","","","html-keyboard-response","200","435600","0.0-209.0-0.0","23","1","2023-10-21 19:33:33","a725c3012b74bf33a1020a98cb69c237","69.23.117.183","Mozilla/5.0 (Macintosh; Intel Mac OS X 10_15_7) AppleWebKit/537.36 (KHTML, like Gecko) Chrome/116.0.0.0 Safari/537.36","Macintosh","Chrome","116.0.0.0","OS X","10_15_7","null","en,es-419;q=0.9,es;q=0.8,fr;q=0.7","true","337","tones/440hz_short.mp3","a","","","empty_block","","27","","","","0","30",""
"","","","","","html-keyboard-response","201","435743","0.0-209.0-1.0","23","1","2023-10-21 19:33:33","a725c3012b74bf33a1020a98cb69c237","69.23.117.183","Mozilla/5.0 (Macintosh; Intel Mac OS X 10_15_7) AppleWebKit/537.36 (KHTML, like Gecko) Chrome/116.0.0.0 Safari/537.36","Macintosh","Chrome","116.0.0.0","OS X","10_15_7","null","en,es-419;q=0.9,es;q=0.8,fr;q=0.7","true","138","tones/440hz_short.mp3","j","","","empty_block","","27","","","","0","30",""
"","","","","","html-keyboard-response","202","438634","0.0-211.0","23","1","2023-10-21 19:33:33","a725c3012b74bf33a1020a98cb69c237","69.23.117.183","Mozilla/5.0 (Macintosh; Intel Mac OS X 10_15_7) AppleWebKit/537.36 (KHTML, like Gecko) Chrome/116.0.0.0 Safari/537.36","Macintosh","Chrome","116.0.0.0","OS X","10_15_7","null","en,es-419;q=0.9,es;q=0.8,fr;q=0.7","true","null","<div style=""font-size:100px;"">X</div>","null","","","fixation","","","","","","","",""
"","","","","","audio-keyboard-response","203","438794","0.0-212.0","23","1","2023-10-21 19:33:33","a725c3012b74bf33a1020a98cb69c237","69.23.117.183","Mozilla/5.0 (Macintosh; Intel Mac OS X 10_15_7) AppleWebKit/537.36 (KHTML, like Gecko) Chrome/116.0.0.0 Safari/537.36","Macintosh","Chrome","116.0.0.0","OS X","10_15_7","null","en,es-419;q=0.9,es;q=0.8,fr;q=0.7","true","null","tones/440hz_short.mp3","null","","","tone_number_task","0","66","tones/440hz_short.mp3","150","100","0","31",""
"","","","","","html-keyboard-response","204","439631","0.0-215.0-0.0","23","1","2023-10-21 19:33:33","a725c3012b74bf33a1020a98cb69c237","69.23.117.183","Mozilla/5.0 (Macintosh; Intel Mac OS X 10_15_7) AppleWebKit/537.36 (KHTML, like Gecko) Chrome/116.0.0.0 Safari/537.36","Macintosh","Chrome","116.0.0.0","OS X","10_15_7","null","en,es-419;q=0.9,es;q=0.8,fr;q=0.7","true","831","tones/440hz_short.mp3","a","","","empty_block","","66","","","","0","31",""
"","","","","","html-keyboard-response","205","440055","0.0-215.0-1.0","23","1","2023-10-21 19:33:33","a725c3012b74bf33a1020a98cb69c237","69.23.117.183","Mozilla/5.0 (Macintosh; Intel Mac OS X 10_15_7) AppleWebKit/537.36 (KHTML, like Gecko) Chrome/116.0.0.0 Safari/537.36","Macintosh","Chrome","116.0.0.0","OS X","10_15_7","null","en,es-419;q=0.9,es;q=0.8,fr;q=0.7","true","418","tones/440hz_short.mp3","k","","","empty_block","","66","","","","0","31",""
"","","","","","html-keyboard-response","206","442956","0.0-217.0","23","1","2023-10-21 19:33:33","a725c3012b74bf33a1020a98cb69c237","69.23.117.183","Mozilla/5.0 (Macintosh; Intel Mac OS X 10_15_7) AppleWebKit/537.36 (KHTML, like Gecko) Chrome/116.0.0.0 Safari/537.36","Macintosh","Chrome","116.0.0.0","OS X","10_15_7","null","en,es-419;q=0.9,es;q=0.8,fr;q=0.7","true","null","<div style=""font-size:100px;"">X</div>","null","","","fixation","","","","","","","",""
