"success","timeout","failed_images","failed_audio","failed_video","trial_type","trial_index","time_elapsed","internal_node_id","run_id","condition","recorded_at","source_code_version","ip","user_agent","device","browser","browser_version","platform","platform_version","referer","accept_language","check","rt","stimulus","response","question_order","url","task","delay","number","audioFile","trial_duration","font_size","block","round","value"
"true","false","[]","[]","[]","preload","0","1034","0.0-0.0","38","1","2023-10-31 21:10:18","a725c3012b74bf33a1020a98cb69c237","24.232.215.58","Mozilla/5.0 (Macintosh; Intel Mac OS X 10_15_7) AppleWebKit/537.36 (KHTML, like Gecko) Chrome/118.0.0.0 Safari/537.36","Macintosh","Chrome","118.0.0.0","OS X","10_15_7","null","en-US,en;q=0.9","true","","","","","","","","","","","","","",""
"true","","","","","fullscreen","1","21251","0.0-1.0","38","1","2023-10-31 21:10:18","a725c3012b74bf33a1020a98cb69c237","24.232.215.58","Mozilla/5.0 (Macintosh; Intel Mac OS X 10_15_7) AppleWebKit/537.36 (KHTML, like Gecko) Chrome/118.0.0.0 Safari/537.36","Macintosh","Chrome","118.0.0.0","OS X","10_15_7","null","en-US,en;q=0.9","true","","","","","","","","","","","","","",""
"","","","","","html-button-response","2","23805","0.0-2.0","38","1","2023-10-31 21:10:18","a725c3012b74bf33a1020a98cb69c237","24.232.215.58","Mozilla/5.0 (Macintosh; Intel Mac OS X 10_15_7) AppleWebKit/537.36 (KHTML, like Gecko) Chrome/118.0.0.0 Safari/537.36","Macintosh","Chrome","118.0.0.0","OS X","10_15_7","null","en-US,en;q=0.9","true","2551","<p style=""font-size:24px; color:red;"">Cosas importantes a tener en cuenta antes de comenzar el experimento:</p>","0","","","","","","","","","","",""
"","","","","","html-button-response","3","29227","0.0-3.0","38","1","2023-10-31 21:10:18","a725c3012b74bf33a1020a98cb69c237","24.232.215.58","Mozilla/5.0 (Macintosh; Intel Mac OS X 10_15_7) AppleWebKit/537.36 (KHTML, like Gecko) Chrome/118.0.0.0 Safari/537.36","Macintosh","Chrome","118.0.0.0","OS X","10_15_7","null","en-US,en;q=0.9","true","5420","<p style=""font-size:24px;"">El experimento dura aproximadamente 15 minutos.</p><p style=""font-size:24px;"">Por favor, no cierres la ventana del navegador durante el experimento.</p><p style=""font-size:24px;"">Si se completa de forma parcial, no se guardará ningún resultado.</p>","0","","","","","","","","","","",""
"","","","","","html-button-response","4","45744","0.0-4.0","38","1","2023-10-31 21:10:18","a725c3012b74bf33a1020a98cb69c237","24.232.215.58","Mozilla/5.0 (Macintosh; Intel Mac OS X 10_15_7) AppleWebKit/537.36 (KHTML, like Gecko) Chrome/118.0.0.0 Safari/537.36","Macintosh","Chrome","118.0.0.0","OS X","10_15_7","null","en-US,en;q=0.9","true","16514","<p style=""font-size:24px;"">El experimento contiene estímulos sonoros.</p>","0","","","","","","","","","","",""
"","","","","","audio-button-response","5","49098","0.0-5.0-0.0","38","1","2023-10-31 21:10:18","a725c3012b74bf33a1020a98cb69c237","24.232.215.58","Mozilla/5.0 (Macintosh; Intel Mac OS X 10_15_7) AppleWebKit/537.36 (KHTML, like Gecko) Chrome/118.0.0.0 Safari/537.36","Macintosh","Chrome","118.0.0.0","OS X","10_15_7","null","en-US,en;q=0.9","true","3222","tones/440hz_short.mp3","1","","","","","","","","","","",""
"","","","","","audio-button-response","6","50371","0.0-6.0-0.0","38","1","2023-10-31 21:10:18","a725c3012b74bf33a1020a98cb69c237","24.232.215.58","Mozilla/5.0 (Macintosh; Intel Mac OS X 10_15_7) AppleWebKit/537.36 (KHTML, like Gecko) Chrome/118.0.0.0 Safari/537.36","Macintosh","Chrome","118.0.0.0","OS X","10_15_7","null","en-US,en;q=0.9","true","1265","tones/880hz_short.mp3","1","","","","","","","","","","",""
"","","","","","survey-html-form","7","54422","0.0-7.0","38","1","2023-10-31 21:10:18","a725c3012b74bf33a1020a98cb69c237","24.232.215.58","Mozilla/5.0 (Macintosh; Intel Mac OS X 10_15_7) AppleWebKit/537.36 (KHTML, like Gecko) Chrome/118.0.0.0 Safari/537.36","Macintosh","Chrome","118.0.0.0","OS X","10_15_7","null","en-US,en;q=0.9","true","4044","","{""response"":""30""}","","","","","","","","","","",""
"","","","","","survey-multi-choice","8","60696","0.0-8.0","38","1","2023-10-31 21:10:18","a725c3012b74bf33a1020a98cb69c237","24.232.215.58","Mozilla/5.0 (Macintosh; Intel Mac OS X 10_15_7) AppleWebKit/537.36 (KHTML, like Gecko) Chrome/118.0.0.0 Safari/537.36","Macintosh","Chrome","118.0.0.0","OS X","10_15_7","null","en-US,en;q=0.9","true","6271","","{""gender"":""Hombre"",""hand"":""Derecha""}","[0,1]","","","","","","","","","",""
"","","","","","external-html","9","103127","0.0-9.0","38","1","2023-10-31 21:10:18","a725c3012b74bf33a1020a98cb69c237","24.232.215.58","Mozilla/5.0 (Macintosh; Intel Mac OS X 10_15_7) AppleWebKit/537.36 (KHTML, like Gecko) Chrome/118.0.0.0 Safari/537.36","Macintosh","Chrome","118.0.0.0","OS X","10_15_7","null","en-US,en;q=0.9","true","41159","","","","instructions/instructions.html","","","","","","","","",""
"","","","","","external-html","10","133746","0.0-10.0","38","1","2023-10-31 21:10:18","a725c3012b74bf33a1020a98cb69c237","24.232.215.58","Mozilla/5.0 (Macintosh; Intel Mac OS X 10_15_7) AppleWebKit/537.36 (KHTML, like Gecko) Chrome/118.0.0.0 Safari/537.36","Macintosh","Chrome","118.0.0.0","OS X","10_15_7","null","en-US,en;q=0.9","true","29126","","","","instructions/animation.html","","","","","","","","",""
"","","","","","html-keyboard-response","11","136698","0.0-11.0-0.0","38","1","2023-10-31 21:10:18","a725c3012b74bf33a1020a98cb69c237","24.232.215.58","Mozilla/5.0 (Macintosh; Intel Mac OS X 10_15_7) AppleWebKit/537.36 (KHTML, like Gecko) Chrome/118.0.0.0 Safari/537.36","Macintosh","Chrome","118.0.0.0","OS X","10_15_7","null","en-US,en;q=0.9","true","null","<div style=""font-size:100px;"">X</div>","null","","","fixation","","","","","","","",""
"","","","","","audio-keyboard-response","12","137421","0.0-11.0-1.0","38","1","2023-10-31 21:10:18","a725c3012b74bf33a1020a98cb69c237","24.232.215.58","Mozilla/5.0 (Macintosh; Intel Mac OS X 10_15_7) AppleWebKit/537.36 (KHTML, like Gecko) Chrome/118.0.0.0 Safari/537.36","Macintosh","Chrome","118.0.0.0","OS X","10_15_7","null","en-US,en;q=0.9","true","604","tones/440hz_short.mp3","a","","","tone_number_task","1000","42","tones/440hz_short.mp3","1150","100","null","null",""
"","","","","","html-keyboard-response","13","137824","0.0-11.0-2.0-0.0","38","1","2023-10-31 21:10:18","a725c3012b74bf33a1020a98cb69c237","24.232.215.58","Mozilla/5.0 (Macintosh; Intel Mac OS X 10_15_7) AppleWebKit/537.36 (KHTML, like Gecko) Chrome/118.0.0.0 Safari/537.36","Macintosh","Chrome","118.0.0.0","OS X","10_15_7","null","en-US,en;q=0.9","true","null","","null","","","delay_block","","","","","","null","null",""
"","","","","","html-keyboard-response","14","137983","0.0-11.0-2.0-1.0","38","1","2023-10-31 21:10:18","a725c3012b74bf33a1020a98cb69c237","24.232.215.58","Mozilla/5.0 (Macintosh; Intel Mac OS X 10_15_7) AppleWebKit/537.36 (KHTML, like Gecko) Chrome/118.0.0.0 Safari/537.36","Macintosh","Chrome","118.0.0.0","OS X","10_15_7","null","en-US,en;q=0.9","true","null","<p id=""stimulus"" style=""font-size:100px;"">42</p>","null","","","tone_number_task_remaining_before_delay","","42","","546","100","null","null",""
"","","","","","html-keyboard-response","15","138625","0.0-11.0-5.0-0.0","38","1","2023-10-31 21:10:18","a725c3012b74bf33a1020a98cb69c237","24.232.215.58","Mozilla/5.0 (Macintosh; Intel Mac OS X 10_15_7) AppleWebKit/537.36 (KHTML, like Gecko) Chrome/118.0.0.0 Safari/537.36","Macintosh","Chrome","118.0.0.0","OS X","10_15_7","null","en-US,en;q=0.9","true","638","<p id=""stimulus"" style=""font-size:100px;"">42</p>","j","","","empty_block","","42","","","","null","null",""
"","","","","","html-keyboard-response","16","141573","0.0-13.0-0.0","38","1","2023-10-31 21:10:18","a725c3012b74bf33a1020a98cb69c237","24.232.215.58","Mozilla/5.0 (Macintosh; Intel Mac OS X 10_15_7) AppleWebKit/537.36 (KHTML, like Gecko) Chrome/118.0.0.0 Safari/537.36","Macintosh","Chrome","118.0.0.0","OS X","10_15_7","null","en-US,en;q=0.9","true","null","<div style=""font-size:100px;"">X</div>","null","","","fixation","","","","","","","",""
"","","","","","audio-keyboard-response","17","142232","0.0-13.0-1.0","38","1","2023-10-31 21:10:18","a725c3012b74bf33a1020a98cb69c237","24.232.215.58","Mozilla/5.0 (Macintosh; Intel Mac OS X 10_15_7) AppleWebKit/537.36 (KHTML, like Gecko) Chrome/118.0.0.0 Safari/537.36","Macintosh","Chrome","118.0.0.0","OS X","10_15_7","null","en-US,en;q=0.9","true","null","tones/880hz_short.mp3","null","","","tone_number_task","500","60","tones/880hz_short.mp3","650","100","null","null",""
"","","","","","html-keyboard-response","18","142238","0.0-13.0-4.0-0.0","38","1","2023-10-31 21:10:18","a725c3012b74bf33a1020a98cb69c237","24.232.215.58","Mozilla/5.0 (Macintosh; Intel Mac OS X 10_15_7) AppleWebKit/537.36 (KHTML, like Gecko) Chrome/118.0.0.0 Safari/537.36","Macintosh","Chrome","118.0.0.0","OS X","10_15_7","null","en-US,en;q=0.9","true","3","tones/880hz_short.mp3","s","","","empty_block","","60","","","","null","null",""
"","","","","","html-keyboard-response","19","142886","0.0-13.0-4.0-1.0","38","1","2023-10-31 21:10:18","a725c3012b74bf33a1020a98cb69c237","24.232.215.58","Mozilla/5.0 (Macintosh; Intel Mac OS X 10_15_7) AppleWebKit/537.36 (KHTML, like Gecko) Chrome/118.0.0.0 Safari/537.36","Macintosh","Chrome","118.0.0.0","OS X","10_15_7","null","en-US,en;q=0.9","true","646","tones/880hz_short.mp3","k","","","empty_block","","60","","","","null","null",""
"","","","","","html-keyboard-response","20","145834","0.0-15.0-0.0","38","1","2023-10-31 21:10:18","a725c3012b74bf33a1020a98cb69c237","24.232.215.58","Mozilla/5.0 (Macintosh; Intel Mac OS X 10_15_7) AppleWebKit/537.36 (KHTML, like Gecko) Chrome/118.0.0.0 Safari/537.36","Macintosh","Chrome","118.0.0.0","OS X","10_15_7","null","en-US,en;q=0.9","true","null","<div style=""font-size:100px;"">X</div>","null","","","fixation","","","","","","","",""
"","","","","","audio-keyboard-response","21","146144","0.0-15.0-1.0","38","1","2023-10-31 21:10:18","a725c3012b74bf33a1020a98cb69c237","24.232.215.58","Mozilla/5.0 (Macintosh; Intel Mac OS X 10_15_7) AppleWebKit/537.36 (KHTML, like Gecko) Chrome/118.0.0.0 Safari/537.36","Macintosh","Chrome","118.0.0.0","OS X","10_15_7","null","en-US,en;q=0.9","true","null","tones/440hz_short.mp3","null","","","tone_number_task","150","66","tones/440hz_short.mp3","300","100","null","null",""
"","","","","","html-keyboard-response","22","146375","0.0-15.0-4.0-0.0","38","1","2023-10-31 21:10:18","a725c3012b74bf33a1020a98cb69c237","24.232.215.58","Mozilla/5.0 (Macintosh; Intel Mac OS X 10_15_7) AppleWebKit/537.36 (KHTML, like Gecko) Chrome/118.0.0.0 Safari/537.36","Macintosh","Chrome","118.0.0.0","OS X","10_15_7","null","en-US,en;q=0.9","true","228","tones/440hz_short.mp3","a","","","empty_block","","66","","","","null","null",""
"","","","","","html-keyboard-response","23","146957","0.0-15.0-4.0-1.0","38","1","2023-10-31 21:10:18","a725c3012b74bf33a1020a98cb69c237","24.232.215.58","Mozilla/5.0 (Macintosh; Intel Mac OS X 10_15_7) AppleWebKit/537.36 (KHTML, like Gecko) Chrome/118.0.0.0 Safari/537.36","Macintosh","Chrome","118.0.0.0","OS X","10_15_7","null","en-US,en;q=0.9","true","578","tones/440hz_short.mp3","k","","","empty_block","","66","","","","null","null",""
"","","","","","html-keyboard-response","24","149901","0.0-17.0-0.0","38","1","2023-10-31 21:10:18","a725c3012b74bf33a1020a98cb69c237","24.232.215.58","Mozilla/5.0 (Macintosh; Intel Mac OS X 10_15_7) AppleWebKit/537.36 (KHTML, like Gecko) Chrome/118.0.0.0 Safari/537.36","Macintosh","Chrome","118.0.0.0","OS X","10_15_7","null","en-US,en;q=0.9","true","null","<div style=""font-size:100px;"">X</div>","null","","","fixation","","","","","","","",""
"","","","","","audio-keyboard-response","25","150110","0.0-17.0-1.0","38","1","2023-10-31 21:10:18","a725c3012b74bf33a1020a98cb69c237","24.232.215.58","Mozilla/5.0 (Macintosh; Intel Mac OS X 10_15_7) AppleWebKit/537.36 (KHTML, like Gecko) Chrome/118.0.0.0 Safari/537.36","Macintosh","Chrome","118.0.0.0","OS X","10_15_7","null","en-US,en;q=0.9","true","null","tones/880hz_short.mp3","null","","","tone_number_task","50","54","tones/880hz_short.mp3","200","100","null","null",""
"","","","","","html-keyboard-response","26","150474","0.0-17.0-4.0-0.0","38","1","2023-10-31 21:10:18","a725c3012b74bf33a1020a98cb69c237","24.232.215.58","Mozilla/5.0 (Macintosh; Intel Mac OS X 10_15_7) AppleWebKit/537.36 (KHTML, like Gecko) Chrome/118.0.0.0 Safari/537.36","Macintosh","Chrome","118.0.0.0","OS X","10_15_7","null","en-US,en;q=0.9","true","360","tones/880hz_short.mp3","s","","","empty_block","","54","","","","null","null",""
"","","","","","html-keyboard-response","27","150995","0.0-17.0-4.0-1.0","38","1","2023-10-31 21:10:18","a725c3012b74bf33a1020a98cb69c237","24.232.215.58","Mozilla/5.0 (Macintosh; Intel Mac OS X 10_15_7) AppleWebKit/537.36 (KHTML, like Gecko) Chrome/118.0.0.0 Safari/537.36","Macintosh","Chrome","118.0.0.0","OS X","10_15_7","null","en-US,en;q=0.9","true","519","tones/880hz_short.mp3","j","","","empty_block","","54","","","","null","null",""
"","","","","","html-button-response","28","158308","0.0-17.0-6.0-0.0","38","1","2023-10-31 21:10:18","a725c3012b74bf33a1020a98cb69c237","24.232.215.58","Mozilla/5.0 (Macintosh; Intel Mac OS X 10_15_7) AppleWebKit/537.36 (KHTML, like Gecko) Chrome/118.0.0.0 Safari/537.36","Macintosh","Chrome","118.0.0.0","OS X","10_15_7","null","en-US,en;q=0.9","true","7309","
  '<p style=""font-size:24px; color:red;"">Incorrecto</p><p> Respondiste alguno de los estímulos de manera incorrecta.</p><p>Por favor, repasá las instrucciones y seguimos desde donde nos quedamos. </p>
  ","0","","","","","","","","","","",""
"","","","","","external-html","29","164799","0.0-17.0-6.0-1.0","38","1","2023-10-31 21:10:18","a725c3012b74bf33a1020a98cb69c237","24.232.215.58","Mozilla/5.0 (Macintosh; Intel Mac OS X 10_15_7) AppleWebKit/537.36 (KHTML, like Gecko) Chrome/118.0.0.0 Safari/537.36","Macintosh","Chrome","118.0.0.0","OS X","10_15_7","null","en-US,en;q=0.9","true","5038","","","","instructions/instructions_B.html","","","","","","","","",""
"","","","","","html-keyboard-response","30","167750","0.0-17.1-0.1","38","1","2023-10-31 21:10:18","a725c3012b74bf33a1020a98cb69c237","24.232.215.58","Mozilla/5.0 (Macintosh; Intel Mac OS X 10_15_7) AppleWebKit/537.36 (KHTML, like Gecko) Chrome/118.0.0.0 Safari/537.36","Macintosh","Chrome","118.0.0.0","OS X","10_15_7","null","en-US,en;q=0.9","true","null","<div style=""font-size:100px;"">X</div>","null","","","fixation","","","","","","","",""
"","","","","","audio-keyboard-response","31","167960","0.0-17.1-1.1","38","1","2023-10-31 21:10:18","a725c3012b74bf33a1020a98cb69c237","24.232.215.58","Mozilla/5.0 (Macintosh; Intel Mac OS X 10_15_7) AppleWebKit/537.36 (KHTML, like Gecko) Chrome/118.0.0.0 Safari/537.36","Macintosh","Chrome","118.0.0.0","OS X","10_15_7","null","en-US,en;q=0.9","true","null","tones/880hz_short.mp3","null","","","tone_number_task","50","54","tones/880hz_short.mp3","200","100","null","null",""
"","","","","","html-keyboard-response","32","169399","0.0-17.1-4.1-0.1","38","1","2023-10-31 21:10:18","a725c3012b74bf33a1020a98cb69c237","24.232.215.58","Mozilla/5.0 (Macintosh; Intel Mac OS X 10_15_7) AppleWebKit/537.36 (KHTML, like Gecko) Chrome/118.0.0.0 Safari/537.36","Macintosh","Chrome","118.0.0.0","OS X","10_15_7","null","en-US,en;q=0.9","true","1436","tones/880hz_short.mp3","s","","","empty_block","","54","","","","null","null",""
"","","","","","html-keyboard-response","33","169410","0.0-17.1-4.1-1.1","38","1","2023-10-31 21:10:18","a725c3012b74bf33a1020a98cb69c237","24.232.215.58","Mozilla/5.0 (Macintosh; Intel Mac OS X 10_15_7) AppleWebKit/537.36 (KHTML, like Gecko) Chrome/118.0.0.0 Safari/537.36","Macintosh","Chrome","118.0.0.0","OS X","10_15_7","null","en-US,en;q=0.9","true","10","tones/880hz_short.mp3","k","","","empty_block","","54","","","","null","null",""
"","","","","","html-button-response","34","179676","0.0-19.0","38","1","2023-10-31 21:10:18","a725c3012b74bf33a1020a98cb69c237","24.232.215.58","Mozilla/5.0 (Macintosh; Intel Mac OS X 10_15_7) AppleWebKit/537.36 (KHTML, like Gecko) Chrome/118.0.0.0 Safari/537.36","Macintosh","Chrome","118.0.0.0","OS X","10_15_7","null","en-US,en;q=0.9","true","10264","
  <h1> Muy bien </h1>
  <p> Ahora, en vez de ser presentados en dígitos, los números vendrán escritos en palabras. </p>
  <p> Por ejemplo, en vez de 44 te aparecerá ""cuarenta y cuatro"". </p>
  ","0","","","","","","","","","","",""
"","","","","","html-keyboard-response","35","182622","0.0-20.0-0.0","38","1","2023-10-31 21:10:18","a725c3012b74bf33a1020a98cb69c237","24.232.215.58","Mozilla/5.0 (Macintosh; Intel Mac OS X 10_15_7) AppleWebKit/537.36 (KHTML, like Gecko) Chrome/118.0.0.0 Safari/537.36","Macintosh","Chrome","118.0.0.0","OS X","10_15_7","null","en-US,en;q=0.9","true","null","<div style=""font-size:100px;"">X</div>","null","","","fixation","","","","","","","",""
"","","","","","audio-keyboard-response","36","183328","0.0-20.0-1.0","38","1","2023-10-31 21:10:18","a725c3012b74bf33a1020a98cb69c237","24.232.215.58","Mozilla/5.0 (Macintosh; Intel Mac OS X 10_15_7) AppleWebKit/537.36 (KHTML, like Gecko) Chrome/118.0.0.0 Safari/537.36","Macintosh","Chrome","118.0.0.0","OS X","10_15_7","null","en-US,en;q=0.9","true","702","tones/440hz_short.mp3","a","","","tone_number_task","1000","treinta y dos","tones/440hz_short.mp3","1150","60","null","null",""
"","","","","","html-keyboard-response","37","183632","0.0-20.0-2.0-0.0","38","1","2023-10-31 21:10:18","a725c3012b74bf33a1020a98cb69c237","24.232.215.58","Mozilla/5.0 (Macintosh; Intel Mac OS X 10_15_7) AppleWebKit/537.36 (KHTML, like Gecko) Chrome/118.0.0.0 Safari/537.36","Macintosh","Chrome","118.0.0.0","OS X","10_15_7","null","en-US,en;q=0.9","true","null","","null","","","delay_block","","","","","","null","null",""
"","","","","","html-keyboard-response","38","183791","0.0-20.0-2.0-1.0","38","1","2023-10-31 21:10:18","a725c3012b74bf33a1020a98cb69c237","24.232.215.58","Mozilla/5.0 (Macintosh; Intel Mac OS X 10_15_7) AppleWebKit/537.36 (KHTML, like Gecko) Chrome/118.0.0.0 Safari/537.36","Macintosh","Chrome","118.0.0.0","OS X","10_15_7","null","en-US,en;q=0.9","true","null","<p id=""stimulus"" style=""font-size:60px;"">treinta y dos</p>","null","","","tone_number_task_remaining_before_delay","","treinta y dos","","448","60","null","null",""
"","","","","","html-keyboard-response","39","184511","0.0-20.0-5.0-0.0","38","1","2023-10-31 21:10:18","a725c3012b74bf33a1020a98cb69c237","24.232.215.58","Mozilla/5.0 (Macintosh; Intel Mac OS X 10_15_7) AppleWebKit/537.36 (KHTML, like Gecko) Chrome/118.0.0.0 Safari/537.36","Macintosh","Chrome","118.0.0.0","OS X","10_15_7","null","en-US,en;q=0.9","true","716","<p id=""stimulus"" style=""font-size:60px;"">treinta y dos</p>","j","","","empty_block","","treinta y dos","","","","null","null",""
"","","","","","html-button-response","40","203379","0.0-22.0","38","1","2023-10-31 21:10:18","a725c3012b74bf33a1020a98cb69c237","24.232.215.58","Mozilla/5.0 (Macintosh; Intel Mac OS X 10_15_7) AppleWebKit/537.36 (KHTML, like Gecko) Chrome/118.0.0.0 Safari/537.36","Macintosh","Chrome","118.0.0.0","OS X","10_15_7","null","en-US,en;q=0.9","true","18865","
  <h1> Fin del Entrenamiento </h1>
  <p> ¡Felicitaciones, terminaste el entrenamiento! Ahora vamos a comenzar con el experimento. </p>
  <p> Es importante tener en cuenta que consta de cuatro bloques.</p>
  <p> Podés aprovechar los momentos entre bloques para tomar un breve descanso o tomar agua entre cada uno</p>
  <p> Recordá que tenés que responder lo más rápido que puedas, pero sin equivocarte. </p>
  ","0","","","","","","","","","","",""
"","","","","","external-html","41","211030","0.0-23.0","38","1","2023-10-31 21:10:18","a725c3012b74bf33a1020a98cb69c237","24.232.215.58","Mozilla/5.0 (Macintosh; Intel Mac OS X 10_15_7) AppleWebKit/537.36 (KHTML, like Gecko) Chrome/118.0.0.0 Safari/537.36","Macintosh","Chrome","118.0.0.0","OS X","10_15_7","null","en-US,en;q=0.9","true","6585","","","","instructions/instructions_digits_first.html","","","","","","","","",""
"","","","","","call-function","42","211035","0.0-24.0","38","1","2023-10-31 21:10:18","a725c3012b74bf33a1020a98cb69c237","24.232.215.58","Mozilla/5.0 (Macintosh; Intel Mac OS X 10_15_7) AppleWebKit/537.36 (KHTML, like Gecko) Chrome/118.0.0.0 Safari/537.36","Macintosh","Chrome","118.0.0.0","OS X","10_15_7","null","en-US,en;q=0.9","true","","","","","","","","","","","","","",""
"","","","","","html-keyboard-response","43","213980","0.0-25.0","38","1","2023-10-31 21:10:18","a725c3012b74bf33a1020a98cb69c237","24.232.215.58","Mozilla/5.0 (Macintosh; Intel Mac OS X 10_15_7) AppleWebKit/537.36 (KHTML, like Gecko) Chrome/118.0.0.0 Safari/537.36","Macintosh","Chrome","118.0.0.0","OS X","10_15_7","null","en-US,en;q=0.9","true","null","<div style=""font-size:100px;"">X</div>","null","","","fixation","","","","","","","",""
"","","","","","audio-keyboard-response","44","214614","0.0-26.0","38","1","2023-10-31 21:10:18","a725c3012b74bf33a1020a98cb69c237","24.232.215.58","Mozilla/5.0 (Macintosh; Intel Mac OS X 10_15_7) AppleWebKit/537.36 (KHTML, like Gecko) Chrome/118.0.0.0 Safari/537.36","Macintosh","Chrome","118.0.0.0","OS X","10_15_7","null","en-US,en;q=0.9","true","627","tones/880hz_short.mp3","s","","","tone_number_task","1025","42","tones/880hz_short.mp3","1175","100","0","0",""
"","","","","","html-keyboard-response","45","215017","0.0-27.0-0.0","38","1","2023-10-31 21:10:18","a725c3012b74bf33a1020a98cb69c237","24.232.215.58","Mozilla/5.0 (Macintosh; Intel Mac OS X 10_15_7) AppleWebKit/537.36 (KHTML, like Gecko) Chrome/118.0.0.0 Safari/537.36","Macintosh","Chrome","118.0.0.0","OS X","10_15_7","null","en-US,en;q=0.9","true","null","","null","","","delay_block","","","","","","0","0",""
"","","","","","html-keyboard-response","46","215174","0.0-27.0-1.0","38","1","2023-10-31 21:10:18","a725c3012b74bf33a1020a98cb69c237","24.232.215.58","Mozilla/5.0 (Macintosh; Intel Mac OS X 10_15_7) AppleWebKit/537.36 (KHTML, like Gecko) Chrome/118.0.0.0 Safari/537.36","Macintosh","Chrome","118.0.0.0","OS X","10_15_7","null","en-US,en;q=0.9","true","null","<p id=""stimulus"" style=""font-size:100px;"">42</p>","null","","","tone_number_task_remaining_before_delay","","42","","548","100","0","0",""
"","","","","","html-keyboard-response","47","215538","0.0-30.0-0.0","38","1","2023-10-31 21:10:18","a725c3012b74bf33a1020a98cb69c237","24.232.215.58","Mozilla/5.0 (Macintosh; Intel Mac OS X 10_15_7) AppleWebKit/537.36 (KHTML, like Gecko) Chrome/118.0.0.0 Safari/537.36","Macintosh","Chrome","118.0.0.0","OS X","10_15_7","null","en-US,en;q=0.9","true","360","<p id=""stimulus"" style=""font-size:100px;"">42</p>","j","","","empty_block","","42","","","","0","0",""
"","","","","","html-keyboard-response","48","218485","0.0-31.0","38","1","2023-10-31 21:10:18","a725c3012b74bf33a1020a98cb69c237","24.232.215.58","Mozilla/5.0 (Macintosh; Intel Mac OS X 10_15_7) AppleWebKit/537.36 (KHTML, like Gecko) Chrome/118.0.0.0 Safari/537.36","Macintosh","Chrome","118.0.0.0","OS X","10_15_7","null","en-US,en;q=0.9","true","null","<div style=""font-size:100px;"">X</div>","null","","","fixation","","","","","","","",""
"","","","","","audio-keyboard-response","49","219187","0.0-32.0","38","1","2023-10-31 21:10:18","a725c3012b74bf33a1020a98cb69c237","24.232.215.58","Mozilla/5.0 (Macintosh; Intel Mac OS X 10_15_7) AppleWebKit/537.36 (KHTML, like Gecko) Chrome/118.0.0.0 Safari/537.36","Macintosh","Chrome","118.0.0.0","OS X","10_15_7","null","en-US,en;q=0.9","true","697","tones/440hz_short.mp3","a","","","tone_number_task","992.5","30","tones/440hz_short.mp3","1142.5","100","0","1",""
"","","","","","html-keyboard-response","50","219486","0.0-33.0-0.0","38","1","2023-10-31 21:10:18","a725c3012b74bf33a1020a98cb69c237","24.232.215.58","Mozilla/5.0 (Macintosh; Intel Mac OS X 10_15_7) AppleWebKit/537.36 (KHTML, like Gecko) Chrome/118.0.0.0 Safari/537.36","Macintosh","Chrome","118.0.0.0","OS X","10_15_7","null","en-US,en;q=0.9","true","null","","null","","","delay_block","","","","","","0","1",""
"","","","","","html-keyboard-response","51","219642","0.0-33.0-1.0","38","1","2023-10-31 21:10:18","a725c3012b74bf33a1020a98cb69c237","24.232.215.58","Mozilla/5.0 (Macintosh; Intel Mac OS X 10_15_7) AppleWebKit/537.36 (KHTML, like Gecko) Chrome/118.0.0.0 Safari/537.36","Macintosh","Chrome","118.0.0.0","OS X","10_15_7","null","en-US,en;q=0.9","true","null","<p id=""stimulus"" style=""font-size:100px;"">30</p>","null","","","tone_number_task_remaining_before_delay","","30","","445.5","100","0","1",""
"","","","","","html-keyboard-response","52","220027","0.0-36.0-0.0","38","1","2023-10-31 21:10:18","a725c3012b74bf33a1020a98cb69c237","24.232.215.58","Mozilla/5.0 (Macintosh; Intel Mac OS X 10_15_7) AppleWebKit/537.36 (KHTML, like Gecko) Chrome/118.0.0.0 Safari/537.36","Macintosh","Chrome","118.0.0.0","OS X","10_15_7","null","en-US,en;q=0.9","true","380","<p id=""stimulus"" style=""font-size:100px;"">30</p>","j","","","empty_block","","30","","","","0","1",""
"","","","","","html-keyboard-response","53","222974","0.0-37.0","38","1","2023-10-31 21:10:18","a725c3012b74bf33a1020a98cb69c237","24.232.215.58","Mozilla/5.0 (Macintosh; Intel Mac OS X 10_15_7) AppleWebKit/537.36 (KHTML, like Gecko) Chrome/118.0.0.0 Safari/537.36","Macintosh","Chrome","118.0.0.0","OS X","10_15_7","null","en-US,en;q=0.9","true","null","<div style=""font-size:100px;"">X</div>","null","","","fixation","","","","","","","",""
"","","","","","audio-keyboard-response","54","223131","0.0-38.0","38","1","2023-10-31 21:10:18","a725c3012b74bf33a1020a98cb69c237","24.232.215.58","Mozilla/5.0 (Macintosh; Intel Mac OS X 10_15_7) AppleWebKit/537.36 (KHTML, like Gecko) Chrome/118.0.0.0 Safari/537.36","Macintosh","Chrome","118.0.0.0","OS X","10_15_7","null","en-US,en;q=0.9","true","null","tones/440hz_short.mp3","null","","","tone_number_task","0","26","tones/440hz_short.mp3","150","100","0","2",""
"","","","","","html-keyboard-response","55","223605","0.0-41.0-0.0","38","1","2023-10-31 21:10:18","a725c3012b74bf33a1020a98cb69c237","24.232.215.58","Mozilla/5.0 (Macintosh; Intel Mac OS X 10_15_7) AppleWebKit/537.36 (KHTML, like Gecko) Chrome/118.0.0.0 Safari/537.36","Macintosh","Chrome","118.0.0.0","OS X","10_15_7","null","en-US,en;q=0.9","true","470","tones/440hz_short.mp3","a","","","empty_block","","26","","","","0","2",""
"","","","","","html-keyboard-response","56","223871","0.0-41.0-1.0","38","1","2023-10-31 21:10:18","a725c3012b74bf33a1020a98cb69c237","24.232.215.58","Mozilla/5.0 (Macintosh; Intel Mac OS X 10_15_7) AppleWebKit/537.36 (KHTML, like Gecko) Chrome/118.0.0.0 Safari/537.36","Macintosh","Chrome","118.0.0.0","OS X","10_15_7","null","en-US,en;q=0.9","true","263","tones/440hz_short.mp3","j","","","empty_block","","26","","","","0","2",""
"","","","","","html-keyboard-response","57","226817","0.0-43.0","38","1","2023-10-31 21:10:18","a725c3012b74bf33a1020a98cb69c237","24.232.215.58","Mozilla/5.0 (Macintosh; Intel Mac OS X 10_15_7) AppleWebKit/537.36 (KHTML, like Gecko) Chrome/118.0.0.0 Safari/537.36","Macintosh","Chrome","118.0.0.0","OS X","10_15_7","null","en-US,en;q=0.9","true","null","<div style=""font-size:100px;"">X</div>","null","","","fixation","","","","","","","",""
"","","","","","audio-keyboard-response","58","227078","0.0-44.0","38","1","2023-10-31 21:10:18","a725c3012b74bf33a1020a98cb69c237","24.232.215.58","Mozilla/5.0 (Macintosh; Intel Mac OS X 10_15_7) AppleWebKit/537.36 (KHTML, like Gecko) Chrome/118.0.0.0 Safari/537.36","Macintosh","Chrome","118.0.0.0","OS X","10_15_7","null","en-US,en;q=0.9","true","null","tones/880hz_short.mp3","null","","","tone_number_task","102.5","49","tones/880hz_short.mp3","252.5","100","0","3",""
"","","","","","html-keyboard-response","59","227642","0.0-47.0-0.0","38","1","2023-10-31 21:10:18","a725c3012b74bf33a1020a98cb69c237","24.232.215.58","Mozilla/5.0 (Macintosh; Intel Mac OS X 10_15_7) AppleWebKit/537.36 (KHTML, like Gecko) Chrome/118.0.0.0 Safari/537.36","Macintosh","Chrome","118.0.0.0","OS X","10_15_7","null","en-US,en;q=0.9","true","559","tones/880hz_short.mp3","s","","","empty_block","","49","","","","0","3",""
"","","","","","html-keyboard-response","60","227872","0.0-47.0-1.0","38","1","2023-10-31 21:10:18","a725c3012b74bf33a1020a98cb69c237","24.232.215.58","Mozilla/5.0 (Macintosh; Intel Mac OS X 10_15_7) AppleWebKit/537.36 (KHTML, like Gecko) Chrome/118.0.0.0 Safari/537.36","Macintosh","Chrome","118.0.0.0","OS X","10_15_7","null","en-US,en;q=0.9","true","227","tones/880hz_short.mp3","k","","","empty_block","","49","","","","0","3",""
"","","","","","html-keyboard-response","61","230820","0.0-49.0","38","1","2023-10-31 21:10:18","a725c3012b74bf33a1020a98cb69c237","24.232.215.58","Mozilla/5.0 (Macintosh; Intel Mac OS X 10_15_7) AppleWebKit/537.36 (KHTML, like Gecko) Chrome/118.0.0.0 Safari/537.36","Macintosh","Chrome","118.0.0.0","OS X","10_15_7","null","en-US,en;q=0.9","true","null","<div style=""font-size:100px;"">X</div>","null","","","fixation","","","","","","","",""
"","","","","","audio-keyboard-response","62","230978","0.0-50.0","38","1","2023-10-31 21:10:18","a725c3012b74bf33a1020a98cb69c237","24.232.215.58","Mozilla/5.0 (Macintosh; Intel Mac OS X 10_15_7) AppleWebKit/537.36 (KHTML, like Gecko) Chrome/118.0.0.0 Safari/537.36","Macintosh","Chrome","118.0.0.0","OS X","10_15_7","null","en-US,en;q=0.9","true","null","tones/440hz_short.mp3","null","","","tone_number_task","0","40","tones/440hz_short.mp3","150","100","0","4",""
"","","","","","html-keyboard-response","63","231453","0.0-53.0-0.0","38","1","2023-10-31 21:10:18","a725c3012b74bf33a1020a98cb69c237","24.232.215.58","Mozilla/5.0 (Macintosh; Intel Mac OS X 10_15_7) AppleWebKit/537.36 (KHTML, like Gecko) Chrome/118.0.0.0 Safari/537.36","Macintosh","Chrome","118.0.0.0","OS X","10_15_7","null","en-US,en;q=0.9","true","470","tones/440hz_short.mp3","a","","","empty_block","","40","","","","0","4",""
"","","","","","html-keyboard-response","64","231634","0.0-53.0-1.0","38","1","2023-10-31 21:10:18","a725c3012b74bf33a1020a98cb69c237","24.232.215.58","Mozilla/5.0 (Macintosh; Intel Mac OS X 10_15_7) AppleWebKit/537.36 (KHTML, like Gecko) Chrome/118.0.0.0 Safari/537.36","Macintosh","Chrome","118.0.0.0","OS X","10_15_7","null","en-US,en;q=0.9","true","178","tones/440hz_short.mp3","j","","","empty_block","","40","","","","0","4",""
"","","","","","html-keyboard-response","65","234584","0.0-55.0","38","1","2023-10-31 21:10:18","a725c3012b74bf33a1020a98cb69c237","24.232.215.58","Mozilla/5.0 (Macintosh; Intel Mac OS X 10_15_7) AppleWebKit/537.36 (KHTML, like Gecko) Chrome/118.0.0.0 Safari/537.36","Macintosh","Chrome","118.0.0.0","OS X","10_15_7","null","en-US,en;q=0.9","true","null","<div style=""font-size:100px;"">X</div>","null","","","fixation","","","","","","","",""
"","","","","","audio-keyboard-response","66","235241","0.0-56.0","38","1","2023-10-31 21:10:18","a725c3012b74bf33a1020a98cb69c237","24.232.215.58","Mozilla/5.0 (Macintosh; Intel Mac OS X 10_15_7) AppleWebKit/537.36 (KHTML, like Gecko) Chrome/118.0.0.0 Safari/537.36","Macintosh","Chrome","118.0.0.0","OS X","10_15_7","null","en-US,en;q=0.9","true","650","tones/440hz_short.mp3","a","","","tone_number_task","992.5","42","tones/440hz_short.mp3","1142.5","100","0","5",""
"","","","","","html-keyboard-response","67","235590","0.0-57.0-0.0","38","1","2023-10-31 21:10:18","a725c3012b74bf33a1020a98cb69c237","24.232.215.58","Mozilla/5.0 (Macintosh; Intel Mac OS X 10_15_7) AppleWebKit/537.36 (KHTML, like Gecko) Chrome/118.0.0.0 Safari/537.36","Macintosh","Chrome","118.0.0.0","OS X","10_15_7","null","en-US,en;q=0.9","true","null","","null","","","delay_block","","","","","","0","5",""
"","","","","","html-keyboard-response","68","235745","0.0-57.0-1.0","38","1","2023-10-31 21:10:18","a725c3012b74bf33a1020a98cb69c237","24.232.215.58","Mozilla/5.0 (Macintosh; Intel Mac OS X 10_15_7) AppleWebKit/537.36 (KHTML, like Gecko) Chrome/118.0.0.0 Safari/537.36","Macintosh","Chrome","118.0.0.0","OS X","10_15_7","null","en-US,en;q=0.9","true","null","<p id=""stimulus"" style=""font-size:100px;"">42</p>","null","","","tone_number_task_remaining_before_delay","","42","","492.5","100","0","5",""
"","","","","","html-keyboard-response","69","236306","0.0-60.0-0.0","38","1","2023-10-31 21:10:18","a725c3012b74bf33a1020a98cb69c237","24.232.215.58","Mozilla/5.0 (Macintosh; Intel Mac OS X 10_15_7) AppleWebKit/537.36 (KHTML, like Gecko) Chrome/118.0.0.0 Safari/537.36","Macintosh","Chrome","118.0.0.0","OS X","10_15_7","null","en-US,en;q=0.9","true","556","<p id=""stimulus"" style=""font-size:100px;"">42</p>","j","","","empty_block","","42","","","","0","5",""
"","","","","","html-keyboard-response","70","239250","0.0-61.0","38","1","2023-10-31 21:10:18","a725c3012b74bf33a1020a98cb69c237","24.232.215.58","Mozilla/5.0 (Macintosh; Intel Mac OS X 10_15_7) AppleWebKit/537.36 (KHTML, like Gecko) Chrome/118.0.0.0 Safari/537.36","Macintosh","Chrome","118.0.0.0","OS X","10_15_7","null","en-US,en;q=0.9","true","null","<div style=""font-size:100px;"">X</div>","null","","","fixation","","","","","","","",""
"","","","","","audio-keyboard-response","71","239836","0.0-62.0","38","1","2023-10-31 21:10:18","a725c3012b74bf33a1020a98cb69c237","24.232.215.58","Mozilla/5.0 (Macintosh; Intel Mac OS X 10_15_7) AppleWebKit/537.36 (KHTML, like Gecko) Chrome/118.0.0.0 Safari/537.36","Macintosh","Chrome","118.0.0.0","OS X","10_15_7","null","en-US,en;q=0.9","true","580","tones/880hz_short.mp3","s","","","tone_number_task","992.5","34","tones/880hz_short.mp3","1142.5","100","0","6",""
"","","","","","html-keyboard-response","72","240254","0.0-63.0-0.0","38","1","2023-10-31 21:10:18","a725c3012b74bf33a1020a98cb69c237","24.232.215.58","Mozilla/5.0 (Macintosh; Intel Mac OS X 10_15_7) AppleWebKit/537.36 (KHTML, like Gecko) Chrome/118.0.0.0 Safari/537.36","Macintosh","Chrome","118.0.0.0","OS X","10_15_7","null","en-US,en;q=0.9","true","null","","null","","","delay_block","","","","","","0","6",""
"","","","","","html-keyboard-response","73","240412","0.0-63.0-1.0","38","1","2023-10-31 21:10:18","a725c3012b74bf33a1020a98cb69c237","24.232.215.58","Mozilla/5.0 (Macintosh; Intel Mac OS X 10_15_7) AppleWebKit/537.36 (KHTML, like Gecko) Chrome/118.0.0.0 Safari/537.36","Macintosh","Chrome","118.0.0.0","OS X","10_15_7","null","en-US,en;q=0.9","true","null","<p id=""stimulus"" style=""font-size:100px;"">34</p>","null","","","tone_number_task_remaining_before_delay","","34","","562.5","100","0","6",""
"","","","","","html-keyboard-response","74","240843","0.0-66.0-0.0","38","1","2023-10-31 21:10:18","a725c3012b74bf33a1020a98cb69c237","24.232.215.58","Mozilla/5.0 (Macintosh; Intel Mac OS X 10_15_7) AppleWebKit/537.36 (KHTML, like Gecko) Chrome/118.0.0.0 Safari/537.36","Macintosh","Chrome","118.0.0.0","OS X","10_15_7","null","en-US,en;q=0.9","true","427","<p id=""stimulus"" style=""font-size:100px;"">34</p>","j","","","empty_block","","34","","","","0","6",""
"","","","","","html-keyboard-response","75","243791","0.0-67.0","38","1","2023-10-31 21:10:18","a725c3012b74bf33a1020a98cb69c237","24.232.215.58","Mozilla/5.0 (Macintosh; Intel Mac OS X 10_15_7) AppleWebKit/537.36 (KHTML, like Gecko) Chrome/118.0.0.0 Safari/537.36","Macintosh","Chrome","118.0.0.0","OS X","10_15_7","null","en-US,en;q=0.9","true","null","<div style=""font-size:100px;"">X</div>","null","","","fixation","","","","","","","",""
"","","","","","audio-keyboard-response","76","244433","0.0-68.0","38","1","2023-10-31 21:10:18","a725c3012b74bf33a1020a98cb69c237","24.232.215.58","Mozilla/5.0 (Macintosh; Intel Mac OS X 10_15_7) AppleWebKit/537.36 (KHTML, like Gecko) Chrome/118.0.0.0 Safari/537.36","Macintosh","Chrome","118.0.0.0","OS X","10_15_7","null","en-US,en;q=0.9","true","633","tones/440hz_short.mp3","a","","","tone_number_task","1025","62","tones/440hz_short.mp3","1175","100","0","7",""
"","","","","","html-keyboard-response","77","244831","0.0-69.0-0.0","38","1","2023-10-31 21:10:18","a725c3012b74bf33a1020a98cb69c237","24.232.215.58","Mozilla/5.0 (Macintosh; Intel Mac OS X 10_15_7) AppleWebKit/537.36 (KHTML, like Gecko) Chrome/118.0.0.0 Safari/537.36","Macintosh","Chrome","118.0.0.0","OS X","10_15_7","null","en-US,en;q=0.9","true","null","","null","","","delay_block","","","","","","0","7",""
"","","","","","html-keyboard-response","78","244987","0.0-69.0-1.0","38","1","2023-10-31 21:10:18","a725c3012b74bf33a1020a98cb69c237","24.232.215.58","Mozilla/5.0 (Macintosh; Intel Mac OS X 10_15_7) AppleWebKit/537.36 (KHTML, like Gecko) Chrome/118.0.0.0 Safari/537.36","Macintosh","Chrome","118.0.0.0","OS X","10_15_7","null","en-US,en;q=0.9","true","null","<p id=""stimulus"" style=""font-size:100px;"">62</p>","null","","","tone_number_task_remaining_before_delay","","62","","542","100","0","7",""
"","","","","","html-keyboard-response","79","245365","0.0-72.0-0.0","38","1","2023-10-31 21:10:18","a725c3012b74bf33a1020a98cb69c237","24.232.215.58","Mozilla/5.0 (Macintosh; Intel Mac OS X 10_15_7) AppleWebKit/537.36 (KHTML, like Gecko) Chrome/118.0.0.0 Safari/537.36","Macintosh","Chrome","118.0.0.0","OS X","10_15_7","null","en-US,en;q=0.9","true","374","<p id=""stimulus"" style=""font-size:100px;"">62</p>","k","","","empty_block","","62","","","","0","7",""
"","","","","","html-keyboard-response","80","248313","0.0-73.0","38","1","2023-10-31 21:10:18","a725c3012b74bf33a1020a98cb69c237","24.232.215.58","Mozilla/5.0 (Macintosh; Intel Mac OS X 10_15_7) AppleWebKit/537.36 (KHTML, like Gecko) Chrome/118.0.0.0 Safari/537.36","Macintosh","Chrome","118.0.0.0","OS X","10_15_7","null","en-US,en;q=0.9","true","null","<div style=""font-size:100px;"">X</div>","null","","","fixation","","","","","","","",""
"","","","","","audio-keyboard-response","81","248908","0.0-74.0","38","1","2023-10-31 21:10:18","a725c3012b74bf33a1020a98cb69c237","24.232.215.58","Mozilla/5.0 (Macintosh; Intel Mac OS X 10_15_7) AppleWebKit/537.36 (KHTML, like Gecko) Chrome/118.0.0.0 Safari/537.36","Macintosh","Chrome","118.0.0.0","OS X","10_15_7","null","en-US,en;q=0.9","true","586","tones/440hz_short.mp3","a","","","tone_number_task","1025","39","tones/440hz_short.mp3","1175","100","0","8",""
"","","","","","html-keyboard-response","82","249352","0.0-75.0-0.0","38","1","2023-10-31 21:10:18","a725c3012b74bf33a1020a98cb69c237","24.232.215.58","Mozilla/5.0 (Macintosh; Intel Mac OS X 10_15_7) AppleWebKit/537.36 (KHTML, like Gecko) Chrome/118.0.0.0 Safari/537.36","Macintosh","Chrome","118.0.0.0","OS X","10_15_7","null","en-US,en;q=0.9","true","null","","null","","","delay_block","","","","","","0","8",""
"","","","","","html-keyboard-response","83","249512","0.0-75.0-1.0","38","1","2023-10-31 21:10:18","a725c3012b74bf33a1020a98cb69c237","24.232.215.58","Mozilla/5.0 (Macintosh; Intel Mac OS X 10_15_7) AppleWebKit/537.36 (KHTML, like Gecko) Chrome/118.0.0.0 Safari/537.36","Macintosh","Chrome","118.0.0.0","OS X","10_15_7","null","en-US,en;q=0.9","true","null","<p id=""stimulus"" style=""font-size:100px;"">39</p>","null","","","tone_number_task_remaining_before_delay","","39","","589","100","0","8",""
"","","","","","html-keyboard-response","84","249819","0.0-78.0-0.0","38","1","2023-10-31 21:10:18","a725c3012b74bf33a1020a98cb69c237","24.232.215.58","Mozilla/5.0 (Macintosh; Intel Mac OS X 10_15_7) AppleWebKit/537.36 (KHTML, like Gecko) Chrome/118.0.0.0 Safari/537.36","Macintosh","Chrome","118.0.0.0","OS X","10_15_7","null","en-US,en;q=0.9","true","302","<p id=""stimulus"" style=""font-size:100px;"">39</p>","j","","","empty_block","","39","","","","0","8",""
"","","","","","html-keyboard-response","85","252766","0.0-79.0","38","1","2023-10-31 21:10:18","a725c3012b74bf33a1020a98cb69c237","24.232.215.58","Mozilla/5.0 (Macintosh; Intel Mac OS X 10_15_7) AppleWebKit/537.36 (KHTML, like Gecko) Chrome/118.0.0.0 Safari/537.36","Macintosh","Chrome","118.0.0.0","OS X","10_15_7","null","en-US,en;q=0.9","true","null","<div style=""font-size:100px;"">X</div>","null","","","fixation","","","","","","","",""
"","","","","","audio-keyboard-response","86","253247","0.0-80.0","38","1","2023-10-31 21:10:18","a725c3012b74bf33a1020a98cb69c237","24.232.215.58","Mozilla/5.0 (Macintosh; Intel Mac OS X 10_15_7) AppleWebKit/537.36 (KHTML, like Gecko) Chrome/118.0.0.0 Safari/537.36","Macintosh","Chrome","118.0.0.0","OS X","10_15_7","null","en-US,en;q=0.9","true","476","tones/880hz_short.mp3","s","","","tone_number_task","992.5","47","tones/880hz_short.mp3","1142.5","100","0","9",""
"","","","","","html-keyboard-response","87","253766","0.0-81.0-0.0","38","1","2023-10-31 21:10:18","a725c3012b74bf33a1020a98cb69c237","24.232.215.58","Mozilla/5.0 (Macintosh; Intel Mac OS X 10_15_7) AppleWebKit/537.36 (KHTML, like Gecko) Chrome/118.0.0.0 Safari/537.36","Macintosh","Chrome","118.0.0.0","OS X","10_15_7","null","en-US,en;q=0.9","true","null","","null","","","delay_block","","","","","","0","9",""
"","","","","","html-keyboard-response","88","253922","0.0-81.0-1.0","38","1","2023-10-31 21:10:18","a725c3012b74bf33a1020a98cb69c237","24.232.215.58","Mozilla/5.0 (Macintosh; Intel Mac OS X 10_15_7) AppleWebKit/537.36 (KHTML, like Gecko) Chrome/118.0.0.0 Safari/537.36","Macintosh","Chrome","118.0.0.0","OS X","10_15_7","null","en-US,en;q=0.9","true","null","<p id=""stimulus"" style=""font-size:100px;"">47</p>","null","","","tone_number_task_remaining_before_delay","","47","","666.5","100","0","9",""
"","","","","","html-keyboard-response","89","254296","0.0-84.0-0.0","38","1","2023-10-31 21:10:18","a725c3012b74bf33a1020a98cb69c237","24.232.215.58","Mozilla/5.0 (Macintosh; Intel Mac OS X 10_15_7) AppleWebKit/537.36 (KHTML, like Gecko) Chrome/118.0.0.0 Safari/537.36","Macintosh","Chrome","118.0.0.0","OS X","10_15_7","null","en-US,en;q=0.9","true","369","<p id=""stimulus"" style=""font-size:100px;"">47</p>","k","","","empty_block","","47","","","","0","9",""
"","","","","","html-keyboard-response","90","257245","0.0-85.0","38","1","2023-10-31 21:10:18","a725c3012b74bf33a1020a98cb69c237","24.232.215.58","Mozilla/5.0 (Macintosh; Intel Mac OS X 10_15_7) AppleWebKit/537.36 (KHTML, like Gecko) Chrome/118.0.0.0 Safari/537.36","Macintosh","Chrome","118.0.0.0","OS X","10_15_7","null","en-US,en;q=0.9","true","null","<div style=""font-size:100px;"">X</div>","null","","","fixation","","","","","","","",""
"","","","","","audio-keyboard-response","91","257504","0.0-86.0","38","1","2023-10-31 21:10:18","a725c3012b74bf33a1020a98cb69c237","24.232.215.58","Mozilla/5.0 (Macintosh; Intel Mac OS X 10_15_7) AppleWebKit/537.36 (KHTML, like Gecko) Chrome/118.0.0.0 Safari/537.36","Macintosh","Chrome","118.0.0.0","OS X","10_15_7","null","en-US,en;q=0.9","true","null","tones/440hz_short.mp3","null","","","tone_number_task","102.5","63","tones/440hz_short.mp3","252.5","100","0","10",""
"","","","","","html-keyboard-response","92","257927","0.0-89.0-0.0","38","1","2023-10-31 21:10:18","a725c3012b74bf33a1020a98cb69c237","24.232.215.58","Mozilla/5.0 (Macintosh; Intel Mac OS X 10_15_7) AppleWebKit/537.36 (KHTML, like Gecko) Chrome/118.0.0.0 Safari/537.36","Macintosh","Chrome","118.0.0.0","OS X","10_15_7","null","en-US,en;q=0.9","true","417","tones/440hz_short.mp3","s","","","empty_block","","63","","","","0","10",""
"","","","","","html-keyboard-response","93","259133","0.0-89.0-1.0","38","1","2023-10-31 21:10:18","a725c3012b74bf33a1020a98cb69c237","24.232.215.58","Mozilla/5.0 (Macintosh; Intel Mac OS X 10_15_7) AppleWebKit/537.36 (KHTML, like Gecko) Chrome/118.0.0.0 Safari/537.36","Macintosh","Chrome","118.0.0.0","OS X","10_15_7","null","en-US,en;q=0.9","true","null","tones/440hz_short.mp3","null","","","empty_block","","63","","","","0","10",""
"","","","","","html-keyboard-response","94","262083","0.0-91.0","38","1","2023-10-31 21:10:18","a725c3012b74bf33a1020a98cb69c237","24.232.215.58","Mozilla/5.0 (Macintosh; Intel Mac OS X 10_15_7) AppleWebKit/537.36 (KHTML, like Gecko) Chrome/118.0.0.0 Safari/537.36","Macintosh","Chrome","118.0.0.0","OS X","10_15_7","null","en-US,en;q=0.9","true","null","<div style=""font-size:100px;"">X</div>","null","","","fixation","","","","","","","",""
"","","","","","audio-keyboard-response","95","262966","0.0-92.0","38","1","2023-10-31 21:10:18","a725c3012b74bf33a1020a98cb69c237","24.232.215.58","Mozilla/5.0 (Macintosh; Intel Mac OS X 10_15_7) AppleWebKit/537.36 (KHTML, like Gecko) Chrome/118.0.0.0 Safari/537.36","Macintosh","Chrome","118.0.0.0","OS X","10_15_7","null","en-US,en;q=0.9","true","882","tones/440hz_short.mp3","a","","","tone_number_task","992.5","41","tones/440hz_short.mp3","1142.5","100","0","11",""
"","","","","","html-keyboard-response","96","263081","0.0-93.0-0.0","38","1","2023-10-31 21:10:18","a725c3012b74bf33a1020a98cb69c237","24.232.215.58","Mozilla/5.0 (Macintosh; Intel Mac OS X 10_15_7) AppleWebKit/537.36 (KHTML, like Gecko) Chrome/118.0.0.0 Safari/537.36","Macintosh","Chrome","118.0.0.0","OS X","10_15_7","null","en-US,en;q=0.9","true","null","","null","","","delay_block","","","","","","0","11",""
"","","","","","html-keyboard-response","97","263240","0.0-93.0-1.0","38","1","2023-10-31 21:10:18","a725c3012b74bf33a1020a98cb69c237","24.232.215.58","Mozilla/5.0 (Macintosh; Intel Mac OS X 10_15_7) AppleWebKit/537.36 (KHTML, like Gecko) Chrome/118.0.0.0 Safari/537.36","Macintosh","Chrome","118.0.0.0","OS X","10_15_7","null","en-US,en;q=0.9","true","null","<p id=""stimulus"" style=""font-size:100px;"">41</p>","null","","","tone_number_task_remaining_before_delay","","41","","260.5","100","0","11",""
"","","","","","html-keyboard-response","98","263710","0.0-96.0-0.0","38","1","2023-10-31 21:10:18","a725c3012b74bf33a1020a98cb69c237","24.232.215.58","Mozilla/5.0 (Macintosh; Intel Mac OS X 10_15_7) AppleWebKit/537.36 (KHTML, like Gecko) Chrome/118.0.0.0 Safari/537.36","Macintosh","Chrome","118.0.0.0","OS X","10_15_7","null","en-US,en;q=0.9","true","464","<p id=""stimulus"" style=""font-size:100px;"">41</p>","j","","","empty_block","","41","","","","0","11",""
"","","","","","html-keyboard-response","99","266660","0.0-97.0","38","1","2023-10-31 21:10:18","a725c3012b74bf33a1020a98cb69c237","24.232.215.58","Mozilla/5.0 (Macintosh; Intel Mac OS X 10_15_7) AppleWebKit/537.36 (KHTML, like Gecko) Chrome/118.0.0.0 Safari/537.36","Macintosh","Chrome","118.0.0.0","OS X","10_15_7","null","en-US,en;q=0.9","true","null","<div style=""font-size:100px;"">X</div>","null","","","fixation","","","","","","","",""
"","","","","","audio-keyboard-response","100","266919","0.0-98.0","38","1","2023-10-31 21:10:18","a725c3012b74bf33a1020a98cb69c237","24.232.215.58","Mozilla/5.0 (Macintosh; Intel Mac OS X 10_15_7) AppleWebKit/537.36 (KHTML, like Gecko) Chrome/118.0.0.0 Safari/537.36","Macintosh","Chrome","118.0.0.0","OS X","10_15_7","null","en-US,en;q=0.9","true","null","tones/440hz_short.mp3","null","","","tone_number_task","102.5","27","tones/440hz_short.mp3","252.5","100","0","12",""
"","","","","","html-keyboard-response","101","267533","0.0-101.0-0.0","38","1","2023-10-31 21:10:18","a725c3012b74bf33a1020a98cb69c237","24.232.215.58","Mozilla/5.0 (Macintosh; Intel Mac OS X 10_15_7) AppleWebKit/537.36 (KHTML, like Gecko) Chrome/118.0.0.0 Safari/537.36","Macintosh","Chrome","118.0.0.0","OS X","10_15_7","null","en-US,en;q=0.9","true","608","tones/440hz_short.mp3","a","","","empty_block","","27","","","","0","12",""
"","","","","","html-keyboard-response","102","267802","0.0-101.0-1.0","38","1","2023-10-31 21:10:18","a725c3012b74bf33a1020a98cb69c237","24.232.215.58","Mozilla/5.0 (Macintosh; Intel Mac OS X 10_15_7) AppleWebKit/537.36 (KHTML, like Gecko) Chrome/118.0.0.0 Safari/537.36","Macintosh","Chrome","118.0.0.0","OS X","10_15_7","null","en-US,en;q=0.9","true","265","tones/440hz_short.mp3","j","","","empty_block","","27","","","","0","12",""
"","","","","","html-keyboard-response","103","270747","0.0-103.0","38","1","2023-10-31 21:10:18","a725c3012b74bf33a1020a98cb69c237","24.232.215.58","Mozilla/5.0 (Macintosh; Intel Mac OS X 10_15_7) AppleWebKit/537.36 (KHTML, like Gecko) Chrome/118.0.0.0 Safari/537.36","Macintosh","Chrome","118.0.0.0","OS X","10_15_7","null","en-US,en;q=0.9","true","null","<div style=""font-size:100px;"">X</div>","null","","","fixation","","","","","","","",""
"","","","","","audio-keyboard-response","104","271474","0.0-104.0","38","1","2023-10-31 21:10:18","a725c3012b74bf33a1020a98cb69c237","24.232.215.58","Mozilla/5.0 (Macintosh; Intel Mac OS X 10_15_7) AppleWebKit/537.36 (KHTML, like Gecko) Chrome/118.0.0.0 Safari/537.36","Macintosh","Chrome","118.0.0.0","OS X","10_15_7","null","en-US,en;q=0.9","true","726","tones/440hz_short.mp3","a","","","tone_number_task","1025","61","tones/440hz_short.mp3","1175","100","0","13",""
"","","","","","html-keyboard-response","105","271777","0.0-105.0-0.0","38","1","2023-10-31 21:10:18","a725c3012b74bf33a1020a98cb69c237","24.232.215.58","Mozilla/5.0 (Macintosh; Intel Mac OS X 10_15_7) AppleWebKit/537.36 (KHTML, like Gecko) Chrome/118.0.0.0 Safari/537.36","Macintosh","Chrome","118.0.0.0","OS X","10_15_7","null","en-US,en;q=0.9","true","null","","null","","","delay_block","","","","","","0","13",""
"","","","","","html-keyboard-response","106","271936","0.0-105.0-1.0","38","1","2023-10-31 21:10:18","a725c3012b74bf33a1020a98cb69c237","24.232.215.58","Mozilla/5.0 (Macintosh; Intel Mac OS X 10_15_7) AppleWebKit/537.36 (KHTML, like Gecko) Chrome/118.0.0.0 Safari/537.36","Macintosh","Chrome","118.0.0.0","OS X","10_15_7","null","en-US,en;q=0.9","true","null","<p id=""stimulus"" style=""font-size:100px;"">61</p>","null","","","tone_number_task_remaining_before_delay","","61","","449","100","0","13",""
"","","","","","html-keyboard-response","107","272341","0.0-108.0-0.0","38","1","2023-10-31 21:10:18","a725c3012b74bf33a1020a98cb69c237","24.232.215.58","Mozilla/5.0 (Macintosh; Intel Mac OS X 10_15_7) AppleWebKit/537.36 (KHTML, like Gecko) Chrome/118.0.0.0 Safari/537.36","Macintosh","Chrome","118.0.0.0","OS X","10_15_7","null","en-US,en;q=0.9","true","399","<p id=""stimulus"" style=""font-size:100px;"">61</p>","k","","","empty_block","","61","","","","0","13",""
"","","","","","html-keyboard-response","108","275288","0.0-109.0","38","1","2023-10-31 21:10:18","a725c3012b74bf33a1020a98cb69c237","24.232.215.58","Mozilla/5.0 (Macintosh; Intel Mac OS X 10_15_7) AppleWebKit/537.36 (KHTML, like Gecko) Chrome/118.0.0.0 Safari/537.36","Macintosh","Chrome","118.0.0.0","OS X","10_15_7","null","en-US,en;q=0.9","true","null","<div style=""font-size:100px;"">X</div>","null","","","fixation","","","","","","","",""
"","","","","","audio-keyboard-response","109","275445","0.0-110.0","38","1","2023-10-31 21:10:18","a725c3012b74bf33a1020a98cb69c237","24.232.215.58","Mozilla/5.0 (Macintosh; Intel Mac OS X 10_15_7) AppleWebKit/537.36 (KHTML, like Gecko) Chrome/118.0.0.0 Safari/537.36","Macintosh","Chrome","118.0.0.0","OS X","10_15_7","null","en-US,en;q=0.9","true","null","tones/440hz_short.mp3","null","","","tone_number_task","0","31","tones/440hz_short.mp3","150","100","0","14",""
"","","","","","html-keyboard-response","110","276150","0.0-113.0-0.0","38","1","2023-10-31 21:10:18","a725c3012b74bf33a1020a98cb69c237","24.232.215.58","Mozilla/5.0 (Macintosh; Intel Mac OS X 10_15_7) AppleWebKit/537.36 (KHTML, like Gecko) Chrome/118.0.0.0 Safari/537.36","Macintosh","Chrome","118.0.0.0","OS X","10_15_7","null","en-US,en;q=0.9","true","701","tones/440hz_short.mp3","a","","","empty_block","","31","","","","0","14",""
"","","","","","html-keyboard-response","111","276347","0.0-113.0-1.0","38","1","2023-10-31 21:10:18","a725c3012b74bf33a1020a98cb69c237","24.232.215.58","Mozilla/5.0 (Macintosh; Intel Mac OS X 10_15_7) AppleWebKit/537.36 (KHTML, like Gecko) Chrome/118.0.0.0 Safari/537.36","Macintosh","Chrome","118.0.0.0","OS X","10_15_7","null","en-US,en;q=0.9","true","192","tones/440hz_short.mp3","j","","","empty_block","","31","","","","0","14",""
"","","","","","html-keyboard-response","112","279297","0.0-115.0","38","1","2023-10-31 21:10:18","a725c3012b74bf33a1020a98cb69c237","24.232.215.58","Mozilla/5.0 (Macintosh; Intel Mac OS X 10_15_7) AppleWebKit/537.36 (KHTML, like Gecko) Chrome/118.0.0.0 Safari/537.36","Macintosh","Chrome","118.0.0.0","OS X","10_15_7","null","en-US,en;q=0.9","true","null","<div style=""font-size:100px;"">X</div>","null","","","fixation","","","","","","","",""
"","","","","","audio-keyboard-response","113","279557","0.0-116.0","38","1","2023-10-31 21:10:18","a725c3012b74bf33a1020a98cb69c237","24.232.215.58","Mozilla/5.0 (Macintosh; Intel Mac OS X 10_15_7) AppleWebKit/537.36 (KHTML, like Gecko) Chrome/118.0.0.0 Safari/537.36","Macintosh","Chrome","118.0.0.0","OS X","10_15_7","null","en-US,en;q=0.9","true","null","tones/440hz_short.mp3","null","","","tone_number_task","102.5","24","tones/440hz_short.mp3","252.5","100","0","15",""
"","","","","","html-keyboard-response","114","279954","0.0-119.0-0.0","38","1","2023-10-31 21:10:18","a725c3012b74bf33a1020a98cb69c237","24.232.215.58","Mozilla/5.0 (Macintosh; Intel Mac OS X 10_15_7) AppleWebKit/537.36 (KHTML, like Gecko) Chrome/118.0.0.0 Safari/537.36","Macintosh","Chrome","118.0.0.0","OS X","10_15_7","null","en-US,en;q=0.9","true","391","tones/440hz_short.mp3","a","","","empty_block","","24","","","","0","15",""
"","","","","","html-keyboard-response","115","280238","0.0-119.0-1.0","38","1","2023-10-31 21:10:18","a725c3012b74bf33a1020a98cb69c237","24.232.215.58","Mozilla/5.0 (Macintosh; Intel Mac OS X 10_15_7) AppleWebKit/537.36 (KHTML, like Gecko) Chrome/118.0.0.0 Safari/537.36","Macintosh","Chrome","118.0.0.0","OS X","10_15_7","null","en-US,en;q=0.9","true","279","tones/440hz_short.mp3","j","","","empty_block","","24","","","","0","15",""
"","","","","","html-keyboard-response","116","283184","0.0-121.0","38","1","2023-10-31 21:10:18","a725c3012b74bf33a1020a98cb69c237","24.232.215.58","Mozilla/5.0 (Macintosh; Intel Mac OS X 10_15_7) AppleWebKit/537.36 (KHTML, like Gecko) Chrome/118.0.0.0 Safari/537.36","Macintosh","Chrome","118.0.0.0","OS X","10_15_7","null","en-US,en;q=0.9","true","null","<div style=""font-size:100px;"">X</div>","null","","","fixation","","","","","","","",""
"","","","","","audio-keyboard-response","117","283786","0.0-122.0","38","1","2023-10-31 21:10:18","a725c3012b74bf33a1020a98cb69c237","24.232.215.58","Mozilla/5.0 (Macintosh; Intel Mac OS X 10_15_7) AppleWebKit/537.36 (KHTML, like Gecko) Chrome/118.0.0.0 Safari/537.36","Macintosh","Chrome","118.0.0.0","OS X","10_15_7","null","en-US,en;q=0.9","true","592","tones/880hz_short.mp3","s","","","tone_number_task","1025","68","tones/880hz_short.mp3","1175","100","0","16",""
"","","","","","html-keyboard-response","118","284228","0.0-123.0-0.0","38","1","2023-10-31 21:10:18","a725c3012b74bf33a1020a98cb69c237","24.232.215.58","Mozilla/5.0 (Macintosh; Intel Mac OS X 10_15_7) AppleWebKit/537.36 (KHTML, like Gecko) Chrome/118.0.0.0 Safari/537.36","Macintosh","Chrome","118.0.0.0","OS X","10_15_7","null","en-US,en;q=0.9","true","null","","null","","","delay_block","","","","","","0","16",""
"","","","","","html-keyboard-response","119","284391","0.0-123.0-1.0","38","1","2023-10-31 21:10:18","a725c3012b74bf33a1020a98cb69c237","24.232.215.58","Mozilla/5.0 (Macintosh; Intel Mac OS X 10_15_7) AppleWebKit/537.36 (KHTML, like Gecko) Chrome/118.0.0.0 Safari/537.36","Macintosh","Chrome","118.0.0.0","OS X","10_15_7","null","en-US,en;q=0.9","true","null","<p id=""stimulus"" style=""font-size:100px;"">68</p>","null","","","tone_number_task_remaining_before_delay","","68","","583","100","0","16",""
"","","","","","html-keyboard-response","120","284621","0.0-126.0-0.0","38","1","2023-10-31 21:10:18","a725c3012b74bf33a1020a98cb69c237","24.232.215.58","Mozilla/5.0 (Macintosh; Intel Mac OS X 10_15_7) AppleWebKit/537.36 (KHTML, like Gecko) Chrome/118.0.0.0 Safari/537.36","Macintosh","Chrome","118.0.0.0","OS X","10_15_7","null","en-US,en;q=0.9","true","223","<p id=""stimulus"" style=""font-size:100px;"">68</p>","k","","","empty_block","","68","","","","0","16",""
"","","","","","html-keyboard-response","121","287572","0.0-127.0","38","1","2023-10-31 21:10:18","a725c3012b74bf33a1020a98cb69c237","24.232.215.58","Mozilla/5.0 (Macintosh; Intel Mac OS X 10_15_7) AppleWebKit/537.36 (KHTML, like Gecko) Chrome/118.0.0.0 Safari/537.36","Macintosh","Chrome","118.0.0.0","OS X","10_15_7","null","en-US,en;q=0.9","true","null","<div style=""font-size:100px;"">X</div>","null","","","fixation","","","","","","","",""
"","","","","","audio-keyboard-response","122","288245","0.0-128.0","38","1","2023-10-31 21:10:18","a725c3012b74bf33a1020a98cb69c237","24.232.215.58","Mozilla/5.0 (Macintosh; Intel Mac OS X 10_15_7) AppleWebKit/537.36 (KHTML, like Gecko) Chrome/118.0.0.0 Safari/537.36","Macintosh","Chrome","118.0.0.0","OS X","10_15_7","null","en-US,en;q=0.9","true","668","tones/880hz_short.mp3","s","","","tone_number_task","1025","33","tones/880hz_short.mp3","1175","100","0","17",""
"","","","","","html-keyboard-response","123","288609","0.0-129.0-0.0","38","1","2023-10-31 21:10:18","a725c3012b74bf33a1020a98cb69c237","24.232.215.58","Mozilla/5.0 (Macintosh; Intel Mac OS X 10_15_7) AppleWebKit/537.36 (KHTML, like Gecko) Chrome/118.0.0.0 Safari/537.36","Macintosh","Chrome","118.0.0.0","OS X","10_15_7","null","en-US,en;q=0.9","true","null","","null","","","delay_block","","","","","","0","17",""
"","","","","","html-keyboard-response","124","288770","0.0-129.0-1.0","38","1","2023-10-31 21:10:18","a725c3012b74bf33a1020a98cb69c237","24.232.215.58","Mozilla/5.0 (Macintosh; Intel Mac OS X 10_15_7) AppleWebKit/537.36 (KHTML, like Gecko) Chrome/118.0.0.0 Safari/537.36","Macintosh","Chrome","118.0.0.0","OS X","10_15_7","null","en-US,en;q=0.9","true","null","<p id=""stimulus"" style=""font-size:100px;"">33</p>","null","","","tone_number_task_remaining_before_delay","","33","","507","100","0","17",""
"","","","","","html-keyboard-response","125","289000","0.0-132.0-0.0","38","1","2023-10-31 21:10:18","a725c3012b74bf33a1020a98cb69c237","24.232.215.58","Mozilla/5.0 (Macintosh; Intel Mac OS X 10_15_7) AppleWebKit/537.36 (KHTML, like Gecko) Chrome/118.0.0.0 Safari/537.36","Macintosh","Chrome","118.0.0.0","OS X","10_15_7","null","en-US,en;q=0.9","true","224","<p id=""stimulus"" style=""font-size:100px;"">33</p>","j","","","empty_block","","33","","","","0","17",""
"","","","","","html-keyboard-response","126","291949","0.0-133.0","38","1","2023-10-31 21:10:18","a725c3012b74bf33a1020a98cb69c237","24.232.215.58","Mozilla/5.0 (Macintosh; Intel Mac OS X 10_15_7) AppleWebKit/537.36 (KHTML, like Gecko) Chrome/118.0.0.0 Safari/537.36","Macintosh","Chrome","118.0.0.0","OS X","10_15_7","null","en-US,en;q=0.9","true","null","<div style=""font-size:100px;"">X</div>","null","","","fixation","","","","","","","",""
"","","","","","audio-keyboard-response","127","292659","0.0-134.0","38","1","2023-10-31 21:10:18","a725c3012b74bf33a1020a98cb69c237","24.232.215.58","Mozilla/5.0 (Macintosh; Intel Mac OS X 10_15_7) AppleWebKit/537.36 (KHTML, like Gecko) Chrome/118.0.0.0 Safari/537.36","Macintosh","Chrome","118.0.0.0","OS X","10_15_7","null","en-US,en;q=0.9","true","702","tones/440hz_short.mp3","a","","","tone_number_task","992.5","50","tones/440hz_short.mp3","1142.5","100","0","18",""
"","","","","","html-keyboard-response","128","292958","0.0-135.0-0.0","38","1","2023-10-31 21:10:18","a725c3012b74bf33a1020a98cb69c237","24.232.215.58","Mozilla/5.0 (Macintosh; Intel Mac OS X 10_15_7) AppleWebKit/537.36 (KHTML, like Gecko) Chrome/118.0.0.0 Safari/537.36","Macintosh","Chrome","118.0.0.0","OS X","10_15_7","null","en-US,en;q=0.9","true","null","","null","","","delay_block","","","","","","0","18",""
"","","","","","html-keyboard-response","129","293118","0.0-135.0-1.0","38","1","2023-10-31 21:10:18","a725c3012b74bf33a1020a98cb69c237","24.232.215.58","Mozilla/5.0 (Macintosh; Intel Mac OS X 10_15_7) AppleWebKit/537.36 (KHTML, like Gecko) Chrome/118.0.0.0 Safari/537.36","Macintosh","Chrome","118.0.0.0","OS X","10_15_7","null","en-US,en;q=0.9","true","null","<p id=""stimulus"" style=""font-size:100px;"">50</p>","null","","","tone_number_task_remaining_before_delay","","50","","440.5","100","0","18",""
"","","","","","html-keyboard-response","130","293496","0.0-138.0-0.0","38","1","2023-10-31 21:10:18","a725c3012b74bf33a1020a98cb69c237","24.232.215.58","Mozilla/5.0 (Macintosh; Intel Mac OS X 10_15_7) AppleWebKit/537.36 (KHTML, like Gecko) Chrome/118.0.0.0 Safari/537.36","Macintosh","Chrome","118.0.0.0","OS X","10_15_7","null","en-US,en;q=0.9","true","374","<p id=""stimulus"" style=""font-size:100px;"">50</p>","k","","","empty_block","","50","","","","0","18",""
"","","","","","html-keyboard-response","131","296445","0.0-139.0","38","1","2023-10-31 21:10:18","a725c3012b74bf33a1020a98cb69c237","24.232.215.58","Mozilla/5.0 (Macintosh; Intel Mac OS X 10_15_7) AppleWebKit/537.36 (KHTML, like Gecko) Chrome/118.0.0.0 Safari/537.36","Macintosh","Chrome","118.0.0.0","OS X","10_15_7","null","en-US,en;q=0.9","true","null","<div style=""font-size:100px;"">X</div>","null","","","fixation","","","","","","","",""
"","","","","","audio-keyboard-response","132","296708","0.0-140.0","38","1","2023-10-31 21:10:18","a725c3012b74bf33a1020a98cb69c237","24.232.215.58","Mozilla/5.0 (Macintosh; Intel Mac OS X 10_15_7) AppleWebKit/537.36 (KHTML, like Gecko) Chrome/118.0.0.0 Safari/537.36","Macintosh","Chrome","118.0.0.0","OS X","10_15_7","null","en-US,en;q=0.9","true","null","tones/880hz_short.mp3","null","","","tone_number_task","102.5","43","tones/880hz_short.mp3","252.5","100","0","19",""
"","","","","","html-keyboard-response","133","297199","0.0-143.0-0.0","38","1","2023-10-31 21:10:18","a725c3012b74bf33a1020a98cb69c237","24.232.215.58","Mozilla/5.0 (Macintosh; Intel Mac OS X 10_15_7) AppleWebKit/537.36 (KHTML, like Gecko) Chrome/118.0.0.0 Safari/537.36","Macintosh","Chrome","118.0.0.0","OS X","10_15_7","null","en-US,en;q=0.9","true","485","tones/880hz_short.mp3","s","","","empty_block","","43","","","","0","19",""
"","","","","","html-keyboard-response","134","297598","0.0-143.0-1.0","38","1","2023-10-31 21:10:18","a725c3012b74bf33a1020a98cb69c237","24.232.215.58","Mozilla/5.0 (Macintosh; Intel Mac OS X 10_15_7) AppleWebKit/537.36 (KHTML, like Gecko) Chrome/118.0.0.0 Safari/537.36","Macintosh","Chrome","118.0.0.0","OS X","10_15_7","null","en-US,en;q=0.9","true","394","tones/880hz_short.mp3","j","","","empty_block","","43","","","","0","19",""
"","","","","","html-keyboard-response","135","300548","0.0-145.0","38","1","2023-10-31 21:10:18","a725c3012b74bf33a1020a98cb69c237","24.232.215.58","Mozilla/5.0 (Macintosh; Intel Mac OS X 10_15_7) AppleWebKit/537.36 (KHTML, like Gecko) Chrome/118.0.0.0 Safari/537.36","Macintosh","Chrome","118.0.0.0","OS X","10_15_7","null","en-US,en;q=0.9","true","null","<div style=""font-size:100px;"">X</div>","null","","","fixation","","","","","","","",""
"","","","","","audio-keyboard-response","136","301160","0.0-146.0","38","1","2023-10-31 21:10:18","a725c3012b74bf33a1020a98cb69c237","24.232.215.58","Mozilla/5.0 (Macintosh; Intel Mac OS X 10_15_7) AppleWebKit/537.36 (KHTML, like Gecko) Chrome/118.0.0.0 Safari/537.36","Macintosh","Chrome","118.0.0.0","OS X","10_15_7","null","en-US,en;q=0.9","true","610","tones/880hz_short.mp3","s","","","tone_number_task","1025","58","tones/880hz_short.mp3","1175","100","0","20",""
"","","","","","html-keyboard-response","137","301584","0.0-147.0-0.0","38","1","2023-10-31 21:10:18","a725c3012b74bf33a1020a98cb69c237","24.232.215.58","Mozilla/5.0 (Macintosh; Intel Mac OS X 10_15_7) AppleWebKit/537.36 (KHTML, like Gecko) Chrome/118.0.0.0 Safari/537.36","Macintosh","Chrome","118.0.0.0","OS X","10_15_7","null","en-US,en;q=0.9","true","null","","null","","","delay_block","","","","","","0","20",""
"","","","","","html-keyboard-response","138","301742","0.0-147.0-1.0","38","1","2023-10-31 21:10:18","a725c3012b74bf33a1020a98cb69c237","24.232.215.58","Mozilla/5.0 (Macintosh; Intel Mac OS X 10_15_7) AppleWebKit/537.36 (KHTML, like Gecko) Chrome/118.0.0.0 Safari/537.36","Macintosh","Chrome","118.0.0.0","OS X","10_15_7","null","en-US,en;q=0.9","true","null","<p id=""stimulus"" style=""font-size:100px;"">58</p>","null","","","tone_number_task_remaining_before_delay","","58","","565","100","0","20",""
"","","","","","html-keyboard-response","139","302048","0.0-150.0-0.0","38","1","2023-10-31 21:10:18","a725c3012b74bf33a1020a98cb69c237","24.232.215.58","Mozilla/5.0 (Macintosh; Intel Mac OS X 10_15_7) AppleWebKit/537.36 (KHTML, like Gecko) Chrome/118.0.0.0 Safari/537.36","Macintosh","Chrome","118.0.0.0","OS X","10_15_7","null","en-US,en;q=0.9","true","300","<p id=""stimulus"" style=""font-size:100px;"">58</p>","k","","","empty_block","","58","","","","0","20",""
"","","","","","html-keyboard-response","140","304998","0.0-151.0","38","1","2023-10-31 21:10:18","a725c3012b74bf33a1020a98cb69c237","24.232.215.58","Mozilla/5.0 (Macintosh; Intel Mac OS X 10_15_7) AppleWebKit/537.36 (KHTML, like Gecko) Chrome/118.0.0.0 Safari/537.36","Macintosh","Chrome","118.0.0.0","OS X","10_15_7","null","en-US,en;q=0.9","true","null","<div style=""font-size:100px;"">X</div>","null","","","fixation","","","","","","","",""
"","","","","","audio-keyboard-response","141","305645","0.0-152.0","38","1","2023-10-31 21:10:18","a725c3012b74bf33a1020a98cb69c237","24.232.215.58","Mozilla/5.0 (Macintosh; Intel Mac OS X 10_15_7) AppleWebKit/537.36 (KHTML, like Gecko) Chrome/118.0.0.0 Safari/537.36","Macintosh","Chrome","118.0.0.0","OS X","10_15_7","null","en-US,en;q=0.9","true","639","tones/440hz_short.mp3","a","","","tone_number_task","992.5","59","tones/440hz_short.mp3","1142.5","100","0","21",""
"","","","","","html-keyboard-response","142","306006","0.0-153.0-0.0","38","1","2023-10-31 21:10:18","a725c3012b74bf33a1020a98cb69c237","24.232.215.58","Mozilla/5.0 (Macintosh; Intel Mac OS X 10_15_7) AppleWebKit/537.36 (KHTML, like Gecko) Chrome/118.0.0.0 Safari/537.36","Macintosh","Chrome","118.0.0.0","OS X","10_15_7","null","en-US,en;q=0.9","true","null","","null","","","delay_block","","","","","","0","21",""
"","","","","","html-keyboard-response","143","306169","0.0-153.0-1.0","38","1","2023-10-31 21:10:18","a725c3012b74bf33a1020a98cb69c237","24.232.215.58","Mozilla/5.0 (Macintosh; Intel Mac OS X 10_15_7) AppleWebKit/537.36 (KHTML, like Gecko) Chrome/118.0.0.0 Safari/537.36","Macintosh","Chrome","118.0.0.0","OS X","10_15_7","null","en-US,en;q=0.9","true","null","<p id=""stimulus"" style=""font-size:100px;"">59</p>","null","","","tone_number_task_remaining_before_delay","","59","","503.5","100","0","21",""
"","","","","","html-keyboard-response","144","306532","0.0-156.0-0.0","38","1","2023-10-31 21:10:18","a725c3012b74bf33a1020a98cb69c237","24.232.215.58","Mozilla/5.0 (Macintosh; Intel Mac OS X 10_15_7) AppleWebKit/537.36 (KHTML, like Gecko) Chrome/118.0.0.0 Safari/537.36","Macintosh","Chrome","118.0.0.0","OS X","10_15_7","null","en-US,en;q=0.9","true","356","<p id=""stimulus"" style=""font-size:100px;"">59</p>","k","","","empty_block","","59","","","","0","21",""
"","","","","","html-keyboard-response","145","309481","0.0-157.0","38","1","2023-10-31 21:10:18","a725c3012b74bf33a1020a98cb69c237","24.232.215.58","Mozilla/5.0 (Macintosh; Intel Mac OS X 10_15_7) AppleWebKit/537.36 (KHTML, like Gecko) Chrome/118.0.0.0 Safari/537.36","Macintosh","Chrome","118.0.0.0","OS X","10_15_7","null","en-US,en;q=0.9","true","null","<div style=""font-size:100px;"">X</div>","null","","","fixation","","","","","","","",""
"","","","","","audio-keyboard-response","146","309641","0.0-158.0","38","1","2023-10-31 21:10:18","a725c3012b74bf33a1020a98cb69c237","24.232.215.58","Mozilla/5.0 (Macintosh; Intel Mac OS X 10_15_7) AppleWebKit/537.36 (KHTML, like Gecko) Chrome/118.0.0.0 Safari/537.36","Macintosh","Chrome","118.0.0.0","OS X","10_15_7","null","en-US,en;q=0.9","true","null","tones/440hz_short.mp3","null","","","tone_number_task","0","63","tones/440hz_short.mp3","150","100","0","22",""
"","","","","","html-keyboard-response","147","310184","0.0-161.0-0.0","38","1","2023-10-31 21:10:18","a725c3012b74bf33a1020a98cb69c237","24.232.215.58","Mozilla/5.0 (Macintosh; Intel Mac OS X 10_15_7) AppleWebKit/537.36 (KHTML, like Gecko) Chrome/118.0.0.0 Safari/537.36","Macintosh","Chrome","118.0.0.0","OS X","10_15_7","null","en-US,en;q=0.9","true","535","tones/440hz_short.mp3","a","","","empty_block","","63","","","","0","22",""
"","","","","","html-keyboard-response","148","310587","0.0-161.0-1.0","38","1","2023-10-31 21:10:18","a725c3012b74bf33a1020a98cb69c237","24.232.215.58","Mozilla/5.0 (Macintosh; Intel Mac OS X 10_15_7) AppleWebKit/537.36 (KHTML, like Gecko) Chrome/118.0.0.0 Safari/537.36","Macintosh","Chrome","118.0.0.0","OS X","10_15_7","null","en-US,en;q=0.9","true","397","tones/440hz_short.mp3","k","","","empty_block","","63","","","","0","22",""
"","","","","","html-keyboard-response","149","313540","0.0-163.0","38","1","2023-10-31 21:10:18","a725c3012b74bf33a1020a98cb69c237","24.232.215.58","Mozilla/5.0 (Macintosh; Intel Mac OS X 10_15_7) AppleWebKit/537.36 (KHTML, like Gecko) Chrome/118.0.0.0 Safari/537.36","Macintosh","Chrome","118.0.0.0","OS X","10_15_7","null","en-US,en;q=0.9","true","null","<div style=""font-size:100px;"">X</div>","null","","","fixation","","","","","","","",""
"","","","","","audio-keyboard-response","150","313802","0.0-164.0","38","1","2023-10-31 21:10:18","a725c3012b74bf33a1020a98cb69c237","24.232.215.58","Mozilla/5.0 (Macintosh; Intel Mac OS X 10_15_7) AppleWebKit/537.36 (KHTML, like Gecko) Chrome/118.0.0.0 Safari/537.36","Macintosh","Chrome","118.0.0.0","OS X","10_15_7","null","en-US,en;q=0.9","true","null","tones/880hz_short.mp3","null","","","tone_number_task","102.5","53","tones/880hz_short.mp3","252.5","100","0","23",""
"","","","","","html-keyboard-response","151","314205","0.0-167.0-0.0","38","1","2023-10-31 21:10:18","a725c3012b74bf33a1020a98cb69c237","24.232.215.58","Mozilla/5.0 (Macintosh; Intel Mac OS X 10_15_7) AppleWebKit/537.36 (KHTML, like Gecko) Chrome/118.0.0.0 Safari/537.36","Macintosh","Chrome","118.0.0.0","OS X","10_15_7","null","en-US,en;q=0.9","true","395","tones/880hz_short.mp3","s","","","empty_block","","53","","","","0","23",""
"","","","","","html-keyboard-response","152","314491","0.0-167.0-1.0","38","1","2023-10-31 21:10:18","a725c3012b74bf33a1020a98cb69c237","24.232.215.58","Mozilla/5.0 (Macintosh; Intel Mac OS X 10_15_7) AppleWebKit/537.36 (KHTML, like Gecko) Chrome/118.0.0.0 Safari/537.36","Macintosh","Chrome","118.0.0.0","OS X","10_15_7","null","en-US,en;q=0.9","true","280","tones/880hz_short.mp3","k","","","empty_block","","53","","","","0","23",""
"","","","","","html-keyboard-response","153","317438","0.0-169.0","38","1","2023-10-31 21:10:18","a725c3012b74bf33a1020a98cb69c237","24.232.215.58","Mozilla/5.0 (Macintosh; Intel Mac OS X 10_15_7) AppleWebKit/537.36 (KHTML, like Gecko) Chrome/118.0.0.0 Safari/537.36","Macintosh","Chrome","118.0.0.0","OS X","10_15_7","null","en-US,en;q=0.9","true","null","<div style=""font-size:100px;"">X</div>","null","","","fixation","","","","","","","",""
"","","","","","audio-keyboard-response","154","317597","0.0-170.0","38","1","2023-10-31 21:10:18","a725c3012b74bf33a1020a98cb69c237","24.232.215.58","Mozilla/5.0 (Macintosh; Intel Mac OS X 10_15_7) AppleWebKit/537.36 (KHTML, like Gecko) Chrome/118.0.0.0 Safari/537.36","Macintosh","Chrome","118.0.0.0","OS X","10_15_7","null","en-US,en;q=0.9","true","null","tones/880hz_short.mp3","null","","","tone_number_task","0","31","tones/880hz_short.mp3","150","100","0","24",""
"","","","","","html-keyboard-response","155","318333","0.0-173.0-0.0","38","1","2023-10-31 21:10:18","a725c3012b74bf33a1020a98cb69c237","24.232.215.58","Mozilla/5.0 (Macintosh; Intel Mac OS X 10_15_7) AppleWebKit/537.36 (KHTML, like Gecko) Chrome/118.0.0.0 Safari/537.36","Macintosh","Chrome","118.0.0.0","OS X","10_15_7","null","en-US,en;q=0.9","true","729","tones/880hz_short.mp3","s","","","empty_block","","31","","","","0","24",""
"","","","","","html-keyboard-response","156","318533","0.0-173.0-1.0","38","1","2023-10-31 21:10:18","a725c3012b74bf33a1020a98cb69c237","24.232.215.58","Mozilla/5.0 (Macintosh; Intel Mac OS X 10_15_7) AppleWebKit/537.36 (KHTML, like Gecko) Chrome/118.0.0.0 Safari/537.36","Macintosh","Chrome","118.0.0.0","OS X","10_15_7","null","en-US,en;q=0.9","true","196","tones/880hz_short.mp3","j","","","empty_block","","31","","","","0","24",""
"","","","","","html-keyboard-response","157","321484","0.0-175.0","38","1","2023-10-31 21:10:18","a725c3012b74bf33a1020a98cb69c237","24.232.215.58","Mozilla/5.0 (Macintosh; Intel Mac OS X 10_15_7) AppleWebKit/537.36 (KHTML, like Gecko) Chrome/118.0.0.0 Safari/537.36","Macintosh","Chrome","118.0.0.0","OS X","10_15_7","null","en-US,en;q=0.9","true","null","<div style=""font-size:100px;"">X</div>","null","","","fixation","","","","","","","",""
"","","","","","audio-keyboard-response","158","321646","0.0-176.0","38","1","2023-10-31 21:10:18","a725c3012b74bf33a1020a98cb69c237","24.232.215.58","Mozilla/5.0 (Macintosh; Intel Mac OS X 10_15_7) AppleWebKit/537.36 (KHTML, like Gecko) Chrome/118.0.0.0 Safari/537.36","Macintosh","Chrome","118.0.0.0","OS X","10_15_7","null","en-US,en;q=0.9","true","null","tones/440hz_short.mp3","null","","","tone_number_task","0","32","tones/440hz_short.mp3","150","100","0","25",""
"","","","","","html-keyboard-response","159","322341","0.0-179.0-0.0","38","1","2023-10-31 21:10:18","a725c3012b74bf33a1020a98cb69c237","24.232.215.58","Mozilla/5.0 (Macintosh; Intel Mac OS X 10_15_7) AppleWebKit/537.36 (KHTML, like Gecko) Chrome/118.0.0.0 Safari/537.36","Macintosh","Chrome","118.0.0.0","OS X","10_15_7","null","en-US,en;q=0.9","true","689","tones/440hz_short.mp3","a","","","empty_block","","32","","","","0","25",""
"","","","","","html-keyboard-response","160","322457","0.0-179.0-1.0","38","1","2023-10-31 21:10:18","a725c3012b74bf33a1020a98cb69c237","24.232.215.58","Mozilla/5.0 (Macintosh; Intel Mac OS X 10_15_7) AppleWebKit/537.36 (KHTML, like Gecko) Chrome/118.0.0.0 Safari/537.36","Macintosh","Chrome","118.0.0.0","OS X","10_15_7","null","en-US,en;q=0.9","true","109","tones/440hz_short.mp3","j","","","empty_block","","32","","","","0","25",""
"","","","","","html-keyboard-response","161","325407","0.0-181.0","38","1","2023-10-31 21:10:18","a725c3012b74bf33a1020a98cb69c237","24.232.215.58","Mozilla/5.0 (Macintosh; Intel Mac OS X 10_15_7) AppleWebKit/537.36 (KHTML, like Gecko) Chrome/118.0.0.0 Safari/537.36","Macintosh","Chrome","118.0.0.0","OS X","10_15_7","null","en-US,en;q=0.9","true","null","<div style=""font-size:100px;"">X</div>","null","","","fixation","","","","","","","",""
"","","","","","audio-keyboard-response","162","326101","0.0-182.0","38","1","2023-10-31 21:10:18","a725c3012b74bf33a1020a98cb69c237","24.232.215.58","Mozilla/5.0 (Macintosh; Intel Mac OS X 10_15_7) AppleWebKit/537.36 (KHTML, like Gecko) Chrome/118.0.0.0 Safari/537.36","Macintosh","Chrome","118.0.0.0","OS X","10_15_7","null","en-US,en;q=0.9","true","685","tones/440hz_short.mp3","a","","","tone_number_task","992.5","57","tones/440hz_short.mp3","1142.5","100","0","26",""
"","","","","","html-keyboard-response","163","326419","0.0-183.0-0.0","38","1","2023-10-31 21:10:18","a725c3012b74bf33a1020a98cb69c237","24.232.215.58","Mozilla/5.0 (Macintosh; Intel Mac OS X 10_15_7) AppleWebKit/537.36 (KHTML, like Gecko) Chrome/118.0.0.0 Safari/537.36","Macintosh","Chrome","118.0.0.0","OS X","10_15_7","null","en-US,en;q=0.9","true","null","","null","","","delay_block","","","","","","0","26",""
"","","","","","html-keyboard-response","164","326582","0.0-183.0-1.0","38","1","2023-10-31 21:10:18","a725c3012b74bf33a1020a98cb69c237","24.232.215.58","Mozilla/5.0 (Macintosh; Intel Mac OS X 10_15_7) AppleWebKit/537.36 (KHTML, like Gecko) Chrome/118.0.0.0 Safari/537.36","Macintosh","Chrome","118.0.0.0","OS X","10_15_7","null","en-US,en;q=0.9","true","null","<p id=""stimulus"" style=""font-size:100px;"">57</p>","null","","","tone_number_task_remaining_before_delay","","57","","457.5","100","0","26",""
"","","","","","html-keyboard-response","165","326825","0.0-186.0-0.0","38","1","2023-10-31 21:10:18","a725c3012b74bf33a1020a98cb69c237","24.232.215.58","Mozilla/5.0 (Macintosh; Intel Mac OS X 10_15_7) AppleWebKit/537.36 (KHTML, like Gecko) Chrome/118.0.0.0 Safari/537.36","Macintosh","Chrome","118.0.0.0","OS X","10_15_7","null","en-US,en;q=0.9","true","236","<p id=""stimulus"" style=""font-size:100px;"">57</p>","k","","","empty_block","","57","","","","0","26",""
"","","","","","html-keyboard-response","166","329774","0.0-187.0","38","1","2023-10-31 21:10:18","a725c3012b74bf33a1020a98cb69c237","24.232.215.58","Mozilla/5.0 (Macintosh; Intel Mac OS X 10_15_7) AppleWebKit/537.36 (KHTML, like Gecko) Chrome/118.0.0.0 Safari/537.36","Macintosh","Chrome","118.0.0.0","OS X","10_15_7","null","en-US,en;q=0.9","true","null","<div style=""font-size:100px;"">X</div>","null","","","fixation","","","","","","","",""
"","","","","","audio-keyboard-response","167","329936","0.0-188.0","38","1","2023-10-31 21:10:18","a725c3012b74bf33a1020a98cb69c237","24.232.215.58","Mozilla/5.0 (Macintosh; Intel Mac OS X 10_15_7) AppleWebKit/537.36 (KHTML, like Gecko) Chrome/118.0.0.0 Safari/537.36","Macintosh","Chrome","118.0.0.0","OS X","10_15_7","null","en-US,en;q=0.9","true","null","tones/880hz_short.mp3","null","","","tone_number_task","0","62","tones/880hz_short.mp3","150","100","0","27",""
"","","","","","html-keyboard-response","168","330361","0.0-191.0-0.0","38","1","2023-10-31 21:10:18","a725c3012b74bf33a1020a98cb69c237","24.232.215.58","Mozilla/5.0 (Macintosh; Intel Mac OS X 10_15_7) AppleWebKit/537.36 (KHTML, like Gecko) Chrome/118.0.0.0 Safari/537.36","Macintosh","Chrome","118.0.0.0","OS X","10_15_7","null","en-US,en;q=0.9","true","417","tones/880hz_short.mp3","s","","","empty_block","","62","","","","0","27",""
"","","","","","html-keyboard-response","169","330869","0.0-191.0-1.0","38","1","2023-10-31 21:10:18","a725c3012b74bf33a1020a98cb69c237","24.232.215.58","Mozilla/5.0 (Macintosh; Intel Mac OS X 10_15_7) AppleWebKit/537.36 (KHTML, like Gecko) Chrome/118.0.0.0 Safari/537.36","Macintosh","Chrome","118.0.0.0","OS X","10_15_7","null","en-US,en;q=0.9","true","501","tones/880hz_short.mp3","k","","","empty_block","","62","","","","0","27",""
"","","","","","html-keyboard-response","170","333820","0.0-193.0","38","1","2023-10-31 21:10:18","a725c3012b74bf33a1020a98cb69c237","24.232.215.58","Mozilla/5.0 (Macintosh; Intel Mac OS X 10_15_7) AppleWebKit/537.36 (KHTML, like Gecko) Chrome/118.0.0.0 Safari/537.36","Macintosh","Chrome","118.0.0.0","OS X","10_15_7","null","en-US,en;q=0.9","true","null","<div style=""font-size:100px;"">X</div>","null","","","fixation","","","","","","","",""
"","","","","","audio-keyboard-response","171","334082","0.0-194.0","38","1","2023-10-31 21:10:18","a725c3012b74bf33a1020a98cb69c237","24.232.215.58","Mozilla/5.0 (Macintosh; Intel Mac OS X 10_15_7) AppleWebKit/537.36 (KHTML, like Gecko) Chrome/118.0.0.0 Safari/537.36","Macintosh","Chrome","118.0.0.0","OS X","10_15_7","null","en-US,en;q=0.9","true","null","tones/880hz_short.mp3","null","","","tone_number_task","102.5","34","tones/880hz_short.mp3","252.5","100","0","28",""
"","","","","","html-keyboard-response","172","334526","0.0-197.0-0.0","38","1","2023-10-31 21:10:18","a725c3012b74bf33a1020a98cb69c237","24.232.215.58","Mozilla/5.0 (Macintosh; Intel Mac OS X 10_15_7) AppleWebKit/537.36 (KHTML, like Gecko) Chrome/118.0.0.0 Safari/537.36","Macintosh","Chrome","118.0.0.0","OS X","10_15_7","null","en-US,en;q=0.9","true","437","tones/880hz_short.mp3","s","","","empty_block","","34","","","","0","28",""
"","","","","","html-keyboard-response","173","334787","0.0-197.0-1.0","38","1","2023-10-31 21:10:18","a725c3012b74bf33a1020a98cb69c237","24.232.215.58","Mozilla/5.0 (Macintosh; Intel Mac OS X 10_15_7) AppleWebKit/537.36 (KHTML, like Gecko) Chrome/118.0.0.0 Safari/537.36","Macintosh","Chrome","118.0.0.0","OS X","10_15_7","null","en-US,en;q=0.9","true","254","tones/880hz_short.mp3","j","","","empty_block","","34","","","","0","28",""
"","","","","","html-keyboard-response","174","337739","0.0-199.0","38","1","2023-10-31 21:10:18","a725c3012b74bf33a1020a98cb69c237","24.232.215.58","Mozilla/5.0 (Macintosh; Intel Mac OS X 10_15_7) AppleWebKit/537.36 (KHTML, like Gecko) Chrome/118.0.0.0 Safari/537.36","Macintosh","Chrome","118.0.0.0","OS X","10_15_7","null","en-US,en;q=0.9","true","null","<div style=""font-size:100px;"">X</div>","null","","","fixation","","","","","","","",""
"","","","","","audio-keyboard-response","175","338250","0.0-200.0","38","1","2023-10-31 21:10:18","a725c3012b74bf33a1020a98cb69c237","24.232.215.58","Mozilla/5.0 (Macintosh; Intel Mac OS X 10_15_7) AppleWebKit/537.36 (KHTML, like Gecko) Chrome/118.0.0.0 Safari/537.36","Macintosh","Chrome","118.0.0.0","OS X","10_15_7","null","en-US,en;q=0.9","true","505","tones/880hz_short.mp3","s","","","tone_number_task","1025","30","tones/880hz_short.mp3","1175","100","0","29",""
"","","","","","html-keyboard-response","176","338779","0.0-201.0-0.0","38","1","2023-10-31 21:10:18","a725c3012b74bf33a1020a98cb69c237","24.232.215.58","Mozilla/5.0 (Macintosh; Intel Mac OS X 10_15_7) AppleWebKit/537.36 (KHTML, like Gecko) Chrome/118.0.0.0 Safari/537.36","Macintosh","Chrome","118.0.0.0","OS X","10_15_7","null","en-US,en;q=0.9","true","null","","null","","","delay_block","","","","","","0","29",""
"","","","","","html-keyboard-response","177","338941","0.0-201.0-1.0","38","1","2023-10-31 21:10:18","a725c3012b74bf33a1020a98cb69c237","24.232.215.58","Mozilla/5.0 (Macintosh; Intel Mac OS X 10_15_7) AppleWebKit/537.36 (KHTML, like Gecko) Chrome/118.0.0.0 Safari/537.36","Macintosh","Chrome","118.0.0.0","OS X","10_15_7","null","en-US,en;q=0.9","true","null","<p id=""stimulus"" style=""font-size:100px;"">30</p>","null","","","tone_number_task_remaining_before_delay","","30","","670","100","0","29",""
"","","","","","html-keyboard-response","178","339289","0.0-204.0-0.0","38","1","2023-10-31 21:10:18","a725c3012b74bf33a1020a98cb69c237","24.232.215.58","Mozilla/5.0 (Macintosh; Intel Mac OS X 10_15_7) AppleWebKit/537.36 (KHTML, like Gecko) Chrome/118.0.0.0 Safari/537.36","Macintosh","Chrome","118.0.0.0","OS X","10_15_7","null","en-US,en;q=0.9","true","340","<p id=""stimulus"" style=""font-size:100px;"">30</p>","j","","","empty_block","","30","","","","0","29",""
"","","","","","html-keyboard-response","179","342241","0.0-205.0","38","1","2023-10-31 21:10:18","a725c3012b74bf33a1020a98cb69c237","24.232.215.58","Mozilla/5.0 (Macintosh; Intel Mac OS X 10_15_7) AppleWebKit/537.36 (KHTML, like Gecko) Chrome/118.0.0.0 Safari/537.36","Macintosh","Chrome","118.0.0.0","OS X","10_15_7","null","en-US,en;q=0.9","true","null","<div style=""font-size:100px;"">X</div>","null","","","fixation","","","","","","","",""
"","","","","","audio-keyboard-response","180","342505","0.0-206.0","38","1","2023-10-31 21:10:18","a725c3012b74bf33a1020a98cb69c237","24.232.215.58","Mozilla/5.0 (Macintosh; Intel Mac OS X 10_15_7) AppleWebKit/537.36 (KHTML, like Gecko) Chrome/118.0.0.0 Safari/537.36","Macintosh","Chrome","118.0.0.0","OS X","10_15_7","null","en-US,en;q=0.9","true","null","tones/880hz_short.mp3","null","","","tone_number_task","102.5","32","tones/880hz_short.mp3","252.5","100","0","30",""
"","","","","","html-keyboard-response","181","342865","0.0-209.0-0.0","38","1","2023-10-31 21:10:18","a725c3012b74bf33a1020a98cb69c237","24.232.215.58","Mozilla/5.0 (Macintosh; Intel Mac OS X 10_15_7) AppleWebKit/537.36 (KHTML, like Gecko) Chrome/118.0.0.0 Safari/537.36","Macintosh","Chrome","118.0.0.0","OS X","10_15_7","null","en-US,en;q=0.9","true","354","tones/880hz_short.mp3","s","","","empty_block","","32","","","","0","30",""
"","","","","","html-keyboard-response","182","343120","0.0-209.0-1.0","38","1","2023-10-31 21:10:18","a725c3012b74bf33a1020a98cb69c237","24.232.215.58","Mozilla/5.0 (Macintosh; Intel Mac OS X 10_15_7) AppleWebKit/537.36 (KHTML, like Gecko) Chrome/118.0.0.0 Safari/537.36","Macintosh","Chrome","118.0.0.0","OS X","10_15_7","null","en-US,en;q=0.9","true","250","tones/880hz_short.mp3","j","","","empty_block","","32","","","","0","30",""
"","","","","","html-keyboard-response","183","346069","0.0-211.0","38","1","2023-10-31 21:10:18","a725c3012b74bf33a1020a98cb69c237","24.232.215.58","Mozilla/5.0 (Macintosh; Intel Mac OS X 10_15_7) AppleWebKit/537.36 (KHTML, like Gecko) Chrome/118.0.0.0 Safari/537.36","Macintosh","Chrome","118.0.0.0","OS X","10_15_7","null","en-US,en;q=0.9","true","null","<div style=""font-size:100px;"">X</div>","null","","","fixation","","","","","","","",""
"","","","","","audio-keyboard-response","184","346685","0.0-212.0","38","1","2023-10-31 21:10:18","a725c3012b74bf33a1020a98cb69c237","24.232.215.58","Mozilla/5.0 (Macintosh; Intel Mac OS X 10_15_7) AppleWebKit/537.36 (KHTML, like Gecko) Chrome/118.0.0.0 Safari/537.36","Macintosh","Chrome","118.0.0.0","OS X","10_15_7","null","en-US,en;q=0.9","true","610","tones/440hz_short.mp3","a","","","tone_number_task","1025","30","tones/440hz_short.mp3","1175","100","0","31",""
"","","","","","html-keyboard-response","185","347112","0.0-213.0-0.0","38","1","2023-10-31 21:10:18","a725c3012b74bf33a1020a98cb69c237","24.232.215.58","Mozilla/5.0 (Macintosh; Intel Mac OS X 10_15_7) AppleWebKit/537.36 (KHTML, like Gecko) Chrome/118.0.0.0 Safari/537.36","Macintosh","Chrome","118.0.0.0","OS X","10_15_7","null","en-US,en;q=0.9","true","null","","null","","","delay_block","","","","","","0","31",""
"","","","","","html-keyboard-response","186","347272","0.0-213.0-1.0","38","1","2023-10-31 21:10:18","a725c3012b74bf33a1020a98cb69c237","24.232.215.58","Mozilla/5.0 (Macintosh; Intel Mac OS X 10_15_7) AppleWebKit/537.36 (KHTML, like Gecko) Chrome/118.0.0.0 Safari/537.36","Macintosh","Chrome","118.0.0.0","OS X","10_15_7","null","en-US,en;q=0.9","true","null","<p id=""stimulus"" style=""font-size:100px;"">30</p>","null","","","tone_number_task_remaining_before_delay","","30","","565","100","0","31",""
"","","","","","html-keyboard-response","187","347558","0.0-216.0-0.0","38","1","2023-10-31 21:10:18","a725c3012b74bf33a1020a98cb69c237","24.232.215.58","Mozilla/5.0 (Macintosh; Intel Mac OS X 10_15_7) AppleWebKit/537.36 (KHTML, like Gecko) Chrome/118.0.0.0 Safari/537.36","Macintosh","Chrome","118.0.0.0","OS X","10_15_7","null","en-US,en;q=0.9","true","279","<p id=""stimulus"" style=""font-size:100px;"">30</p>","j","","","empty_block","","30","","","","0","31",""
"","","","","","html-keyboard-response","188","350510","0.0-217.0","38","1","2023-10-31 21:10:18","a725c3012b74bf33a1020a98cb69c237","24.232.215.58","Mozilla/5.0 (Macintosh; Intel Mac OS X 10_15_7) AppleWebKit/537.36 (KHTML, like Gecko) Chrome/118.0.0.0 Safari/537.36","Macintosh","Chrome","118.0.0.0","OS X","10_15_7","null","en-US,en;q=0.9","true","null","<div style=""font-size:100px;"">X</div>","null","","","fixation","","","","","","","",""
"","","","","","audio-keyboard-response","189","351090","0.0-218.0","38","1","2023-10-31 21:10:18","a725c3012b74bf33a1020a98cb69c237","24.232.215.58","Mozilla/5.0 (Macintosh; Intel Mac OS X 10_15_7) AppleWebKit/537.36 (KHTML, like Gecko) Chrome/118.0.0.0 Safari/537.36","Macintosh","Chrome","118.0.0.0","OS X","10_15_7","null","en-US,en;q=0.9","true","569","tones/440hz_short.mp3","a","","","tone_number_task","1025","68","tones/440hz_short.mp3","1175","100","0","32",""
"","","","","","html-keyboard-response","190","351556","0.0-219.0-0.0","38","1","2023-10-31 21:10:18","a725c3012b74bf33a1020a98cb69c237","24.232.215.58","Mozilla/5.0 (Macintosh; Intel Mac OS X 10_15_7) AppleWebKit/537.36 (KHTML, like Gecko) Chrome/118.0.0.0 Safari/537.36","Macintosh","Chrome","118.0.0.0","OS X","10_15_7","null","en-US,en;q=0.9","true","null","","null","","","delay_block","","","","","","0","32",""
"","","","","","html-keyboard-response","191","351718","0.0-219.0-1.0","38","1","2023-10-31 21:10:18","a725c3012b74bf33a1020a98cb69c237","24.232.215.58","Mozilla/5.0 (Macintosh; Intel Mac OS X 10_15_7) AppleWebKit/537.36 (KHTML, like Gecko) Chrome/118.0.0.0 Safari/537.36","Macintosh","Chrome","118.0.0.0","OS X","10_15_7","null","en-US,en;q=0.9","true","null","<p id=""stimulus"" style=""font-size:100px;"">68</p>","null","","","tone_number_task_remaining_before_delay","","68","","606","100","0","32",""
"","","","","","html-keyboard-response","192","351965","0.0-222.0-0.0","38","1","2023-10-31 21:10:18","a725c3012b74bf33a1020a98cb69c237","24.232.215.58","Mozilla/5.0 (Macintosh; Intel Mac OS X 10_15_7) AppleWebKit/537.36 (KHTML, like Gecko) Chrome/118.0.0.0 Safari/537.36","Macintosh","Chrome","118.0.0.0","OS X","10_15_7","null","en-US,en;q=0.9","true","239","<p id=""stimulus"" style=""font-size:100px;"">68</p>","k","","","empty_block","","68","","","","0","32",""
"","","","","","html-keyboard-response","193","354916","0.0-223.0","38","1","2023-10-31 21:10:18","a725c3012b74bf33a1020a98cb69c237","24.232.215.58","Mozilla/5.0 (Macintosh; Intel Mac OS X 10_15_7) AppleWebKit/537.36 (KHTML, like Gecko) Chrome/118.0.0.0 Safari/537.36","Macintosh","Chrome","118.0.0.0","OS X","10_15_7","null","en-US,en;q=0.9","true","null","<div style=""font-size:100px;"">X</div>","null","","","fixation","","","","","","","",""
"","","","","","audio-keyboard-response","194","355526","0.0-224.0","38","1","2023-10-31 21:10:18","a725c3012b74bf33a1020a98cb69c237","24.232.215.58","Mozilla/5.0 (Macintosh; Intel Mac OS X 10_15_7) AppleWebKit/537.36 (KHTML, like Gecko) Chrome/118.0.0.0 Safari/537.36","Macintosh","Chrome","118.0.0.0","OS X","10_15_7","null","en-US,en;q=0.9","true","604","tones/440hz_short.mp3","a","","","tone_number_task","992.5","37","tones/440hz_short.mp3","1142.5","100","0","33",""
"","","","","","html-keyboard-response","195","355925","0.0-225.0-0.0","38","1","2023-10-31 21:10:18","a725c3012b74bf33a1020a98cb69c237","24.232.215.58","Mozilla/5.0 (Macintosh; Intel Mac OS X 10_15_7) AppleWebKit/537.36 (KHTML, like Gecko) Chrome/118.0.0.0 Safari/537.36","Macintosh","Chrome","118.0.0.0","OS X","10_15_7","null","en-US,en;q=0.9","true","null","","null","","","delay_block","","","","","","0","33",""
"","","","","","html-keyboard-response","196","356088","0.0-225.0-1.0","38","1","2023-10-31 21:10:18","a725c3012b74bf33a1020a98cb69c237","24.232.215.58","Mozilla/5.0 (Macintosh; Intel Mac OS X 10_15_7) AppleWebKit/537.36 (KHTML, like Gecko) Chrome/118.0.0.0 Safari/537.36","Macintosh","Chrome","118.0.0.0","OS X","10_15_7","null","en-US,en;q=0.9","true","null","<p id=""stimulus"" style=""font-size:100px;"">37</p>","null","","","tone_number_task_remaining_before_delay","","37","","538.5","100","0","33",""
"","","","","","html-keyboard-response","197","356409","0.0-228.0-0.0","38","1","2023-10-31 21:10:18","a725c3012b74bf33a1020a98cb69c237","24.232.215.58","Mozilla/5.0 (Macintosh; Intel Mac OS X 10_15_7) AppleWebKit/537.36 (KHTML, like Gecko) Chrome/118.0.0.0 Safari/537.36","Macintosh","Chrome","118.0.0.0","OS X","10_15_7","null","en-US,en;q=0.9","true","313","<p id=""stimulus"" style=""font-size:100px;"">37</p>","j","","","empty_block","","37","","","","0","33",""
"","","","","","html-keyboard-response","198","359355","0.0-229.0","38","1","2023-10-31 21:10:18","a725c3012b74bf33a1020a98cb69c237","24.232.215.58","Mozilla/5.0 (Macintosh; Intel Mac OS X 10_15_7) AppleWebKit/537.36 (KHTML, like Gecko) Chrome/118.0.0.0 Safari/537.36","Macintosh","Chrome","118.0.0.0","OS X","10_15_7","null","en-US,en;q=0.9","true","null","<div style=""font-size:100px;"">X</div>","null","","","fixation","","","","","","","",""
"","","","","","audio-keyboard-response","199","359617","0.0-230.0","38","1","2023-10-31 21:10:18","a725c3012b74bf33a1020a98cb69c237","24.232.215.58","Mozilla/5.0 (Macintosh; Intel Mac OS X 10_15_7) AppleWebKit/537.36 (KHTML, like Gecko) Chrome/118.0.0.0 Safari/537.36","Macintosh","Chrome","118.0.0.0","OS X","10_15_7","null","en-US,en;q=0.9","true","null","tones/440hz_short.mp3","null","","","tone_number_task","102.5","21","tones/440hz_short.mp3","252.5","100","0","34",""
"","","","","","html-keyboard-response","200","359952","0.0-233.0-0.0","38","1","2023-10-31 21:10:18","a725c3012b74bf33a1020a98cb69c237","24.232.215.58","Mozilla/5.0 (Macintosh; Intel Mac OS X 10_15_7) AppleWebKit/537.36 (KHTML, like Gecko) Chrome/118.0.0.0 Safari/537.36","Macintosh","Chrome","118.0.0.0","OS X","10_15_7","null","en-US,en;q=0.9","true","326","tones/440hz_short.mp3","a","","","empty_block","","21","","","","0","34",""
"","","","","","html-keyboard-response","201","360164","0.0-233.0-1.0","38","1","2023-10-31 21:10:18","a725c3012b74bf33a1020a98cb69c237","24.232.215.58","Mozilla/5.0 (Macintosh; Intel Mac OS X 10_15_7) AppleWebKit/537.36 (KHTML, like Gecko) Chrome/118.0.0.0 Safari/537.36","Macintosh","Chrome","118.0.0.0","OS X","10_15_7","null","en-US,en;q=0.9","true","206","tones/440hz_short.mp3","j","","","empty_block","","21","","","","0","34",""
"","","","","","html-keyboard-response","202","363115","0.0-235.0","38","1","2023-10-31 21:10:18","a725c3012b74bf33a1020a98cb69c237","24.232.215.58","Mozilla/5.0 (Macintosh; Intel Mac OS X 10_15_7) AppleWebKit/537.36 (KHTML, like Gecko) Chrome/118.0.0.0 Safari/537.36","Macintosh","Chrome","118.0.0.0","OS X","10_15_7","null","en-US,en;q=0.9","true","null","<div style=""font-size:100px;"">X</div>","null","","","fixation","","","","","","","",""
"","","","","","audio-keyboard-response","203","363276","0.0-236.0","38","1","2023-10-31 21:10:18","a725c3012b74bf33a1020a98cb69c237","24.232.215.58","Mozilla/5.0 (Macintosh; Intel Mac OS X 10_15_7) AppleWebKit/537.36 (KHTML, like Gecko) Chrome/118.0.0.0 Safari/537.36","Macintosh","Chrome","118.0.0.0","OS X","10_15_7","null","en-US,en;q=0.9","true","null","tones/440hz_short.mp3","null","","","tone_number_task","0","66","tones/440hz_short.mp3","150","100","0","35",""
"","","","","","html-keyboard-response","204","363876","0.0-239.0-0.0","38","1","2023-10-31 21:10:18","a725c3012b74bf33a1020a98cb69c237","24.232.215.58","Mozilla/5.0 (Macintosh; Intel Mac OS X 10_15_7) AppleWebKit/537.36 (KHTML, like Gecko) Chrome/118.0.0.0 Safari/537.36","Macintosh","Chrome","118.0.0.0","OS X","10_15_7","null","en-US,en;q=0.9","true","591","tones/440hz_short.mp3","a","","","empty_block","","66","","","","0","35",""
"","","","","","html-keyboard-response","205","364080","0.0-239.0-1.0","38","1","2023-10-31 21:10:18","a725c3012b74bf33a1020a98cb69c237","24.232.215.58","Mozilla/5.0 (Macintosh; Intel Mac OS X 10_15_7) AppleWebKit/537.36 (KHTML, like Gecko) Chrome/118.0.0.0 Safari/537.36","Macintosh","Chrome","118.0.0.0","OS X","10_15_7","null","en-US,en;q=0.9","true","199","tones/440hz_short.mp3","k","","","empty_block","","66","","","","0","35",""
"","","","","","html-keyboard-response","206","367033","0.0-241.0","38","1","2023-10-31 21:10:18","a725c3012b74bf33a1020a98cb69c237","24.232.215.58","Mozilla/5.0 (Macintosh; Intel Mac OS X 10_15_7) AppleWebKit/537.36 (KHTML, like Gecko) Chrome/118.0.0.0 Safari/537.36","Macintosh","Chrome","118.0.0.0","OS X","10_15_7","null","en-US,en;q=0.9","true","null","<div style=""font-size:100px;"">X</div>","null","","","fixation","","","","","","","",""
"","","","","","audio-keyboard-response","207","367194","0.0-242.0","38","1","2023-10-31 21:10:18","a725c3012b74bf33a1020a98cb69c237","24.232.215.58","Mozilla/5.0 (Macintosh; Intel Mac OS X 10_15_7) AppleWebKit/537.36 (KHTML, like Gecko) Chrome/118.0.0.0 Safari/537.36","Macintosh","Chrome","118.0.0.0","OS X","10_15_7","null","en-US,en;q=0.9","true","null","tones/440hz_short.mp3","null","","","tone_number_task","0","43","tones/440hz_short.mp3","150","100","0","36",""
"","","","","","html-keyboard-response","208","368044","0.0-245.0-0.0","38","1","2023-10-31 21:10:18","a725c3012b74bf33a1020a98cb69c237","24.232.215.58","Mozilla/5.0 (Macintosh; Intel Mac OS X 10_15_7) AppleWebKit/537.36 (KHTML, like Gecko) Chrome/118.0.0.0 Safari/537.36","Macintosh","Chrome","118.0.0.0","OS X","10_15_7","null","en-US,en;q=0.9","true","843","tones/440hz_short.mp3","a","","","empty_block","","43","","","","0","36",""
"","","","","","html-keyboard-response","209","368144","0.0-245.0-1.0","38","1","2023-10-31 21:10:18","a725c3012b74bf33a1020a98cb69c237","24.232.215.58","Mozilla/5.0 (Macintosh; Intel Mac OS X 10_15_7) AppleWebKit/537.36 (KHTML, like Gecko) Chrome/118.0.0.0 Safari/537.36","Macintosh","Chrome","118.0.0.0","OS X","10_15_7","null","en-US,en;q=0.9","true","93","tones/440hz_short.mp3","j","","","empty_block","","43","","","","0","36",""
"","","","","","html-keyboard-response","210","371095","0.0-247.0","38","1","2023-10-31 21:10:18","a725c3012b74bf33a1020a98cb69c237","24.232.215.58","Mozilla/5.0 (Macintosh; Intel Mac OS X 10_15_7) AppleWebKit/537.36 (KHTML, like Gecko) Chrome/118.0.0.0 Safari/537.36","Macintosh","Chrome","118.0.0.0","OS X","10_15_7","null","en-US,en;q=0.9","true","null","<div style=""font-size:100px;"">X</div>","null","","","fixation","","","","","","","",""
"","","","","","audio-keyboard-response","211","371722","0.0-248.0","38","1","2023-10-31 21:10:18","a725c3012b74bf33a1020a98cb69c237","24.232.215.58","Mozilla/5.0 (Macintosh; Intel Mac OS X 10_15_7) AppleWebKit/537.36 (KHTML, like Gecko) Chrome/118.0.0.0 Safari/537.36","Macintosh","Chrome","118.0.0.0","OS X","10_15_7","null","en-US,en;q=0.9","true","621","tones/440hz_short.mp3","a","","","tone_number_task","992.5","27","tones/440hz_short.mp3","1142.5","100","0","37",""
"","","","","","html-keyboard-response","212","372103","0.0-249.0-0.0","38","1","2023-10-31 21:10:18","a725c3012b74bf33a1020a98cb69c237","24.232.215.58","Mozilla/5.0 (Macintosh; Intel Mac OS X 10_15_7) AppleWebKit/537.36 (KHTML, like Gecko) Chrome/118.0.0.0 Safari/537.36","Macintosh","Chrome","118.0.0.0","OS X","10_15_7","null","en-US,en;q=0.9","true","null","","null","","","delay_block","","","","","","0","37",""
"","","","","","html-keyboard-response","213","372270","0.0-249.0-1.0","38","1","2023-10-31 21:10:18","a725c3012b74bf33a1020a98cb69c237","24.232.215.58","Mozilla/5.0 (Macintosh; Intel Mac OS X 10_15_7) AppleWebKit/537.36 (KHTML, like Gecko) Chrome/118.0.0.0 Safari/537.36","Macintosh","Chrome","118.0.0.0","OS X","10_15_7","null","en-US,en;q=0.9","true","null","<p id=""stimulus"" style=""font-size:100px;"">27</p>","null","","","tone_number_task_remaining_before_delay","","27","","521.5","100","0","37",""
"","","","","","html-keyboard-response","214","372597","0.0-252.0-0.0","38","1","2023-10-31 21:10:18","a725c3012b74bf33a1020a98cb69c237","24.232.215.58","Mozilla/5.0 (Macintosh; Intel Mac OS X 10_15_7) AppleWebKit/537.36 (KHTML, like Gecko) Chrome/118.0.0.0 Safari/537.36","Macintosh","Chrome","118.0.0.0","OS X","10_15_7","null","en-US,en;q=0.9","true","318","<p id=""stimulus"" style=""font-size:100px;"">27</p>","j","","","empty_block","","27","","","","0","37",""
"","","","","","html-keyboard-response","215","375547","0.0-253.0","38","1","2023-10-31 21:10:18","a725c3012b74bf33a1020a98cb69c237","24.232.215.58","Mozilla/5.0 (Macintosh; Intel Mac OS X 10_15_7) AppleWebKit/537.36 (KHTML, like Gecko) Chrome/118.0.0.0 Safari/537.36","Macintosh","Chrome","118.0.0.0","OS X","10_15_7","null","en-US,en;q=0.9","true","null","<div style=""font-size:100px;"">X</div>","null","","","fixation","","","","","","","",""
