"success","timeout","failed_images","failed_audio","failed_video","trial_type","trial_index","time_elapsed","internal_node_id","run_id","condition","recorded_at","source_code_version","ip","user_agent","device","browser","browser_version","platform","platform_version","referer","accept_language","check","rt","stimulus","response","question_order","url","task","delay","number","audioFile","trial_duration","font_size","block","round","value"
"true","false","[]","[]","[]","preload","0","469","0.0-0.0","34","1","2023-10-31 21:04:32","a725c3012b74bf33a1020a98cb69c237","179.38.69.223","Mozilla/5.0 (Macintosh; Intel Mac OS X 10_15_7) AppleWebKit/537.36 (KHTML, like Gecko) Chrome/118.0.0.0 Safari/537.36","Macintosh","Chrome","118.0.0.0","OS X","10_15_7","null","en-US,en;q=0.9,es;q=0.8","true","","","","","","","","","","","","","",""
"true","","","","","fullscreen","1","3735","0.0-1.0","34","1","2023-10-31 21:04:32","a725c3012b74bf33a1020a98cb69c237","179.38.69.223","Mozilla/5.0 (Macintosh; Intel Mac OS X 10_15_7) AppleWebKit/537.36 (KHTML, like Gecko) Chrome/118.0.0.0 Safari/537.36","Macintosh","Chrome","118.0.0.0","OS X","10_15_7","null","en-US,en;q=0.9,es;q=0.8","true","","","","","","","","","","","","","",""
"","","","","","html-button-response","2","5547","0.0-2.0","34","1","2023-10-31 21:04:32","a725c3012b74bf33a1020a98cb69c237","179.38.69.223","Mozilla/5.0 (Macintosh; Intel Mac OS X 10_15_7) AppleWebKit/537.36 (KHTML, like Gecko) Chrome/118.0.0.0 Safari/537.36","Macintosh","Chrome","118.0.0.0","OS X","10_15_7","null","en-US,en;q=0.9,es;q=0.8","true","1811","<p style=""font-size:24px; color:red;"">Cosas importantes a tener en cuenta antes de comenzar el experimento:</p>","0","","","","","","","","","","",""
"","","","","","html-button-response","3","11064","0.0-3.0","34","1","2023-10-31 21:04:32","a725c3012b74bf33a1020a98cb69c237","179.38.69.223","Mozilla/5.0 (Macintosh; Intel Mac OS X 10_15_7) AppleWebKit/537.36 (KHTML, like Gecko) Chrome/118.0.0.0 Safari/537.36","Macintosh","Chrome","118.0.0.0","OS X","10_15_7","null","en-US,en;q=0.9,es;q=0.8","true","5517","<p style=""font-size:24px;"">El experimento dura aproximadamente 15 minutos.</p><p style=""font-size:24px;"">Por favor, no cierres la ventana del navegador durante el experimento.</p><p style=""font-size:24px;"">Si se completa de forma parcial, no se guardará ningún resultado.</p>","0","","","","","","","","","","",""
"","","","","","html-button-response","4","26539","0.0-4.0","34","1","2023-10-31 21:04:32","a725c3012b74bf33a1020a98cb69c237","179.38.69.223","Mozilla/5.0 (Macintosh; Intel Mac OS X 10_15_7) AppleWebKit/537.36 (KHTML, like Gecko) Chrome/118.0.0.0 Safari/537.36","Macintosh","Chrome","118.0.0.0","OS X","10_15_7","null","en-US,en;q=0.9,es;q=0.8","true","15474","<p style=""font-size:24px;"">El experimento contiene estímulos sonoros.</p>","0","","","","","","","","","","",""
"","","","","","audio-button-response","5","51739","0.0-5.0-0.0","34","1","2023-10-31 21:04:32","a725c3012b74bf33a1020a98cb69c237","179.38.69.223","Mozilla/5.0 (Macintosh; Intel Mac OS X 10_15_7) AppleWebKit/537.36 (KHTML, like Gecko) Chrome/118.0.0.0 Safari/537.36","Macintosh","Chrome","118.0.0.0","OS X","10_15_7","null","en-US,en;q=0.9,es;q=0.8","true","24907","tones/440hz_short.mp3","0","","","","","","","","","","",""
"","","","","","audio-button-response","6","60973","0.0-5.1-0.1","34","1","2023-10-31 21:04:32","a725c3012b74bf33a1020a98cb69c237","179.38.69.223","Mozilla/5.0 (Macintosh; Intel Mac OS X 10_15_7) AppleWebKit/537.36 (KHTML, like Gecko) Chrome/118.0.0.0 Safari/537.36","Macintosh","Chrome","118.0.0.0","OS X","10_15_7","null","en-US,en;q=0.9,es;q=0.8","true","9232","tones/440hz_short.mp3","1","","","","","","","","","","",""
"","","","","","audio-button-response","7","65436","0.0-6.0-0.0","34","1","2023-10-31 21:04:32","a725c3012b74bf33a1020a98cb69c237","179.38.69.223","Mozilla/5.0 (Macintosh; Intel Mac OS X 10_15_7) AppleWebKit/537.36 (KHTML, like Gecko) Chrome/118.0.0.0 Safari/537.36","Macintosh","Chrome","118.0.0.0","OS X","10_15_7","null","en-US,en;q=0.9,es;q=0.8","true","4464","tones/880hz_short.mp3","1","","","","","","","","","","",""
"","","","","","survey-html-form","8","68215","0.0-7.0","34","1","2023-10-31 21:04:32","a725c3012b74bf33a1020a98cb69c237","179.38.69.223","Mozilla/5.0 (Macintosh; Intel Mac OS X 10_15_7) AppleWebKit/537.36 (KHTML, like Gecko) Chrome/118.0.0.0 Safari/537.36","Macintosh","Chrome","118.0.0.0","OS X","10_15_7","null","en-US,en;q=0.9,es;q=0.8","true","2776","","{""response"":""36""}","","","","","","","","","","",""
"","","","","","survey-multi-choice","9","73979","0.0-8.0","34","1","2023-10-31 21:04:32","a725c3012b74bf33a1020a98cb69c237","179.38.69.223","Mozilla/5.0 (Macintosh; Intel Mac OS X 10_15_7) AppleWebKit/537.36 (KHTML, like Gecko) Chrome/118.0.0.0 Safari/537.36","Macintosh","Chrome","118.0.0.0","OS X","10_15_7","null","en-US,en;q=0.9,es;q=0.8","true","5762","","{""gender"":""Mujer"",""hand"":""Izquierda""}","[0,1]","","","","","","","","","",""
"","","","","","external-html","10","129793","0.0-9.0","34","1","2023-10-31 21:04:32","a725c3012b74bf33a1020a98cb69c237","179.38.69.223","Mozilla/5.0 (Macintosh; Intel Mac OS X 10_15_7) AppleWebKit/537.36 (KHTML, like Gecko) Chrome/118.0.0.0 Safari/537.36","Macintosh","Chrome","118.0.0.0","OS X","10_15_7","null","en-US,en;q=0.9,es;q=0.8","true","55493","","","","instructions/instructions.html","","","","","","","","",""
"","","","","","external-html","11","157503","0.0-10.0","34","1","2023-10-31 21:04:32","a725c3012b74bf33a1020a98cb69c237","179.38.69.223","Mozilla/5.0 (Macintosh; Intel Mac OS X 10_15_7) AppleWebKit/537.36 (KHTML, like Gecko) Chrome/118.0.0.0 Safari/537.36","Macintosh","Chrome","118.0.0.0","OS X","10_15_7","null","en-US,en;q=0.9,es;q=0.8","true","27381","","","","instructions/animation.html","","","","","","","","",""
"","","","","","html-keyboard-response","12","160252","0.0-11.0-0.0","34","1","2023-10-31 21:04:32","a725c3012b74bf33a1020a98cb69c237","179.38.69.223","Mozilla/5.0 (Macintosh; Intel Mac OS X 10_15_7) AppleWebKit/537.36 (KHTML, like Gecko) Chrome/118.0.0.0 Safari/537.36","Macintosh","Chrome","118.0.0.0","OS X","10_15_7","null","en-US,en;q=0.9,es;q=0.8","true","null","<div style=""font-size:100px;"">X</div>","null","","","fixation","","","","","","","",""
"","","","","","audio-keyboard-response","13","160861","0.0-11.0-1.0","34","1","2023-10-31 21:04:32","a725c3012b74bf33a1020a98cb69c237","179.38.69.223","Mozilla/5.0 (Macintosh; Intel Mac OS X 10_15_7) AppleWebKit/537.36 (KHTML, like Gecko) Chrome/118.0.0.0 Safari/537.36","Macintosh","Chrome","118.0.0.0","OS X","10_15_7","null","en-US,en;q=0.9,es;q=0.8","true","523","tones/440hz_short.mp3","a","","","tone_number_task","1000","24","tones/440hz_short.mp3","1150","100","null","null",""
"","","","","","html-keyboard-response","14","161341","0.0-11.0-2.0-0.0","34","1","2023-10-31 21:04:32","a725c3012b74bf33a1020a98cb69c237","179.38.69.223","Mozilla/5.0 (Macintosh; Intel Mac OS X 10_15_7) AppleWebKit/537.36 (KHTML, like Gecko) Chrome/118.0.0.0 Safari/537.36","Macintosh","Chrome","118.0.0.0","OS X","10_15_7","null","en-US,en;q=0.9,es;q=0.8","true","null","","null","","","delay_block","","","","","","null","null",""
"","","","","","html-keyboard-response","15","161495","0.0-11.0-2.0-1.0","34","1","2023-10-31 21:04:32","a725c3012b74bf33a1020a98cb69c237","179.38.69.223","Mozilla/5.0 (Macintosh; Intel Mac OS X 10_15_7) AppleWebKit/537.36 (KHTML, like Gecko) Chrome/118.0.0.0 Safari/537.36","Macintosh","Chrome","118.0.0.0","OS X","10_15_7","null","en-US,en;q=0.9,es;q=0.8","true","null","<p id=""stimulus"" style=""font-size:100px;"">24</p>","null","","","tone_number_task_remaining_before_delay","","24","","627","100","null","null",""
"","","","","","html-keyboard-response","16","162363","0.0-11.0-5.0-0.0","34","1","2023-10-31 21:04:32","a725c3012b74bf33a1020a98cb69c237","179.38.69.223","Mozilla/5.0 (Macintosh; Intel Mac OS X 10_15_7) AppleWebKit/537.36 (KHTML, like Gecko) Chrome/118.0.0.0 Safari/537.36","Macintosh","Chrome","118.0.0.0","OS X","10_15_7","null","en-US,en;q=0.9,es;q=0.8","true","866","<p id=""stimulus"" style=""font-size:100px;"">24</p>","j","","","empty_block","","24","","","","null","null",""
"","","","","","html-keyboard-response","17","165106","0.0-13.0-0.0","34","1","2023-10-31 21:04:32","a725c3012b74bf33a1020a98cb69c237","179.38.69.223","Mozilla/5.0 (Macintosh; Intel Mac OS X 10_15_7) AppleWebKit/537.36 (KHTML, like Gecko) Chrome/118.0.0.0 Safari/537.36","Macintosh","Chrome","118.0.0.0","OS X","10_15_7","null","en-US,en;q=0.9,es;q=0.8","true","null","<div style=""font-size:100px;"">X</div>","null","","","fixation","","","","","","","",""
"","","","","","audio-keyboard-response","18","165612","0.0-13.0-1.0","34","1","2023-10-31 21:04:32","a725c3012b74bf33a1020a98cb69c237","179.38.69.223","Mozilla/5.0 (Macintosh; Intel Mac OS X 10_15_7) AppleWebKit/537.36 (KHTML, like Gecko) Chrome/118.0.0.0 Safari/537.36","Macintosh","Chrome","118.0.0.0","OS X","10_15_7","null","en-US,en;q=0.9,es;q=0.8","true","501","tones/440hz_short.mp3","a","","","tone_number_task","500","42","tones/440hz_short.mp3","650","100","null","null",""
"","","","","","html-keyboard-response","19","165763","0.0-13.0-3.0-0.0","34","1","2023-10-31 21:04:32","a725c3012b74bf33a1020a98cb69c237","179.38.69.223","Mozilla/5.0 (Macintosh; Intel Mac OS X 10_15_7) AppleWebKit/537.36 (KHTML, like Gecko) Chrome/118.0.0.0 Safari/537.36","Macintosh","Chrome","118.0.0.0","OS X","10_15_7","null","en-US,en;q=0.9,es;q=0.8","true","null","<p id=""stimulus"" style=""font-size:100px;"">42</p>","null","","","tone_number_task_remaining_after_delay","","42","","","100","null","null",""
"","","","","","html-keyboard-response","20","166138","0.0-13.0-5.0-0.0","34","1","2023-10-31 21:04:32","a725c3012b74bf33a1020a98cb69c237","179.38.69.223","Mozilla/5.0 (Macintosh; Intel Mac OS X 10_15_7) AppleWebKit/537.36 (KHTML, like Gecko) Chrome/118.0.0.0 Safari/537.36","Macintosh","Chrome","118.0.0.0","OS X","10_15_7","null","en-US,en;q=0.9,es;q=0.8","true","374","<p id=""stimulus"" style=""font-size:100px;"">42</p>","j","","","empty_block","","42","","","","null","null",""
"","","","","","html-keyboard-response","21","168882","0.0-15.0-0.0","34","1","2023-10-31 21:04:32","a725c3012b74bf33a1020a98cb69c237","179.38.69.223","Mozilla/5.0 (Macintosh; Intel Mac OS X 10_15_7) AppleWebKit/537.36 (KHTML, like Gecko) Chrome/118.0.0.0 Safari/537.36","Macintosh","Chrome","118.0.0.0","OS X","10_15_7","null","en-US,en;q=0.9,es;q=0.8","true","null","<div style=""font-size:100px;"">X</div>","null","","","fixation","","","","","","","",""
"","","","","","audio-keyboard-response","22","169185","0.0-15.0-1.0","34","1","2023-10-31 21:04:32","a725c3012b74bf33a1020a98cb69c237","179.38.69.223","Mozilla/5.0 (Macintosh; Intel Mac OS X 10_15_7) AppleWebKit/537.36 (KHTML, like Gecko) Chrome/118.0.0.0 Safari/537.36","Macintosh","Chrome","118.0.0.0","OS X","10_15_7","null","en-US,en;q=0.9,es;q=0.8","true","null","tones/880hz_short.mp3","null","","","tone_number_task","150","26","tones/880hz_short.mp3","300","100","null","null",""
"","","","","","html-keyboard-response","23","169622","0.0-15.0-4.0-0.0","34","1","2023-10-31 21:04:32","a725c3012b74bf33a1020a98cb69c237","179.38.69.223","Mozilla/5.0 (Macintosh; Intel Mac OS X 10_15_7) AppleWebKit/537.36 (KHTML, like Gecko) Chrome/118.0.0.0 Safari/537.36","Macintosh","Chrome","118.0.0.0","OS X","10_15_7","null","en-US,en;q=0.9,es;q=0.8","true","436","tones/880hz_short.mp3","s","","","empty_block","","26","","","","null","null",""
"","","","","","html-keyboard-response","24","170063","0.0-15.0-4.0-1.0","34","1","2023-10-31 21:04:32","a725c3012b74bf33a1020a98cb69c237","179.38.69.223","Mozilla/5.0 (Macintosh; Intel Mac OS X 10_15_7) AppleWebKit/537.36 (KHTML, like Gecko) Chrome/118.0.0.0 Safari/537.36","Macintosh","Chrome","118.0.0.0","OS X","10_15_7","null","en-US,en;q=0.9,es;q=0.8","true","439","tones/880hz_short.mp3","j","","","empty_block","","26","","","","null","null",""
"","","","","","html-keyboard-response","25","172805","0.0-17.0-0.0","34","1","2023-10-31 21:04:32","a725c3012b74bf33a1020a98cb69c237","179.38.69.223","Mozilla/5.0 (Macintosh; Intel Mac OS X 10_15_7) AppleWebKit/537.36 (KHTML, like Gecko) Chrome/118.0.0.0 Safari/537.36","Macintosh","Chrome","118.0.0.0","OS X","10_15_7","null","en-US,en;q=0.9,es;q=0.8","true","null","<div style=""font-size:100px;"">X</div>","null","","","fixation","","","","","","","",""
"","","","","","audio-keyboard-response","26","173010","0.0-17.0-1.0","34","1","2023-10-31 21:04:32","a725c3012b74bf33a1020a98cb69c237","179.38.69.223","Mozilla/5.0 (Macintosh; Intel Mac OS X 10_15_7) AppleWebKit/537.36 (KHTML, like Gecko) Chrome/118.0.0.0 Safari/537.36","Macintosh","Chrome","118.0.0.0","OS X","10_15_7","null","en-US,en;q=0.9,es;q=0.8","true","null","tones/440hz_short.mp3","null","","","tone_number_task","50","58","tones/440hz_short.mp3","200","100","null","null",""
"","","","","","html-keyboard-response","27","173761","0.0-17.0-4.0-0.0","34","1","2023-10-31 21:04:32","a725c3012b74bf33a1020a98cb69c237","179.38.69.223","Mozilla/5.0 (Macintosh; Intel Mac OS X 10_15_7) AppleWebKit/537.36 (KHTML, like Gecko) Chrome/118.0.0.0 Safari/537.36","Macintosh","Chrome","118.0.0.0","OS X","10_15_7","null","en-US,en;q=0.9,es;q=0.8","true","750","tones/440hz_short.mp3","a","","","empty_block","","58","","","","null","null",""
"","","","","","html-keyboard-response","28","174025","0.0-17.0-4.0-1.0","34","1","2023-10-31 21:04:32","a725c3012b74bf33a1020a98cb69c237","179.38.69.223","Mozilla/5.0 (Macintosh; Intel Mac OS X 10_15_7) AppleWebKit/537.36 (KHTML, like Gecko) Chrome/118.0.0.0 Safari/537.36","Macintosh","Chrome","118.0.0.0","OS X","10_15_7","null","en-US,en;q=0.9,es;q=0.8","true","262","tones/440hz_short.mp3","k","","","empty_block","","58","","","","null","null",""
"","","","","","html-button-response","29","178239","0.0-19.0","34","1","2023-10-31 21:04:32","a725c3012b74bf33a1020a98cb69c237","179.38.69.223","Mozilla/5.0 (Macintosh; Intel Mac OS X 10_15_7) AppleWebKit/537.36 (KHTML, like Gecko) Chrome/118.0.0.0 Safari/537.36","Macintosh","Chrome","118.0.0.0","OS X","10_15_7","null","en-US,en;q=0.9,es;q=0.8","true","4212","
  <h1> Muy bien </h1>
  <p> Ahora, en vez de ser presentados en dígitos, los números vendrán escritos en palabras. </p>
  <p> Por ejemplo, en vez de 44 te aparecerá ""cuarenta y cuatro"". </p>
  ","0","","","","","","","","","","",""
"","","","","","html-keyboard-response","30","180982","0.0-20.0-0.0","34","1","2023-10-31 21:04:32","a725c3012b74bf33a1020a98cb69c237","179.38.69.223","Mozilla/5.0 (Macintosh; Intel Mac OS X 10_15_7) AppleWebKit/537.36 (KHTML, like Gecko) Chrome/118.0.0.0 Safari/537.36","Macintosh","Chrome","118.0.0.0","OS X","10_15_7","null","en-US,en;q=0.9,es;q=0.8","true","null","<div style=""font-size:100px;"">X</div>","null","","","fixation","","","","","","","",""
"","","","","","audio-keyboard-response","31","181410","0.0-20.0-1.0","34","1","2023-10-31 21:04:32","a725c3012b74bf33a1020a98cb69c237","179.38.69.223","Mozilla/5.0 (Macintosh; Intel Mac OS X 10_15_7) AppleWebKit/537.36 (KHTML, like Gecko) Chrome/118.0.0.0 Safari/537.36","Macintosh","Chrome","118.0.0.0","OS X","10_15_7","null","en-US,en;q=0.9,es;q=0.8","true","421","tones/440hz_short.mp3","a","","","tone_number_task","1000","cuarenta y ocho","tones/440hz_short.mp3","1150","60","null","null",""
"","","","","","html-keyboard-response","32","181991","0.0-20.0-2.0-0.0","34","1","2023-10-31 21:04:32","a725c3012b74bf33a1020a98cb69c237","179.38.69.223","Mozilla/5.0 (Macintosh; Intel Mac OS X 10_15_7) AppleWebKit/537.36 (KHTML, like Gecko) Chrome/118.0.0.0 Safari/537.36","Macintosh","Chrome","118.0.0.0","OS X","10_15_7","null","en-US,en;q=0.9,es;q=0.8","true","null","","null","","","delay_block","","","","","","null","null",""
"","","","","","html-keyboard-response","33","182146","0.0-20.0-2.0-1.0","34","1","2023-10-31 21:04:32","a725c3012b74bf33a1020a98cb69c237","179.38.69.223","Mozilla/5.0 (Macintosh; Intel Mac OS X 10_15_7) AppleWebKit/537.36 (KHTML, like Gecko) Chrome/118.0.0.0 Safari/537.36","Macintosh","Chrome","118.0.0.0","OS X","10_15_7","null","en-US,en;q=0.9,es;q=0.8","true","null","<p id=""stimulus"" style=""font-size:60px;"">cuarenta y ocho</p>","null","","","tone_number_task_remaining_before_delay","","cuarenta y ocho","","729","60","null","null",""
"","","","","","html-keyboard-response","34","183304","0.0-20.0-5.0-0.0","34","1","2023-10-31 21:04:32","a725c3012b74bf33a1020a98cb69c237","179.38.69.223","Mozilla/5.0 (Macintosh; Intel Mac OS X 10_15_7) AppleWebKit/537.36 (KHTML, like Gecko) Chrome/118.0.0.0 Safari/537.36","Macintosh","Chrome","118.0.0.0","OS X","10_15_7","null","en-US,en;q=0.9,es;q=0.8","true","1155","<p id=""stimulus"" style=""font-size:60px;"">cuarenta y ocho</p>","j","","","empty_block","","cuarenta y ocho","","","","null","null",""
"","","","","","html-button-response","35","186936","0.0-20.0-6.0-0.0","34","1","2023-10-31 21:04:32","a725c3012b74bf33a1020a98cb69c237","179.38.69.223","Mozilla/5.0 (Macintosh; Intel Mac OS X 10_15_7) AppleWebKit/537.36 (KHTML, like Gecko) Chrome/118.0.0.0 Safari/537.36","Macintosh","Chrome","118.0.0.0","OS X","10_15_7","null","en-US,en;q=0.9,es;q=0.8","true","3631","
  '<p style=""font-size:24px; color:red;"">Incorrecto</p><p> Respondiste alguno de los estímulos de manera incorrecta.</p><p>Por favor, repasá las instrucciones y seguimos desde donde nos quedamos. </p>
  ","0","","","","","","","","","","",""
"","","","","","external-html","36","191883","0.0-20.0-6.0-1.0","34","1","2023-10-31 21:04:32","a725c3012b74bf33a1020a98cb69c237","179.38.69.223","Mozilla/5.0 (Macintosh; Intel Mac OS X 10_15_7) AppleWebKit/537.36 (KHTML, like Gecko) Chrome/118.0.0.0 Safari/537.36","Macintosh","Chrome","118.0.0.0","OS X","10_15_7","null","en-US,en;q=0.9,es;q=0.8","true","4600","","","","instructions/instructions_B.html","","","","","","","","",""
"","","","","","html-keyboard-response","37","194631","0.0-20.1-0.1","34","1","2023-10-31 21:04:32","a725c3012b74bf33a1020a98cb69c237","179.38.69.223","Mozilla/5.0 (Macintosh; Intel Mac OS X 10_15_7) AppleWebKit/537.36 (KHTML, like Gecko) Chrome/118.0.0.0 Safari/537.36","Macintosh","Chrome","118.0.0.0","OS X","10_15_7","null","en-US,en;q=0.9,es;q=0.8","true","null","<div style=""font-size:100px;"">X</div>","null","","","fixation","","","","","","","",""
"","","","","","audio-keyboard-response","38","195317","0.0-20.1-1.1","34","1","2023-10-31 21:04:32","a725c3012b74bf33a1020a98cb69c237","179.38.69.223","Mozilla/5.0 (Macintosh; Intel Mac OS X 10_15_7) AppleWebKit/537.36 (KHTML, like Gecko) Chrome/118.0.0.0 Safari/537.36","Macintosh","Chrome","118.0.0.0","OS X","10_15_7","null","en-US,en;q=0.9,es;q=0.8","true","683","tones/440hz_short.mp3","a","","","tone_number_task","1000","cuarenta y ocho","tones/440hz_short.mp3","1150","60","null","null",""
"","","","","","html-keyboard-response","39","195637","0.0-20.1-2.1-0.1","34","1","2023-10-31 21:04:32","a725c3012b74bf33a1020a98cb69c237","179.38.69.223","Mozilla/5.0 (Macintosh; Intel Mac OS X 10_15_7) AppleWebKit/537.36 (KHTML, like Gecko) Chrome/118.0.0.0 Safari/537.36","Macintosh","Chrome","118.0.0.0","OS X","10_15_7","null","en-US,en;q=0.9,es;q=0.8","true","null","","null","","","delay_block","","","","","","null","null",""
"","","","","","html-keyboard-response","40","195789","0.0-20.1-2.1-1.1","34","1","2023-10-31 21:04:32","a725c3012b74bf33a1020a98cb69c237","179.38.69.223","Mozilla/5.0 (Macintosh; Intel Mac OS X 10_15_7) AppleWebKit/537.36 (KHTML, like Gecko) Chrome/118.0.0.0 Safari/537.36","Macintosh","Chrome","118.0.0.0","OS X","10_15_7","null","en-US,en;q=0.9,es;q=0.8","true","null","<p id=""stimulus"" style=""font-size:60px;"">cuarenta y ocho</p>","null","","","tone_number_task_remaining_before_delay","","cuarenta y ocho","","467","60","null","null",""
"","","","","","html-keyboard-response","41","196887","0.0-20.1-5.1-0.1","34","1","2023-10-31 21:04:32","a725c3012b74bf33a1020a98cb69c237","179.38.69.223","Mozilla/5.0 (Macintosh; Intel Mac OS X 10_15_7) AppleWebKit/537.36 (KHTML, like Gecko) Chrome/118.0.0.0 Safari/537.36","Macintosh","Chrome","118.0.0.0","OS X","10_15_7","null","en-US,en;q=0.9,es;q=0.8","true","1097","<p id=""stimulus"" style=""font-size:60px;"">cuarenta y ocho</p>","k","","","empty_block","","cuarenta y ocho","","","","null","null",""
"","","","","","html-button-response","42","204346","0.0-22.0","34","1","2023-10-31 21:04:32","a725c3012b74bf33a1020a98cb69c237","179.38.69.223","Mozilla/5.0 (Macintosh; Intel Mac OS X 10_15_7) AppleWebKit/537.36 (KHTML, like Gecko) Chrome/118.0.0.0 Safari/537.36","Macintosh","Chrome","118.0.0.0","OS X","10_15_7","null","en-US,en;q=0.9,es;q=0.8","true","7456","
  <h1> Fin del Entrenamiento </h1>
  <p> ¡Felicitaciones, terminaste el entrenamiento! Ahora vamos a comenzar con el experimento. </p>
  <p> Es importante tener en cuenta que consta de cuatro bloques.</p>
  <p> Podés aprovechar los momentos entre bloques para tomar un breve descanso o tomar agua entre cada uno</p>
  <p> Recordá que tenés que responder lo más rápido que puedas, pero sin equivocarte. </p>
  ","0","","","","","","","","","","",""
"","","","","","external-html","43","212522","0.0-23.0","34","1","2023-10-31 21:04:32","a725c3012b74bf33a1020a98cb69c237","179.38.69.223","Mozilla/5.0 (Macintosh; Intel Mac OS X 10_15_7) AppleWebKit/537.36 (KHTML, like Gecko) Chrome/118.0.0.0 Safari/537.36","Macintosh","Chrome","118.0.0.0","OS X","10_15_7","null","en-US,en;q=0.9,es;q=0.8","true","7847","","","","instructions/instructions_words_first.html","","","","","","","","",""
"","","","","","call-function","44","212525","0.0-24.0","34","1","2023-10-31 21:04:32","a725c3012b74bf33a1020a98cb69c237","179.38.69.223","Mozilla/5.0 (Macintosh; Intel Mac OS X 10_15_7) AppleWebKit/537.36 (KHTML, like Gecko) Chrome/118.0.0.0 Safari/537.36","Macintosh","Chrome","118.0.0.0","OS X","10_15_7","null","en-US,en;q=0.9,es;q=0.8","true","","","","","","","","","","","","","",""
"","","","","","html-keyboard-response","45","215271","0.0-25.0","34","1","2023-10-31 21:04:32","a725c3012b74bf33a1020a98cb69c237","179.38.69.223","Mozilla/5.0 (Macintosh; Intel Mac OS X 10_15_7) AppleWebKit/537.36 (KHTML, like Gecko) Chrome/118.0.0.0 Safari/537.36","Macintosh","Chrome","118.0.0.0","OS X","10_15_7","null","en-US,en;q=0.9,es;q=0.8","true","null","<div style=""font-size:100px;"">X</div>","null","","","fixation","","","","","","","",""
"","","","","","audio-keyboard-response","46","215690","0.0-26.0","34","1","2023-10-31 21:04:32","a725c3012b74bf33a1020a98cb69c237","179.38.69.223","Mozilla/5.0 (Macintosh; Intel Mac OS X 10_15_7) AppleWebKit/537.36 (KHTML, like Gecko) Chrome/118.0.0.0 Safari/537.36","Macintosh","Chrome","118.0.0.0","OS X","10_15_7","null","en-US,en;q=0.9,es;q=0.8","true","416","tones/440hz_short.mp3","a","","","tone_number_task","992.5","cuarenta y cuatro","tones/440hz_short.mp3","1142.5","60","2","0",""
"","","","","","html-keyboard-response","47","216269","0.0-27.0-0.0","34","1","2023-10-31 21:04:32","a725c3012b74bf33a1020a98cb69c237","179.38.69.223","Mozilla/5.0 (Macintosh; Intel Mac OS X 10_15_7) AppleWebKit/537.36 (KHTML, like Gecko) Chrome/118.0.0.0 Safari/537.36","Macintosh","Chrome","118.0.0.0","OS X","10_15_7","null","en-US,en;q=0.9,es;q=0.8","true","null","","null","","","delay_block","","","","","","2","0",""
"","","","","","html-keyboard-response","48","216423","0.0-27.0-1.0","34","1","2023-10-31 21:04:32","a725c3012b74bf33a1020a98cb69c237","179.38.69.223","Mozilla/5.0 (Macintosh; Intel Mac OS X 10_15_7) AppleWebKit/537.36 (KHTML, like Gecko) Chrome/118.0.0.0 Safari/537.36","Macintosh","Chrome","118.0.0.0","OS X","10_15_7","null","en-US,en;q=0.9,es;q=0.8","true","null","<p id=""stimulus"" style=""font-size:60px;"">cuarenta y cuatro</p>","null","","","tone_number_task_remaining_before_delay","","cuarenta y cuatro","","726.5","60","2","0",""
"","","","","","html-keyboard-response","49","217433","0.0-30.0-0.0","34","1","2023-10-31 21:04:32","a725c3012b74bf33a1020a98cb69c237","179.38.69.223","Mozilla/5.0 (Macintosh; Intel Mac OS X 10_15_7) AppleWebKit/537.36 (KHTML, like Gecko) Chrome/118.0.0.0 Safari/537.36","Macintosh","Chrome","118.0.0.0","OS X","10_15_7","null","en-US,en;q=0.9,es;q=0.8","true","1008","<p id=""stimulus"" style=""font-size:60px;"">cuarenta y cuatro</p>","j","","","empty_block","","cuarenta y cuatro","","","","2","0",""
"","","","","","html-keyboard-response","50","220176","0.0-31.0","34","1","2023-10-31 21:04:32","a725c3012b74bf33a1020a98cb69c237","179.38.69.223","Mozilla/5.0 (Macintosh; Intel Mac OS X 10_15_7) AppleWebKit/537.36 (KHTML, like Gecko) Chrome/118.0.0.0 Safari/537.36","Macintosh","Chrome","118.0.0.0","OS X","10_15_7","null","en-US,en;q=0.9,es;q=0.8","true","null","<div style=""font-size:100px;"">X</div>","null","","","fixation","","","","","","","",""
"","","","","","audio-keyboard-response","51","220333","0.0-32.0","34","1","2023-10-31 21:04:32","a725c3012b74bf33a1020a98cb69c237","179.38.69.223","Mozilla/5.0 (Macintosh; Intel Mac OS X 10_15_7) AppleWebKit/537.36 (KHTML, like Gecko) Chrome/118.0.0.0 Safari/537.36","Macintosh","Chrome","118.0.0.0","OS X","10_15_7","null","en-US,en;q=0.9,es;q=0.8","true","null","tones/440hz_short.mp3","null","","","tone_number_task","0","sesenta y cuatro","tones/440hz_short.mp3","150","60","2","1",""
"","","","","","html-keyboard-response","52","220783","0.0-35.0-0.0","34","1","2023-10-31 21:04:32","a725c3012b74bf33a1020a98cb69c237","179.38.69.223","Mozilla/5.0 (Macintosh; Intel Mac OS X 10_15_7) AppleWebKit/537.36 (KHTML, like Gecko) Chrome/118.0.0.0 Safari/537.36","Macintosh","Chrome","118.0.0.0","OS X","10_15_7","null","en-US,en;q=0.9,es;q=0.8","true","447","tones/440hz_short.mp3","a","","","empty_block","","sesenta y cuatro","","","","2","1",""
"","","","","","html-keyboard-response","53","221399","0.0-35.0-1.0","34","1","2023-10-31 21:04:32","a725c3012b74bf33a1020a98cb69c237","179.38.69.223","Mozilla/5.0 (Macintosh; Intel Mac OS X 10_15_7) AppleWebKit/537.36 (KHTML, like Gecko) Chrome/118.0.0.0 Safari/537.36","Macintosh","Chrome","118.0.0.0","OS X","10_15_7","null","en-US,en;q=0.9,es;q=0.8","true","615","tones/440hz_short.mp3","k","","","empty_block","","sesenta y cuatro","","","","2","1",""
"","","","","","html-keyboard-response","54","224146","0.0-37.0","34","1","2023-10-31 21:04:32","a725c3012b74bf33a1020a98cb69c237","179.38.69.223","Mozilla/5.0 (Macintosh; Intel Mac OS X 10_15_7) AppleWebKit/537.36 (KHTML, like Gecko) Chrome/118.0.0.0 Safari/537.36","Macintosh","Chrome","118.0.0.0","OS X","10_15_7","null","en-US,en;q=0.9,es;q=0.8","true","null","<div style=""font-size:100px;"">X</div>","null","","","fixation","","","","","","","",""
"","","","","","audio-keyboard-response","55","224300","0.0-38.0","34","1","2023-10-31 21:04:32","a725c3012b74bf33a1020a98cb69c237","179.38.69.223","Mozilla/5.0 (Macintosh; Intel Mac OS X 10_15_7) AppleWebKit/537.36 (KHTML, like Gecko) Chrome/118.0.0.0 Safari/537.36","Macintosh","Chrome","118.0.0.0","OS X","10_15_7","null","en-US,en;q=0.9,es;q=0.8","true","null","tones/880hz_short.mp3","null","","","tone_number_task","0","treinta","tones/880hz_short.mp3","150","60","2","2",""
"","","","","","html-keyboard-response","56","224777","0.0-41.0-0.0","34","1","2023-10-31 21:04:32","a725c3012b74bf33a1020a98cb69c237","179.38.69.223","Mozilla/5.0 (Macintosh; Intel Mac OS X 10_15_7) AppleWebKit/537.36 (KHTML, like Gecko) Chrome/118.0.0.0 Safari/537.36","Macintosh","Chrome","118.0.0.0","OS X","10_15_7","null","en-US,en;q=0.9,es;q=0.8","true","476","tones/880hz_short.mp3","s","","","empty_block","","treinta","","","","2","2",""
"","","","","","html-keyboard-response","57","225783","0.0-41.0-1.0","34","1","2023-10-31 21:04:32","a725c3012b74bf33a1020a98cb69c237","179.38.69.223","Mozilla/5.0 (Macintosh; Intel Mac OS X 10_15_7) AppleWebKit/537.36 (KHTML, like Gecko) Chrome/118.0.0.0 Safari/537.36","Macintosh","Chrome","118.0.0.0","OS X","10_15_7","null","en-US,en;q=0.9,es;q=0.8","true","1004","tones/880hz_short.mp3","j","","","empty_block","","treinta","","","","2","2",""
"","","","","","html-keyboard-response","58","228530","0.0-43.0","34","1","2023-10-31 21:04:32","a725c3012b74bf33a1020a98cb69c237","179.38.69.223","Mozilla/5.0 (Macintosh; Intel Mac OS X 10_15_7) AppleWebKit/537.36 (KHTML, like Gecko) Chrome/118.0.0.0 Safari/537.36","Macintosh","Chrome","118.0.0.0","OS X","10_15_7","null","en-US,en;q=0.9,es;q=0.8","true","null","<div style=""font-size:100px;"">X</div>","null","","","fixation","","","","","","","",""
"","","","","","audio-keyboard-response","59","229102","0.0-44.0","34","1","2023-10-31 21:04:32","a725c3012b74bf33a1020a98cb69c237","179.38.69.223","Mozilla/5.0 (Macintosh; Intel Mac OS X 10_15_7) AppleWebKit/537.36 (KHTML, like Gecko) Chrome/118.0.0.0 Safari/537.36","Macintosh","Chrome","118.0.0.0","OS X","10_15_7","null","en-US,en;q=0.9,es;q=0.8","true","571","tones/440hz_short.mp3","a","","","tone_number_task","992.5","cuarenta y uno","tones/440hz_short.mp3","1142.5","60","2","3",""
"","","","","","html-keyboard-response","60","229526","0.0-45.0-0.0","34","1","2023-10-31 21:04:32","a725c3012b74bf33a1020a98cb69c237","179.38.69.223","Mozilla/5.0 (Macintosh; Intel Mac OS X 10_15_7) AppleWebKit/537.36 (KHTML, like Gecko) Chrome/118.0.0.0 Safari/537.36","Macintosh","Chrome","118.0.0.0","OS X","10_15_7","null","en-US,en;q=0.9,es;q=0.8","true","null","","null","","","delay_block","","","","","","2","3",""
"","","","","","html-keyboard-response","61","229679","0.0-45.0-1.0","34","1","2023-10-31 21:04:32","a725c3012b74bf33a1020a98cb69c237","179.38.69.223","Mozilla/5.0 (Macintosh; Intel Mac OS X 10_15_7) AppleWebKit/537.36 (KHTML, like Gecko) Chrome/118.0.0.0 Safari/537.36","Macintosh","Chrome","118.0.0.0","OS X","10_15_7","null","en-US,en;q=0.9,es;q=0.8","true","null","<p id=""stimulus"" style=""font-size:60px;"">cuarenta y uno</p>","null","","","tone_number_task_remaining_before_delay","","cuarenta y uno","","571.5","60","2","3",""
"","","","","","html-keyboard-response","62","230537","0.0-48.0-0.0","34","1","2023-10-31 21:04:32","a725c3012b74bf33a1020a98cb69c237","179.38.69.223","Mozilla/5.0 (Macintosh; Intel Mac OS X 10_15_7) AppleWebKit/537.36 (KHTML, like Gecko) Chrome/118.0.0.0 Safari/537.36","Macintosh","Chrome","118.0.0.0","OS X","10_15_7","null","en-US,en;q=0.9,es;q=0.8","true","856","<p id=""stimulus"" style=""font-size:60px;"">cuarenta y uno</p>","j","","","empty_block","","cuarenta y uno","","","","2","3",""
"","","","","","html-keyboard-response","63","233280","0.0-49.0","34","1","2023-10-31 21:04:32","a725c3012b74bf33a1020a98cb69c237","179.38.69.223","Mozilla/5.0 (Macintosh; Intel Mac OS X 10_15_7) AppleWebKit/537.36 (KHTML, like Gecko) Chrome/118.0.0.0 Safari/537.36","Macintosh","Chrome","118.0.0.0","OS X","10_15_7","null","en-US,en;q=0.9,es;q=0.8","true","null","<div style=""font-size:100px;"">X</div>","null","","","fixation","","","","","","","",""
"","","","","","audio-keyboard-response","64","233748","0.0-50.0","34","1","2023-10-31 21:04:32","a725c3012b74bf33a1020a98cb69c237","179.38.69.223","Mozilla/5.0 (Macintosh; Intel Mac OS X 10_15_7) AppleWebKit/537.36 (KHTML, like Gecko) Chrome/118.0.0.0 Safari/537.36","Macintosh","Chrome","118.0.0.0","OS X","10_15_7","null","en-US,en;q=0.9,es;q=0.8","true","469","tones/880hz_short.mp3","s","","","tone_number_task","1025","cuarenta y nueve","tones/880hz_short.mp3","1175","60","2","4",""
"","","","","","html-keyboard-response","65","234312","0.0-51.0-0.0","34","1","2023-10-31 21:04:32","a725c3012b74bf33a1020a98cb69c237","179.38.69.223","Mozilla/5.0 (Macintosh; Intel Mac OS X 10_15_7) AppleWebKit/537.36 (KHTML, like Gecko) Chrome/118.0.0.0 Safari/537.36","Macintosh","Chrome","118.0.0.0","OS X","10_15_7","null","en-US,en;q=0.9,es;q=0.8","true","null","","null","","","delay_block","","","","","","2","4",""
"","","","","","html-keyboard-response","66","234464","0.0-51.0-1.0","34","1","2023-10-31 21:04:32","a725c3012b74bf33a1020a98cb69c237","179.38.69.223","Mozilla/5.0 (Macintosh; Intel Mac OS X 10_15_7) AppleWebKit/537.36 (KHTML, like Gecko) Chrome/118.0.0.0 Safari/537.36","Macintosh","Chrome","118.0.0.0","OS X","10_15_7","null","en-US,en;q=0.9,es;q=0.8","true","null","<p id=""stimulus"" style=""font-size:60px;"">cuarenta y nueve</p>","null","","","tone_number_task_remaining_before_delay","","cuarenta y nueve","","706","60","2","4",""
"","","","","","html-keyboard-response","67","235475","0.0-54.0-0.0","34","1","2023-10-31 21:04:32","a725c3012b74bf33a1020a98cb69c237","179.38.69.223","Mozilla/5.0 (Macintosh; Intel Mac OS X 10_15_7) AppleWebKit/537.36 (KHTML, like Gecko) Chrome/118.0.0.0 Safari/537.36","Macintosh","Chrome","118.0.0.0","OS X","10_15_7","null","en-US,en;q=0.9,es;q=0.8","true","1010","<p id=""stimulus"" style=""font-size:60px;"">cuarenta y nueve</p>","k","","","empty_block","","cuarenta y nueve","","","","2","4",""
"","","","","","html-keyboard-response","68","238220","0.0-55.0","34","1","2023-10-31 21:04:32","a725c3012b74bf33a1020a98cb69c237","179.38.69.223","Mozilla/5.0 (Macintosh; Intel Mac OS X 10_15_7) AppleWebKit/537.36 (KHTML, like Gecko) Chrome/118.0.0.0 Safari/537.36","Macintosh","Chrome","118.0.0.0","OS X","10_15_7","null","en-US,en;q=0.9,es;q=0.8","true","null","<div style=""font-size:100px;"">X</div>","null","","","fixation","","","","","","","",""
"","","","","","audio-keyboard-response","69","238475","0.0-56.0","34","1","2023-10-31 21:04:32","a725c3012b74bf33a1020a98cb69c237","179.38.69.223","Mozilla/5.0 (Macintosh; Intel Mac OS X 10_15_7) AppleWebKit/537.36 (KHTML, like Gecko) Chrome/118.0.0.0 Safari/537.36","Macintosh","Chrome","118.0.0.0","OS X","10_15_7","null","en-US,en;q=0.9,es;q=0.8","true","null","tones/880hz_short.mp3","null","","","tone_number_task","102.5","cincuenta y seis","tones/880hz_short.mp3","252.5","60","2","5",""
"","","","","","html-keyboard-response","70","238784","0.0-59.0-0.0","34","1","2023-10-31 21:04:32","a725c3012b74bf33a1020a98cb69c237","179.38.69.223","Mozilla/5.0 (Macintosh; Intel Mac OS X 10_15_7) AppleWebKit/537.36 (KHTML, like Gecko) Chrome/118.0.0.0 Safari/537.36","Macintosh","Chrome","118.0.0.0","OS X","10_15_7","null","en-US,en;q=0.9,es;q=0.8","true","307","tones/880hz_short.mp3","s","","","empty_block","","cincuenta y seis","","","","2","5",""
"","","","","","html-keyboard-response","71","239431","0.0-59.0-1.0","34","1","2023-10-31 21:04:32","a725c3012b74bf33a1020a98cb69c237","179.38.69.223","Mozilla/5.0 (Macintosh; Intel Mac OS X 10_15_7) AppleWebKit/537.36 (KHTML, like Gecko) Chrome/118.0.0.0 Safari/537.36","Macintosh","Chrome","118.0.0.0","OS X","10_15_7","null","en-US,en;q=0.9,es;q=0.8","true","646","tones/880hz_short.mp3","k","","","empty_block","","cincuenta y seis","","","","2","5",""
"","","","","","html-keyboard-response","72","242174","0.0-61.0","34","1","2023-10-31 21:04:32","a725c3012b74bf33a1020a98cb69c237","179.38.69.223","Mozilla/5.0 (Macintosh; Intel Mac OS X 10_15_7) AppleWebKit/537.36 (KHTML, like Gecko) Chrome/118.0.0.0 Safari/537.36","Macintosh","Chrome","118.0.0.0","OS X","10_15_7","null","en-US,en;q=0.9,es;q=0.8","true","null","<div style=""font-size:100px;"">X</div>","null","","","fixation","","","","","","","",""
"","","","","","audio-keyboard-response","73","242683","0.0-62.0","34","1","2023-10-31 21:04:32","a725c3012b74bf33a1020a98cb69c237","179.38.69.223","Mozilla/5.0 (Macintosh; Intel Mac OS X 10_15_7) AppleWebKit/537.36 (KHTML, like Gecko) Chrome/118.0.0.0 Safari/537.36","Macintosh","Chrome","118.0.0.0","OS X","10_15_7","null","en-US,en;q=0.9,es;q=0.8","true","507","tones/440hz_short.mp3","a","","","tone_number_task","1025","cincuenta y dos","tones/440hz_short.mp3","1175","60","2","6",""
"","","","","","html-keyboard-response","74","243205","0.0-63.0-0.0","34","1","2023-10-31 21:04:32","a725c3012b74bf33a1020a98cb69c237","179.38.69.223","Mozilla/5.0 (Macintosh; Intel Mac OS X 10_15_7) AppleWebKit/537.36 (KHTML, like Gecko) Chrome/118.0.0.0 Safari/537.36","Macintosh","Chrome","118.0.0.0","OS X","10_15_7","null","en-US,en;q=0.9,es;q=0.8","true","null","","null","","","delay_block","","","","","","2","6",""
"","","","","","html-keyboard-response","75","243357","0.0-63.0-1.0","34","1","2023-10-31 21:04:32","a725c3012b74bf33a1020a98cb69c237","179.38.69.223","Mozilla/5.0 (Macintosh; Intel Mac OS X 10_15_7) AppleWebKit/537.36 (KHTML, like Gecko) Chrome/118.0.0.0 Safari/537.36","Macintosh","Chrome","118.0.0.0","OS X","10_15_7","null","en-US,en;q=0.9,es;q=0.8","true","null","<p id=""stimulus"" style=""font-size:60px;"">cincuenta y dos</p>","null","","","tone_number_task_remaining_before_delay","","cincuenta y dos","","668","60","2","6",""
"","","","","","html-keyboard-response","76","244131","0.0-66.0-0.0","34","1","2023-10-31 21:04:32","a725c3012b74bf33a1020a98cb69c237","179.38.69.223","Mozilla/5.0 (Macintosh; Intel Mac OS X 10_15_7) AppleWebKit/537.36 (KHTML, like Gecko) Chrome/118.0.0.0 Safari/537.36","Macintosh","Chrome","118.0.0.0","OS X","10_15_7","null","en-US,en;q=0.9,es;q=0.8","true","771","<p id=""stimulus"" style=""font-size:60px;"">cincuenta y dos</p>","k","","","empty_block","","cincuenta y dos","","","","2","6",""
"","","","","","html-keyboard-response","77","246874","0.0-67.0","34","1","2023-10-31 21:04:32","a725c3012b74bf33a1020a98cb69c237","179.38.69.223","Mozilla/5.0 (Macintosh; Intel Mac OS X 10_15_7) AppleWebKit/537.36 (KHTML, like Gecko) Chrome/118.0.0.0 Safari/537.36","Macintosh","Chrome","118.0.0.0","OS X","10_15_7","null","en-US,en;q=0.9,es;q=0.8","true","null","<div style=""font-size:100px;"">X</div>","null","","","fixation","","","","","","","",""
"","","","","","audio-keyboard-response","78","247028","0.0-68.0","34","1","2023-10-31 21:04:32","a725c3012b74bf33a1020a98cb69c237","179.38.69.223","Mozilla/5.0 (Macintosh; Intel Mac OS X 10_15_7) AppleWebKit/537.36 (KHTML, like Gecko) Chrome/118.0.0.0 Safari/537.36","Macintosh","Chrome","118.0.0.0","OS X","10_15_7","null","en-US,en;q=0.9,es;q=0.8","true","null","tones/440hz_short.mp3","null","","","tone_number_task","0","sesenta y nueve","tones/440hz_short.mp3","150","60","2","7",""
"","","","","","html-keyboard-response","79","247420","0.0-71.0-0.0","34","1","2023-10-31 21:04:32","a725c3012b74bf33a1020a98cb69c237","179.38.69.223","Mozilla/5.0 (Macintosh; Intel Mac OS X 10_15_7) AppleWebKit/537.36 (KHTML, like Gecko) Chrome/118.0.0.0 Safari/537.36","Macintosh","Chrome","118.0.0.0","OS X","10_15_7","null","en-US,en;q=0.9,es;q=0.8","true","390","tones/440hz_short.mp3","a","","","empty_block","","sesenta y nueve","","","","2","7",""
"","","","","","html-keyboard-response","80","247834","0.0-71.0-1.0","34","1","2023-10-31 21:04:32","a725c3012b74bf33a1020a98cb69c237","179.38.69.223","Mozilla/5.0 (Macintosh; Intel Mac OS X 10_15_7) AppleWebKit/537.36 (KHTML, like Gecko) Chrome/118.0.0.0 Safari/537.36","Macintosh","Chrome","118.0.0.0","OS X","10_15_7","null","en-US,en;q=0.9,es;q=0.8","true","412","tones/440hz_short.mp3","k","","","empty_block","","sesenta y nueve","","","","2","7",""
"","","","","","html-keyboard-response","81","250580","0.0-73.0","34","1","2023-10-31 21:04:32","a725c3012b74bf33a1020a98cb69c237","179.38.69.223","Mozilla/5.0 (Macintosh; Intel Mac OS X 10_15_7) AppleWebKit/537.36 (KHTML, like Gecko) Chrome/118.0.0.0 Safari/537.36","Macintosh","Chrome","118.0.0.0","OS X","10_15_7","null","en-US,en;q=0.9,es;q=0.8","true","null","<div style=""font-size:100px;"">X</div>","null","","","fixation","","","","","","","",""
"","","","","","audio-keyboard-response","82","250835","0.0-74.0","34","1","2023-10-31 21:04:32","a725c3012b74bf33a1020a98cb69c237","179.38.69.223","Mozilla/5.0 (Macintosh; Intel Mac OS X 10_15_7) AppleWebKit/537.36 (KHTML, like Gecko) Chrome/118.0.0.0 Safari/537.36","Macintosh","Chrome","118.0.0.0","OS X","10_15_7","null","en-US,en;q=0.9,es;q=0.8","true","null","tones/440hz_short.mp3","null","","","tone_number_task","102.5","cincuenta y tres","tones/440hz_short.mp3","252.5","60","2","8",""
"","","","","","html-keyboard-response","83","251098","0.0-77.0-0.0","34","1","2023-10-31 21:04:32","a725c3012b74bf33a1020a98cb69c237","179.38.69.223","Mozilla/5.0 (Macintosh; Intel Mac OS X 10_15_7) AppleWebKit/537.36 (KHTML, like Gecko) Chrome/118.0.0.0 Safari/537.36","Macintosh","Chrome","118.0.0.0","OS X","10_15_7","null","en-US,en;q=0.9,es;q=0.8","true","261","tones/440hz_short.mp3","a","","","empty_block","","cincuenta y tres","","","","2","8",""
"","","","","","html-keyboard-response","84","251528","0.0-77.0-1.0","34","1","2023-10-31 21:04:32","a725c3012b74bf33a1020a98cb69c237","179.38.69.223","Mozilla/5.0 (Macintosh; Intel Mac OS X 10_15_7) AppleWebKit/537.36 (KHTML, like Gecko) Chrome/118.0.0.0 Safari/537.36","Macintosh","Chrome","118.0.0.0","OS X","10_15_7","null","en-US,en;q=0.9,es;q=0.8","true","428","tones/440hz_short.mp3","k","","","empty_block","","cincuenta y tres","","","","2","8",""
"","","","","","html-keyboard-response","85","254274","0.0-79.0","34","1","2023-10-31 21:04:32","a725c3012b74bf33a1020a98cb69c237","179.38.69.223","Mozilla/5.0 (Macintosh; Intel Mac OS X 10_15_7) AppleWebKit/537.36 (KHTML, like Gecko) Chrome/118.0.0.0 Safari/537.36","Macintosh","Chrome","118.0.0.0","OS X","10_15_7","null","en-US,en;q=0.9,es;q=0.8","true","null","<div style=""font-size:100px;"">X</div>","null","","","fixation","","","","","","","",""
"","","","","","audio-keyboard-response","86","254429","0.0-80.0","34","1","2023-10-31 21:04:32","a725c3012b74bf33a1020a98cb69c237","179.38.69.223","Mozilla/5.0 (Macintosh; Intel Mac OS X 10_15_7) AppleWebKit/537.36 (KHTML, like Gecko) Chrome/118.0.0.0 Safari/537.36","Macintosh","Chrome","118.0.0.0","OS X","10_15_7","null","en-US,en;q=0.9,es;q=0.8","true","null","tones/880hz_short.mp3","null","","","tone_number_task","0","veintitres","tones/880hz_short.mp3","150","60","2","9",""
"","","","","","html-keyboard-response","87","254800","0.0-83.0-0.0","34","1","2023-10-31 21:04:32","a725c3012b74bf33a1020a98cb69c237","179.38.69.223","Mozilla/5.0 (Macintosh; Intel Mac OS X 10_15_7) AppleWebKit/537.36 (KHTML, like Gecko) Chrome/118.0.0.0 Safari/537.36","Macintosh","Chrome","118.0.0.0","OS X","10_15_7","null","en-US,en;q=0.9,es;q=0.8","true","369","tones/880hz_short.mp3","s","","","empty_block","","veintitres","","","","2","9",""
"","","","","","html-keyboard-response","88","255211","0.0-83.0-1.0","34","1","2023-10-31 21:04:32","a725c3012b74bf33a1020a98cb69c237","179.38.69.223","Mozilla/5.0 (Macintosh; Intel Mac OS X 10_15_7) AppleWebKit/537.36 (KHTML, like Gecko) Chrome/118.0.0.0 Safari/537.36","Macintosh","Chrome","118.0.0.0","OS X","10_15_7","null","en-US,en;q=0.9,es;q=0.8","true","409","tones/880hz_short.mp3","j","","","empty_block","","veintitres","","","","2","9",""
"","","","","","html-keyboard-response","89","257954","0.0-85.0","34","1","2023-10-31 21:04:32","a725c3012b74bf33a1020a98cb69c237","179.38.69.223","Mozilla/5.0 (Macintosh; Intel Mac OS X 10_15_7) AppleWebKit/537.36 (KHTML, like Gecko) Chrome/118.0.0.0 Safari/537.36","Macintosh","Chrome","118.0.0.0","OS X","10_15_7","null","en-US,en;q=0.9,es;q=0.8","true","null","<div style=""font-size:100px;"">X</div>","null","","","fixation","","","","","","","",""
"","","","","","audio-keyboard-response","90","258398","0.0-86.0","34","1","2023-10-31 21:04:32","a725c3012b74bf33a1020a98cb69c237","179.38.69.223","Mozilla/5.0 (Macintosh; Intel Mac OS X 10_15_7) AppleWebKit/537.36 (KHTML, like Gecko) Chrome/118.0.0.0 Safari/537.36","Macintosh","Chrome","118.0.0.0","OS X","10_15_7","null","en-US,en;q=0.9,es;q=0.8","true","443","tones/440hz_short.mp3","a","","","tone_number_task","992.5","treinta y siete","tones/440hz_short.mp3","1142.5","60","2","10",""
"","","","","","html-keyboard-response","91","258950","0.0-87.0-0.0","34","1","2023-10-31 21:04:32","a725c3012b74bf33a1020a98cb69c237","179.38.69.223","Mozilla/5.0 (Macintosh; Intel Mac OS X 10_15_7) AppleWebKit/537.36 (KHTML, like Gecko) Chrome/118.0.0.0 Safari/537.36","Macintosh","Chrome","118.0.0.0","OS X","10_15_7","null","en-US,en;q=0.9,es;q=0.8","true","null","","null","","","delay_block","","","","","","2","10",""
"","","","","","html-keyboard-response","92","259106","0.0-87.0-1.0","34","1","2023-10-31 21:04:32","a725c3012b74bf33a1020a98cb69c237","179.38.69.223","Mozilla/5.0 (Macintosh; Intel Mac OS X 10_15_7) AppleWebKit/537.36 (KHTML, like Gecko) Chrome/118.0.0.0 Safari/537.36","Macintosh","Chrome","118.0.0.0","OS X","10_15_7","null","en-US,en;q=0.9,es;q=0.8","true","null","<p id=""stimulus"" style=""font-size:60px;"">treinta y siete</p>","null","","","tone_number_task_remaining_before_delay","","treinta y siete","","699.5","60","2","10",""
"","","","","","html-keyboard-response","93","259702","0.0-90.0-0.0","34","1","2023-10-31 21:04:32","a725c3012b74bf33a1020a98cb69c237","179.38.69.223","Mozilla/5.0 (Macintosh; Intel Mac OS X 10_15_7) AppleWebKit/537.36 (KHTML, like Gecko) Chrome/118.0.0.0 Safari/537.36","Macintosh","Chrome","118.0.0.0","OS X","10_15_7","null","en-US,en;q=0.9,es;q=0.8","true","594","<p id=""stimulus"" style=""font-size:60px;"">treinta y siete</p>","j","","","empty_block","","treinta y siete","","","","2","10",""
"","","","","","html-keyboard-response","94","262446","0.0-91.0","34","1","2023-10-31 21:04:32","a725c3012b74bf33a1020a98cb69c237","179.38.69.223","Mozilla/5.0 (Macintosh; Intel Mac OS X 10_15_7) AppleWebKit/537.36 (KHTML, like Gecko) Chrome/118.0.0.0 Safari/537.36","Macintosh","Chrome","118.0.0.0","OS X","10_15_7","null","en-US,en;q=0.9,es;q=0.8","true","null","<div style=""font-size:100px;"">X</div>","null","","","fixation","","","","","","","",""
"","","","","","audio-keyboard-response","95","262702","0.0-92.0","34","1","2023-10-31 21:04:32","a725c3012b74bf33a1020a98cb69c237","179.38.69.223","Mozilla/5.0 (Macintosh; Intel Mac OS X 10_15_7) AppleWebKit/537.36 (KHTML, like Gecko) Chrome/118.0.0.0 Safari/537.36","Macintosh","Chrome","118.0.0.0","OS X","10_15_7","null","en-US,en;q=0.9,es;q=0.8","true","null","tones/880hz_short.mp3","null","","","tone_number_task","102.5","sesenta y ocho","tones/880hz_short.mp3","252.5","60","2","11",""
"","","","","","html-keyboard-response","96","262960","0.0-95.0-0.0","34","1","2023-10-31 21:04:32","a725c3012b74bf33a1020a98cb69c237","179.38.69.223","Mozilla/5.0 (Macintosh; Intel Mac OS X 10_15_7) AppleWebKit/537.36 (KHTML, like Gecko) Chrome/118.0.0.0 Safari/537.36","Macintosh","Chrome","118.0.0.0","OS X","10_15_7","null","en-US,en;q=0.9,es;q=0.8","true","256","tones/880hz_short.mp3","s","","","empty_block","","sesenta y ocho","","","","2","11",""
"","","","","","html-keyboard-response","97","263376","0.0-95.0-1.0","34","1","2023-10-31 21:04:32","a725c3012b74bf33a1020a98cb69c237","179.38.69.223","Mozilla/5.0 (Macintosh; Intel Mac OS X 10_15_7) AppleWebKit/537.36 (KHTML, like Gecko) Chrome/118.0.0.0 Safari/537.36","Macintosh","Chrome","118.0.0.0","OS X","10_15_7","null","en-US,en;q=0.9,es;q=0.8","true","414","tones/880hz_short.mp3","k","","","empty_block","","sesenta y ocho","","","","2","11",""
"","","","","","html-keyboard-response","98","266122","0.0-97.0","34","1","2023-10-31 21:04:32","a725c3012b74bf33a1020a98cb69c237","179.38.69.223","Mozilla/5.0 (Macintosh; Intel Mac OS X 10_15_7) AppleWebKit/537.36 (KHTML, like Gecko) Chrome/118.0.0.0 Safari/537.36","Macintosh","Chrome","118.0.0.0","OS X","10_15_7","null","en-US,en;q=0.9,es;q=0.8","true","null","<div style=""font-size:100px;"">X</div>","null","","","fixation","","","","","","","",""
"","","","","","audio-keyboard-response","99","266631","0.0-98.0","34","1","2023-10-31 21:04:32","a725c3012b74bf33a1020a98cb69c237","179.38.69.223","Mozilla/5.0 (Macintosh; Intel Mac OS X 10_15_7) AppleWebKit/537.36 (KHTML, like Gecko) Chrome/118.0.0.0 Safari/537.36","Macintosh","Chrome","118.0.0.0","OS X","10_15_7","null","en-US,en;q=0.9,es;q=0.8","true","507","tones/440hz_short.mp3","a","","","tone_number_task","992.5","treinta y cuatro","tones/440hz_short.mp3","1142.5","60","2","12",""
"","","","","","html-keyboard-response","100","267122","0.0-99.0-0.0","34","1","2023-10-31 21:04:32","a725c3012b74bf33a1020a98cb69c237","179.38.69.223","Mozilla/5.0 (Macintosh; Intel Mac OS X 10_15_7) AppleWebKit/537.36 (KHTML, like Gecko) Chrome/118.0.0.0 Safari/537.36","Macintosh","Chrome","118.0.0.0","OS X","10_15_7","null","en-US,en;q=0.9,es;q=0.8","true","null","","null","","","delay_block","","","","","","2","12",""
"","","","","","html-keyboard-response","101","267280","0.0-99.0-1.0","34","1","2023-10-31 21:04:32","a725c3012b74bf33a1020a98cb69c237","179.38.69.223","Mozilla/5.0 (Macintosh; Intel Mac OS X 10_15_7) AppleWebKit/537.36 (KHTML, like Gecko) Chrome/118.0.0.0 Safari/537.36","Macintosh","Chrome","118.0.0.0","OS X","10_15_7","null","en-US,en;q=0.9,es;q=0.8","true","null","<p id=""stimulus"" style=""font-size:60px;"">treinta y cuatro</p>","null","","","tone_number_task_remaining_before_delay","","treinta y cuatro","","635.5","60","2","12",""
"","","","","","html-keyboard-response","102","267783","0.0-102.0-0.0","34","1","2023-10-31 21:04:32","a725c3012b74bf33a1020a98cb69c237","179.38.69.223","Mozilla/5.0 (Macintosh; Intel Mac OS X 10_15_7) AppleWebKit/537.36 (KHTML, like Gecko) Chrome/118.0.0.0 Safari/537.36","Macintosh","Chrome","118.0.0.0","OS X","10_15_7","null","en-US,en;q=0.9,es;q=0.8","true","501","<p id=""stimulus"" style=""font-size:60px;"">treinta y cuatro</p>","j","","","empty_block","","treinta y cuatro","","","","2","12",""
"","","","","","html-keyboard-response","103","270528","0.0-103.0","34","1","2023-10-31 21:04:32","a725c3012b74bf33a1020a98cb69c237","179.38.69.223","Mozilla/5.0 (Macintosh; Intel Mac OS X 10_15_7) AppleWebKit/537.36 (KHTML, like Gecko) Chrome/118.0.0.0 Safari/537.36","Macintosh","Chrome","118.0.0.0","OS X","10_15_7","null","en-US,en;q=0.9,es;q=0.8","true","null","<div style=""font-size:100px;"">X</div>","null","","","fixation","","","","","","","",""
"","","","","","audio-keyboard-response","104","270686","0.0-104.0","34","1","2023-10-31 21:04:32","a725c3012b74bf33a1020a98cb69c237","179.38.69.223","Mozilla/5.0 (Macintosh; Intel Mac OS X 10_15_7) AppleWebKit/537.36 (KHTML, like Gecko) Chrome/118.0.0.0 Safari/537.36","Macintosh","Chrome","118.0.0.0","OS X","10_15_7","null","en-US,en;q=0.9,es;q=0.8","true","null","tones/880hz_short.mp3","null","","","tone_number_task","0","veintiseis","tones/880hz_short.mp3","150","60","2","13",""
"","","","","","html-keyboard-response","105","271062","0.0-107.0-0.0","34","1","2023-10-31 21:04:32","a725c3012b74bf33a1020a98cb69c237","179.38.69.223","Mozilla/5.0 (Macintosh; Intel Mac OS X 10_15_7) AppleWebKit/537.36 (KHTML, like Gecko) Chrome/118.0.0.0 Safari/537.36","Macintosh","Chrome","118.0.0.0","OS X","10_15_7","null","en-US,en;q=0.9,es;q=0.8","true","374","tones/880hz_short.mp3","s","","","empty_block","","veintiseis","","","","2","13",""
"","","","","","html-keyboard-response","106","271448","0.0-107.0-1.0","34","1","2023-10-31 21:04:32","a725c3012b74bf33a1020a98cb69c237","179.38.69.223","Mozilla/5.0 (Macintosh; Intel Mac OS X 10_15_7) AppleWebKit/537.36 (KHTML, like Gecko) Chrome/118.0.0.0 Safari/537.36","Macintosh","Chrome","118.0.0.0","OS X","10_15_7","null","en-US,en;q=0.9,es;q=0.8","true","384","tones/880hz_short.mp3","j","","","empty_block","","veintiseis","","","","2","13",""
"","","","","","html-keyboard-response","107","274197","0.0-109.0","34","1","2023-10-31 21:04:32","a725c3012b74bf33a1020a98cb69c237","179.38.69.223","Mozilla/5.0 (Macintosh; Intel Mac OS X 10_15_7) AppleWebKit/537.36 (KHTML, like Gecko) Chrome/118.0.0.0 Safari/537.36","Macintosh","Chrome","118.0.0.0","OS X","10_15_7","null","en-US,en;q=0.9,es;q=0.8","true","null","<div style=""font-size:100px;"">X</div>","null","","","fixation","","","","","","","",""
"","","","","","audio-keyboard-response","108","274651","0.0-110.0","34","1","2023-10-31 21:04:32","a725c3012b74bf33a1020a98cb69c237","179.38.69.223","Mozilla/5.0 (Macintosh; Intel Mac OS X 10_15_7) AppleWebKit/537.36 (KHTML, like Gecko) Chrome/118.0.0.0 Safari/537.36","Macintosh","Chrome","118.0.0.0","OS X","10_15_7","null","en-US,en;q=0.9,es;q=0.8","true","453","tones/440hz_short.mp3","a","","","tone_number_task","992.5","treinta","tones/440hz_short.mp3","1142.5","60","2","14",""
"","","","","","html-keyboard-response","109","275193","0.0-111.0-0.0","34","1","2023-10-31 21:04:32","a725c3012b74bf33a1020a98cb69c237","179.38.69.223","Mozilla/5.0 (Macintosh; Intel Mac OS X 10_15_7) AppleWebKit/537.36 (KHTML, like Gecko) Chrome/118.0.0.0 Safari/537.36","Macintosh","Chrome","118.0.0.0","OS X","10_15_7","null","en-US,en;q=0.9,es;q=0.8","true","null","","null","","","delay_block","","","","","","2","14",""
"","","","","","html-keyboard-response","110","275350","0.0-111.0-1.0","34","1","2023-10-31 21:04:32","a725c3012b74bf33a1020a98cb69c237","179.38.69.223","Mozilla/5.0 (Macintosh; Intel Mac OS X 10_15_7) AppleWebKit/537.36 (KHTML, like Gecko) Chrome/118.0.0.0 Safari/537.36","Macintosh","Chrome","118.0.0.0","OS X","10_15_7","null","en-US,en;q=0.9,es;q=0.8","true","null","<p id=""stimulus"" style=""font-size:60px;"">treinta</p>","null","","","tone_number_task_remaining_before_delay","","treinta","","689.5","60","2","14",""
"","","","","","html-keyboard-response","111","275843","0.0-114.0-0.0","34","1","2023-10-31 21:04:32","a725c3012b74bf33a1020a98cb69c237","179.38.69.223","Mozilla/5.0 (Macintosh; Intel Mac OS X 10_15_7) AppleWebKit/537.36 (KHTML, like Gecko) Chrome/118.0.0.0 Safari/537.36","Macintosh","Chrome","118.0.0.0","OS X","10_15_7","null","en-US,en;q=0.9,es;q=0.8","true","491","<p id=""stimulus"" style=""font-size:60px;"">treinta</p>","j","","","empty_block","","treinta","","","","2","14",""
"","","","","","html-keyboard-response","112","278590","0.0-115.0","34","1","2023-10-31 21:04:32","a725c3012b74bf33a1020a98cb69c237","179.38.69.223","Mozilla/5.0 (Macintosh; Intel Mac OS X 10_15_7) AppleWebKit/537.36 (KHTML, like Gecko) Chrome/118.0.0.0 Safari/537.36","Macintosh","Chrome","118.0.0.0","OS X","10_15_7","null","en-US,en;q=0.9,es;q=0.8","true","null","<div style=""font-size:100px;"">X</div>","null","","","fixation","","","","","","","",""
"","","","","","audio-keyboard-response","113","279049","0.0-116.0","34","1","2023-10-31 21:04:32","a725c3012b74bf33a1020a98cb69c237","179.38.69.223","Mozilla/5.0 (Macintosh; Intel Mac OS X 10_15_7) AppleWebKit/537.36 (KHTML, like Gecko) Chrome/118.0.0.0 Safari/537.36","Macintosh","Chrome","118.0.0.0","OS X","10_15_7","null","en-US,en;q=0.9,es;q=0.8","true","459","tones/880hz_short.mp3","s","","","tone_number_task","992.5","sesenta","tones/880hz_short.mp3","1142.5","60","2","15",""
"","","","","","html-keyboard-response","114","279586","0.0-117.0-0.0","34","1","2023-10-31 21:04:32","a725c3012b74bf33a1020a98cb69c237","179.38.69.223","Mozilla/5.0 (Macintosh; Intel Mac OS X 10_15_7) AppleWebKit/537.36 (KHTML, like Gecko) Chrome/118.0.0.0 Safari/537.36","Macintosh","Chrome","118.0.0.0","OS X","10_15_7","null","en-US,en;q=0.9,es;q=0.8","true","null","","null","","","delay_block","","","","","","2","15",""
"","","","","","html-keyboard-response","115","279742","0.0-117.0-1.0","34","1","2023-10-31 21:04:32","a725c3012b74bf33a1020a98cb69c237","179.38.69.223","Mozilla/5.0 (Macintosh; Intel Mac OS X 10_15_7) AppleWebKit/537.36 (KHTML, like Gecko) Chrome/118.0.0.0 Safari/537.36","Macintosh","Chrome","118.0.0.0","OS X","10_15_7","null","en-US,en;q=0.9,es;q=0.8","true","null","<p id=""stimulus"" style=""font-size:60px;"">sesenta</p>","null","","","tone_number_task_remaining_before_delay","","sesenta","","683.5","60","2","15",""
"","","","","","html-keyboard-response","116","280264","0.0-120.0-0.0","34","1","2023-10-31 21:04:32","a725c3012b74bf33a1020a98cb69c237","179.38.69.223","Mozilla/5.0 (Macintosh; Intel Mac OS X 10_15_7) AppleWebKit/537.36 (KHTML, like Gecko) Chrome/118.0.0.0 Safari/537.36","Macintosh","Chrome","118.0.0.0","OS X","10_15_7","null","en-US,en;q=0.9,es;q=0.8","true","519","<p id=""stimulus"" style=""font-size:60px;"">sesenta</p>","k","","","empty_block","","sesenta","","","","2","15",""
"","","","","","html-keyboard-response","117","283009","0.0-121.0","34","1","2023-10-31 21:04:32","a725c3012b74bf33a1020a98cb69c237","179.38.69.223","Mozilla/5.0 (Macintosh; Intel Mac OS X 10_15_7) AppleWebKit/537.36 (KHTML, like Gecko) Chrome/118.0.0.0 Safari/537.36","Macintosh","Chrome","118.0.0.0","OS X","10_15_7","null","en-US,en;q=0.9,es;q=0.8","true","null","<div style=""font-size:100px;"">X</div>","null","","","fixation","","","","","","","",""
"","","","","","audio-keyboard-response","118","283267","0.0-122.0","34","1","2023-10-31 21:04:32","a725c3012b74bf33a1020a98cb69c237","179.38.69.223","Mozilla/5.0 (Macintosh; Intel Mac OS X 10_15_7) AppleWebKit/537.36 (KHTML, like Gecko) Chrome/118.0.0.0 Safari/537.36","Macintosh","Chrome","118.0.0.0","OS X","10_15_7","null","en-US,en;q=0.9,es;q=0.8","true","null","tones/440hz_short.mp3","null","","","tone_number_task","102.5","cincuenta y seis","tones/440hz_short.mp3","252.5","60","2","16",""
"","","","","","html-keyboard-response","119","283517","0.0-125.0-0.0","34","1","2023-10-31 21:04:32","a725c3012b74bf33a1020a98cb69c237","179.38.69.223","Mozilla/5.0 (Macintosh; Intel Mac OS X 10_15_7) AppleWebKit/537.36 (KHTML, like Gecko) Chrome/118.0.0.0 Safari/537.36","Macintosh","Chrome","118.0.0.0","OS X","10_15_7","null","en-US,en;q=0.9,es;q=0.8","true","247","tones/440hz_short.mp3","a","","","empty_block","","cincuenta y seis","","","","2","16",""
"","","","","","html-keyboard-response","120","284121","0.0-125.0-1.0","34","1","2023-10-31 21:04:32","a725c3012b74bf33a1020a98cb69c237","179.38.69.223","Mozilla/5.0 (Macintosh; Intel Mac OS X 10_15_7) AppleWebKit/537.36 (KHTML, like Gecko) Chrome/118.0.0.0 Safari/537.36","Macintosh","Chrome","118.0.0.0","OS X","10_15_7","null","en-US,en;q=0.9,es;q=0.8","true","602","tones/440hz_short.mp3","k","","","empty_block","","cincuenta y seis","","","","2","16",""
"","","","","","html-keyboard-response","121","286869","0.0-127.0","34","1","2023-10-31 21:04:32","a725c3012b74bf33a1020a98cb69c237","179.38.69.223","Mozilla/5.0 (Macintosh; Intel Mac OS X 10_15_7) AppleWebKit/537.36 (KHTML, like Gecko) Chrome/118.0.0.0 Safari/537.36","Macintosh","Chrome","118.0.0.0","OS X","10_15_7","null","en-US,en;q=0.9,es;q=0.8","true","null","<div style=""font-size:100px;"">X</div>","null","","","fixation","","","","","","","",""
"","","","","","audio-keyboard-response","122","287129","0.0-128.0","34","1","2023-10-31 21:04:32","a725c3012b74bf33a1020a98cb69c237","179.38.69.223","Mozilla/5.0 (Macintosh; Intel Mac OS X 10_15_7) AppleWebKit/537.36 (KHTML, like Gecko) Chrome/118.0.0.0 Safari/537.36","Macintosh","Chrome","118.0.0.0","OS X","10_15_7","null","en-US,en;q=0.9,es;q=0.8","true","null","tones/880hz_short.mp3","null","","","tone_number_task","102.5","cincuenta y ocho","tones/880hz_short.mp3","252.5","60","2","17",""
"","","","","","html-keyboard-response","123","287512","0.0-131.0-0.0","34","1","2023-10-31 21:04:32","a725c3012b74bf33a1020a98cb69c237","179.38.69.223","Mozilla/5.0 (Macintosh; Intel Mac OS X 10_15_7) AppleWebKit/537.36 (KHTML, like Gecko) Chrome/118.0.0.0 Safari/537.36","Macintosh","Chrome","118.0.0.0","OS X","10_15_7","null","en-US,en;q=0.9,es;q=0.8","true","380","tones/880hz_short.mp3","s","","","empty_block","","cincuenta y ocho","","","","2","17",""
"","","","","","html-keyboard-response","124","288384","0.0-131.0-1.0","34","1","2023-10-31 21:04:32","a725c3012b74bf33a1020a98cb69c237","179.38.69.223","Mozilla/5.0 (Macintosh; Intel Mac OS X 10_15_7) AppleWebKit/537.36 (KHTML, like Gecko) Chrome/118.0.0.0 Safari/537.36","Macintosh","Chrome","118.0.0.0","OS X","10_15_7","null","en-US,en;q=0.9,es;q=0.8","true","870","tones/880hz_short.mp3","k","","","empty_block","","cincuenta y ocho","","","","2","17",""
"","","","","","html-keyboard-response","125","291128","0.0-133.0","34","1","2023-10-31 21:04:32","a725c3012b74bf33a1020a98cb69c237","179.38.69.223","Mozilla/5.0 (Macintosh; Intel Mac OS X 10_15_7) AppleWebKit/537.36 (KHTML, like Gecko) Chrome/118.0.0.0 Safari/537.36","Macintosh","Chrome","118.0.0.0","OS X","10_15_7","null","en-US,en;q=0.9,es;q=0.8","true","null","<div style=""font-size:100px;"">X</div>","null","","","fixation","","","","","","","",""
"","","","","","audio-keyboard-response","126","291283","0.0-134.0","34","1","2023-10-31 21:04:32","a725c3012b74bf33a1020a98cb69c237","179.38.69.223","Mozilla/5.0 (Macintosh; Intel Mac OS X 10_15_7) AppleWebKit/537.36 (KHTML, like Gecko) Chrome/118.0.0.0 Safari/537.36","Macintosh","Chrome","118.0.0.0","OS X","10_15_7","null","en-US,en;q=0.9,es;q=0.8","true","null","tones/440hz_short.mp3","null","","","tone_number_task","0","veintidós","tones/440hz_short.mp3","150","60","2","18",""
"","","","","","html-keyboard-response","127","291688","0.0-137.0-0.0","34","1","2023-10-31 21:04:32","a725c3012b74bf33a1020a98cb69c237","179.38.69.223","Mozilla/5.0 (Macintosh; Intel Mac OS X 10_15_7) AppleWebKit/537.36 (KHTML, like Gecko) Chrome/118.0.0.0 Safari/537.36","Macintosh","Chrome","118.0.0.0","OS X","10_15_7","null","en-US,en;q=0.9,es;q=0.8","true","402","tones/440hz_short.mp3","a","","","empty_block","","veintidós","","","","2","18",""
"","","","","","html-keyboard-response","128","292065","0.0-137.0-1.0","34","1","2023-10-31 21:04:32","a725c3012b74bf33a1020a98cb69c237","179.38.69.223","Mozilla/5.0 (Macintosh; Intel Mac OS X 10_15_7) AppleWebKit/537.36 (KHTML, like Gecko) Chrome/118.0.0.0 Safari/537.36","Macintosh","Chrome","118.0.0.0","OS X","10_15_7","null","en-US,en;q=0.9,es;q=0.8","true","374","tones/440hz_short.mp3","j","","","empty_block","","veintidós","","","","2","18",""
"","","","","","html-keyboard-response","129","294814","0.0-139.0","34","1","2023-10-31 21:04:32","a725c3012b74bf33a1020a98cb69c237","179.38.69.223","Mozilla/5.0 (Macintosh; Intel Mac OS X 10_15_7) AppleWebKit/537.36 (KHTML, like Gecko) Chrome/118.0.0.0 Safari/537.36","Macintosh","Chrome","118.0.0.0","OS X","10_15_7","null","en-US,en;q=0.9,es;q=0.8","true","null","<div style=""font-size:100px;"">X</div>","null","","","fixation","","","","","","","",""
"","","","","","audio-keyboard-response","130","295370","0.0-140.0","34","1","2023-10-31 21:04:32","a725c3012b74bf33a1020a98cb69c237","179.38.69.223","Mozilla/5.0 (Macintosh; Intel Mac OS X 10_15_7) AppleWebKit/537.36 (KHTML, like Gecko) Chrome/118.0.0.0 Safari/537.36","Macintosh","Chrome","118.0.0.0","OS X","10_15_7","null","en-US,en;q=0.9,es;q=0.8","true","555","tones/880hz_short.mp3","s","","","tone_number_task","1025","treinta y cuatro","tones/880hz_short.mp3","1175","60","2","19",""
"","","","","","html-keyboard-response","131","295843","0.0-141.0-0.0","34","1","2023-10-31 21:04:32","a725c3012b74bf33a1020a98cb69c237","179.38.69.223","Mozilla/5.0 (Macintosh; Intel Mac OS X 10_15_7) AppleWebKit/537.36 (KHTML, like Gecko) Chrome/118.0.0.0 Safari/537.36","Macintosh","Chrome","118.0.0.0","OS X","10_15_7","null","en-US,en;q=0.9,es;q=0.8","true","null","","null","","","delay_block","","","","","","2","19",""
"","","","","","html-keyboard-response","132","295998","0.0-141.0-1.0","34","1","2023-10-31 21:04:32","a725c3012b74bf33a1020a98cb69c237","179.38.69.223","Mozilla/5.0 (Macintosh; Intel Mac OS X 10_15_7) AppleWebKit/537.36 (KHTML, like Gecko) Chrome/118.0.0.0 Safari/537.36","Macintosh","Chrome","118.0.0.0","OS X","10_15_7","null","en-US,en;q=0.9,es;q=0.8","true","null","<p id=""stimulus"" style=""font-size:60px;"">treinta y cuatro</p>","null","","","tone_number_task_remaining_before_delay","","treinta y cuatro","","620","60","2","19",""
"","","","","","html-keyboard-response","133","296561","0.0-144.0-0.0","34","1","2023-10-31 21:04:32","a725c3012b74bf33a1020a98cb69c237","179.38.69.223","Mozilla/5.0 (Macintosh; Intel Mac OS X 10_15_7) AppleWebKit/537.36 (KHTML, like Gecko) Chrome/118.0.0.0 Safari/537.36","Macintosh","Chrome","118.0.0.0","OS X","10_15_7","null","en-US,en;q=0.9,es;q=0.8","true","561","<p id=""stimulus"" style=""font-size:60px;"">treinta y cuatro</p>","j","","","empty_block","","treinta y cuatro","","","","2","19",""
"","","","","","html-keyboard-response","134","299307","0.0-145.0","34","1","2023-10-31 21:04:32","a725c3012b74bf33a1020a98cb69c237","179.38.69.223","Mozilla/5.0 (Macintosh; Intel Mac OS X 10_15_7) AppleWebKit/537.36 (KHTML, like Gecko) Chrome/118.0.0.0 Safari/537.36","Macintosh","Chrome","118.0.0.0","OS X","10_15_7","null","en-US,en;q=0.9,es;q=0.8","true","null","<div style=""font-size:100px;"">X</div>","null","","","fixation","","","","","","","",""
"","","","","","audio-keyboard-response","135","299464","0.0-146.0","34","1","2023-10-31 21:04:32","a725c3012b74bf33a1020a98cb69c237","179.38.69.223","Mozilla/5.0 (Macintosh; Intel Mac OS X 10_15_7) AppleWebKit/537.36 (KHTML, like Gecko) Chrome/118.0.0.0 Safari/537.36","Macintosh","Chrome","118.0.0.0","OS X","10_15_7","null","en-US,en;q=0.9,es;q=0.8","true","null","tones/440hz_short.mp3","null","","","tone_number_task","0","sesenta","tones/440hz_short.mp3","150","60","2","20",""
"","","","","","html-keyboard-response","136","299756","0.0-149.0-0.0","34","1","2023-10-31 21:04:32","a725c3012b74bf33a1020a98cb69c237","179.38.69.223","Mozilla/5.0 (Macintosh; Intel Mac OS X 10_15_7) AppleWebKit/537.36 (KHTML, like Gecko) Chrome/118.0.0.0 Safari/537.36","Macintosh","Chrome","118.0.0.0","OS X","10_15_7","null","en-US,en;q=0.9,es;q=0.8","true","289","tones/440hz_short.mp3","a","","","empty_block","","sesenta","","","","2","20",""
"","","","","","html-keyboard-response","137","300172","0.0-149.0-1.0","34","1","2023-10-31 21:04:32","a725c3012b74bf33a1020a98cb69c237","179.38.69.223","Mozilla/5.0 (Macintosh; Intel Mac OS X 10_15_7) AppleWebKit/537.36 (KHTML, like Gecko) Chrome/118.0.0.0 Safari/537.36","Macintosh","Chrome","118.0.0.0","OS X","10_15_7","null","en-US,en;q=0.9,es;q=0.8","true","413","tones/440hz_short.mp3","k","","","empty_block","","sesenta","","","","2","20",""
"","","","","","html-keyboard-response","138","302918","0.0-151.0","34","1","2023-10-31 21:04:32","a725c3012b74bf33a1020a98cb69c237","179.38.69.223","Mozilla/5.0 (Macintosh; Intel Mac OS X 10_15_7) AppleWebKit/537.36 (KHTML, like Gecko) Chrome/118.0.0.0 Safari/537.36","Macintosh","Chrome","118.0.0.0","OS X","10_15_7","null","en-US,en;q=0.9,es;q=0.8","true","null","<div style=""font-size:100px;"">X</div>","null","","","fixation","","","","","","","",""
"","","","","","audio-keyboard-response","139","303510","0.0-152.0","34","1","2023-10-31 21:04:32","a725c3012b74bf33a1020a98cb69c237","179.38.69.223","Mozilla/5.0 (Macintosh; Intel Mac OS X 10_15_7) AppleWebKit/537.36 (KHTML, like Gecko) Chrome/118.0.0.0 Safari/537.36","Macintosh","Chrome","118.0.0.0","OS X","10_15_7","null","en-US,en;q=0.9,es;q=0.8","true","587","tones/440hz_short.mp3","a","","","tone_number_task","1025","treinta y uno","tones/440hz_short.mp3","1175","60","2","21",""
"","","","","","html-keyboard-response","140","303953","0.0-153.0-0.0","34","1","2023-10-31 21:04:32","a725c3012b74bf33a1020a98cb69c237","179.38.69.223","Mozilla/5.0 (Macintosh; Intel Mac OS X 10_15_7) AppleWebKit/537.36 (KHTML, like Gecko) Chrome/118.0.0.0 Safari/537.36","Macintosh","Chrome","118.0.0.0","OS X","10_15_7","null","en-US,en;q=0.9,es;q=0.8","true","null","","null","","","delay_block","","","","","","2","21",""
"","","","","","html-keyboard-response","141","304110","0.0-153.0-1.0","34","1","2023-10-31 21:04:32","a725c3012b74bf33a1020a98cb69c237","179.38.69.223","Mozilla/5.0 (Macintosh; Intel Mac OS X 10_15_7) AppleWebKit/537.36 (KHTML, like Gecko) Chrome/118.0.0.0 Safari/537.36","Macintosh","Chrome","118.0.0.0","OS X","10_15_7","null","en-US,en;q=0.9,es;q=0.8","true","null","<p id=""stimulus"" style=""font-size:60px;"">treinta y uno</p>","null","","","tone_number_task_remaining_before_delay","","treinta y uno","","588","60","2","21",""
"","","","","","html-keyboard-response","142","304636","0.0-156.0-0.0","34","1","2023-10-31 21:04:32","a725c3012b74bf33a1020a98cb69c237","179.38.69.223","Mozilla/5.0 (Macintosh; Intel Mac OS X 10_15_7) AppleWebKit/537.36 (KHTML, like Gecko) Chrome/118.0.0.0 Safari/537.36","Macintosh","Chrome","118.0.0.0","OS X","10_15_7","null","en-US,en;q=0.9,es;q=0.8","true","524","<p id=""stimulus"" style=""font-size:60px;"">treinta y uno</p>","j","","","empty_block","","treinta y uno","","","","2","21",""
"","","","","","html-keyboard-response","143","307385","0.0-157.0","34","1","2023-10-31 21:04:32","a725c3012b74bf33a1020a98cb69c237","179.38.69.223","Mozilla/5.0 (Macintosh; Intel Mac OS X 10_15_7) AppleWebKit/537.36 (KHTML, like Gecko) Chrome/118.0.0.0 Safari/537.36","Macintosh","Chrome","118.0.0.0","OS X","10_15_7","null","en-US,en;q=0.9,es;q=0.8","true","null","<div style=""font-size:100px;"">X</div>","null","","","fixation","","","","","","","",""
"","","","","","audio-keyboard-response","144","307856","0.0-158.0","34","1","2023-10-31 21:04:32","a725c3012b74bf33a1020a98cb69c237","179.38.69.223","Mozilla/5.0 (Macintosh; Intel Mac OS X 10_15_7) AppleWebKit/537.36 (KHTML, like Gecko) Chrome/118.0.0.0 Safari/537.36","Macintosh","Chrome","118.0.0.0","OS X","10_15_7","null","en-US,en;q=0.9,es;q=0.8","true","469","tones/880hz_short.mp3","s","","","tone_number_task","1025","cincuenta y nueve","tones/880hz_short.mp3","1175","60","2","22",""
"","","","","","html-keyboard-response","145","308417","0.0-159.0-0.0","34","1","2023-10-31 21:04:32","a725c3012b74bf33a1020a98cb69c237","179.38.69.223","Mozilla/5.0 (Macintosh; Intel Mac OS X 10_15_7) AppleWebKit/537.36 (KHTML, like Gecko) Chrome/118.0.0.0 Safari/537.36","Macintosh","Chrome","118.0.0.0","OS X","10_15_7","null","en-US,en;q=0.9,es;q=0.8","true","null","","null","","","delay_block","","","","","","2","22",""
"","","","","","html-keyboard-response","146","308576","0.0-159.0-1.0","34","1","2023-10-31 21:04:32","a725c3012b74bf33a1020a98cb69c237","179.38.69.223","Mozilla/5.0 (Macintosh; Intel Mac OS X 10_15_7) AppleWebKit/537.36 (KHTML, like Gecko) Chrome/118.0.0.0 Safari/537.36","Macintosh","Chrome","118.0.0.0","OS X","10_15_7","null","en-US,en;q=0.9,es;q=0.8","true","null","<p id=""stimulus"" style=""font-size:60px;"">cincuenta y nueve</p>","null","","","tone_number_task_remaining_before_delay","","cincuenta y nueve","","706","60","2","22",""
"","","","","","html-keyboard-response","147","309634","0.0-162.0-0.0","34","1","2023-10-31 21:04:32","a725c3012b74bf33a1020a98cb69c237","179.38.69.223","Mozilla/5.0 (Macintosh; Intel Mac OS X 10_15_7) AppleWebKit/537.36 (KHTML, like Gecko) Chrome/118.0.0.0 Safari/537.36","Macintosh","Chrome","118.0.0.0","OS X","10_15_7","null","en-US,en;q=0.9,es;q=0.8","true","1055","<p id=""stimulus"" style=""font-size:60px;"">cincuenta y nueve</p>","k","","","empty_block","","cincuenta y nueve","","","","2","22",""
"","","","","","html-keyboard-response","148","312382","0.0-163.0","34","1","2023-10-31 21:04:32","a725c3012b74bf33a1020a98cb69c237","179.38.69.223","Mozilla/5.0 (Macintosh; Intel Mac OS X 10_15_7) AppleWebKit/537.36 (KHTML, like Gecko) Chrome/118.0.0.0 Safari/537.36","Macintosh","Chrome","118.0.0.0","OS X","10_15_7","null","en-US,en;q=0.9,es;q=0.8","true","null","<div style=""font-size:100px;"">X</div>","null","","","fixation","","","","","","","",""
"","","","","","audio-keyboard-response","149","312913","0.0-164.0","34","1","2023-10-31 21:04:32","a725c3012b74bf33a1020a98cb69c237","179.38.69.223","Mozilla/5.0 (Macintosh; Intel Mac OS X 10_15_7) AppleWebKit/537.36 (KHTML, like Gecko) Chrome/118.0.0.0 Safari/537.36","Macintosh","Chrome","118.0.0.0","OS X","10_15_7","null","en-US,en;q=0.9,es;q=0.8","true","528","tones/880hz_short.mp3","s","","","tone_number_task","992.5","veinticuatro","tones/880hz_short.mp3","1142.5","60","2","23",""
"","","","","","html-keyboard-response","150","313382","0.0-165.0-0.0","34","1","2023-10-31 21:04:32","a725c3012b74bf33a1020a98cb69c237","179.38.69.223","Mozilla/5.0 (Macintosh; Intel Mac OS X 10_15_7) AppleWebKit/537.36 (KHTML, like Gecko) Chrome/118.0.0.0 Safari/537.36","Macintosh","Chrome","118.0.0.0","OS X","10_15_7","null","en-US,en;q=0.9,es;q=0.8","true","null","","null","","","delay_block","","","","","","2","23",""
"","","","","","html-keyboard-response","151","313536","0.0-165.0-1.0","34","1","2023-10-31 21:04:32","a725c3012b74bf33a1020a98cb69c237","179.38.69.223","Mozilla/5.0 (Macintosh; Intel Mac OS X 10_15_7) AppleWebKit/537.36 (KHTML, like Gecko) Chrome/118.0.0.0 Safari/537.36","Macintosh","Chrome","118.0.0.0","OS X","10_15_7","null","en-US,en;q=0.9,es;q=0.8","true","null","<p id=""stimulus"" style=""font-size:60px;"">veinticuatro</p>","null","","","tone_number_task_remaining_before_delay","","veinticuatro","","614.5","60","2","23",""
"","","","","","html-keyboard-response","152","313982","0.0-168.0-0.0","34","1","2023-10-31 21:04:32","a725c3012b74bf33a1020a98cb69c237","179.38.69.223","Mozilla/5.0 (Macintosh; Intel Mac OS X 10_15_7) AppleWebKit/537.36 (KHTML, like Gecko) Chrome/118.0.0.0 Safari/537.36","Macintosh","Chrome","118.0.0.0","OS X","10_15_7","null","en-US,en;q=0.9,es;q=0.8","true","443","<p id=""stimulus"" style=""font-size:60px;"">veinticuatro</p>","j","","","empty_block","","veinticuatro","","","","2","23",""
"","","","","","html-keyboard-response","153","316730","0.0-169.0","34","1","2023-10-31 21:04:32","a725c3012b74bf33a1020a98cb69c237","179.38.69.223","Mozilla/5.0 (Macintosh; Intel Mac OS X 10_15_7) AppleWebKit/537.36 (KHTML, like Gecko) Chrome/118.0.0.0 Safari/537.36","Macintosh","Chrome","118.0.0.0","OS X","10_15_7","null","en-US,en;q=0.9,es;q=0.8","true","null","<div style=""font-size:100px;"">X</div>","null","","","fixation","","","","","","","",""
"","","","","","audio-keyboard-response","154","317157","0.0-170.0","34","1","2023-10-31 21:04:32","a725c3012b74bf33a1020a98cb69c237","179.38.69.223","Mozilla/5.0 (Macintosh; Intel Mac OS X 10_15_7) AppleWebKit/537.36 (KHTML, like Gecko) Chrome/118.0.0.0 Safari/537.36","Macintosh","Chrome","118.0.0.0","OS X","10_15_7","null","en-US,en;q=0.9,es;q=0.8","true","427","tones/440hz_short.mp3","a","","","tone_number_task","992.5","treinta y cinco","tones/440hz_short.mp3","1142.5","60","2","24",""
"","","","","","html-keyboard-response","155","317726","0.0-171.0-0.0","34","1","2023-10-31 21:04:32","a725c3012b74bf33a1020a98cb69c237","179.38.69.223","Mozilla/5.0 (Macintosh; Intel Mac OS X 10_15_7) AppleWebKit/537.36 (KHTML, like Gecko) Chrome/118.0.0.0 Safari/537.36","Macintosh","Chrome","118.0.0.0","OS X","10_15_7","null","en-US,en;q=0.9,es;q=0.8","true","null","","null","","","delay_block","","","","","","2","24",""
"","","","","","html-keyboard-response","156","317885","0.0-171.0-1.0","34","1","2023-10-31 21:04:32","a725c3012b74bf33a1020a98cb69c237","179.38.69.223","Mozilla/5.0 (Macintosh; Intel Mac OS X 10_15_7) AppleWebKit/537.36 (KHTML, like Gecko) Chrome/118.0.0.0 Safari/537.36","Macintosh","Chrome","118.0.0.0","OS X","10_15_7","null","en-US,en;q=0.9,es;q=0.8","true","null","<p id=""stimulus"" style=""font-size:60px;"">treinta y cinco</p>","null","","","tone_number_task_remaining_before_delay","","treinta y cinco","","715.5","60","2","24",""
"","","","","","html-keyboard-response","157","318384","0.0-174.0-0.0","34","1","2023-10-31 21:04:32","a725c3012b74bf33a1020a98cb69c237","179.38.69.223","Mozilla/5.0 (Macintosh; Intel Mac OS X 10_15_7) AppleWebKit/537.36 (KHTML, like Gecko) Chrome/118.0.0.0 Safari/537.36","Macintosh","Chrome","118.0.0.0","OS X","10_15_7","null","en-US,en;q=0.9,es;q=0.8","true","495","<p id=""stimulus"" style=""font-size:60px;"">treinta y cinco</p>","j","","","empty_block","","treinta y cinco","","","","2","24",""
"","","","","","html-keyboard-response","158","321131","0.0-175.0","34","1","2023-10-31 21:04:32","a725c3012b74bf33a1020a98cb69c237","179.38.69.223","Mozilla/5.0 (Macintosh; Intel Mac OS X 10_15_7) AppleWebKit/537.36 (KHTML, like Gecko) Chrome/118.0.0.0 Safari/537.36","Macintosh","Chrome","118.0.0.0","OS X","10_15_7","null","en-US,en;q=0.9,es;q=0.8","true","null","<div style=""font-size:100px;"">X</div>","null","","","fixation","","","","","","","",""
"","","","","","audio-keyboard-response","159","321288","0.0-176.0","34","1","2023-10-31 21:04:32","a725c3012b74bf33a1020a98cb69c237","179.38.69.223","Mozilla/5.0 (Macintosh; Intel Mac OS X 10_15_7) AppleWebKit/537.36 (KHTML, like Gecko) Chrome/118.0.0.0 Safari/537.36","Macintosh","Chrome","118.0.0.0","OS X","10_15_7","null","en-US,en;q=0.9,es;q=0.8","true","null","tones/880hz_short.mp3","null","","","tone_number_task","0","cuarenta y siete","tones/880hz_short.mp3","150","60","2","25",""
"","","","","","html-keyboard-response","160","321605","0.0-179.0-0.0","34","1","2023-10-31 21:04:32","a725c3012b74bf33a1020a98cb69c237","179.38.69.223","Mozilla/5.0 (Macintosh; Intel Mac OS X 10_15_7) AppleWebKit/537.36 (KHTML, like Gecko) Chrome/118.0.0.0 Safari/537.36","Macintosh","Chrome","118.0.0.0","OS X","10_15_7","null","en-US,en;q=0.9,es;q=0.8","true","313","tones/880hz_short.mp3","s","","","empty_block","","cuarenta y siete","","","","2","25",""
"","","","","","html-keyboard-response","161","322084","0.0-179.0-1.0","34","1","2023-10-31 21:04:32","a725c3012b74bf33a1020a98cb69c237","179.38.69.223","Mozilla/5.0 (Macintosh; Intel Mac OS X 10_15_7) AppleWebKit/537.36 (KHTML, like Gecko) Chrome/118.0.0.0 Safari/537.36","Macintosh","Chrome","118.0.0.0","OS X","10_15_7","null","en-US,en;q=0.9,es;q=0.8","true","476","tones/880hz_short.mp3","k","","","empty_block","","cuarenta y siete","","","","2","25",""
"","","","","","html-keyboard-response","162","324831","0.0-181.0","34","1","2023-10-31 21:04:32","a725c3012b74bf33a1020a98cb69c237","179.38.69.223","Mozilla/5.0 (Macintosh; Intel Mac OS X 10_15_7) AppleWebKit/537.36 (KHTML, like Gecko) Chrome/118.0.0.0 Safari/537.36","Macintosh","Chrome","118.0.0.0","OS X","10_15_7","null","en-US,en;q=0.9,es;q=0.8","true","null","<div style=""font-size:100px;"">X</div>","null","","","fixation","","","","","","","",""
"","","","","","audio-keyboard-response","163","325088","0.0-182.0","34","1","2023-10-31 21:04:32","a725c3012b74bf33a1020a98cb69c237","179.38.69.223","Mozilla/5.0 (Macintosh; Intel Mac OS X 10_15_7) AppleWebKit/537.36 (KHTML, like Gecko) Chrome/118.0.0.0 Safari/537.36","Macintosh","Chrome","118.0.0.0","OS X","10_15_7","null","en-US,en;q=0.9,es;q=0.8","true","null","tones/440hz_short.mp3","null","","","tone_number_task","102.5","veintiocho","tones/440hz_short.mp3","252.5","60","2","26",""
"","","","","","html-keyboard-response","164","325345","0.0-185.0-0.0","34","1","2023-10-31 21:04:32","a725c3012b74bf33a1020a98cb69c237","179.38.69.223","Mozilla/5.0 (Macintosh; Intel Mac OS X 10_15_7) AppleWebKit/537.36 (KHTML, like Gecko) Chrome/118.0.0.0 Safari/537.36","Macintosh","Chrome","118.0.0.0","OS X","10_15_7","null","en-US,en;q=0.9,es;q=0.8","true","254","tones/440hz_short.mp3","a","","","empty_block","","veintiocho","","","","2","26",""
"","","","","","html-keyboard-response","165","325758","0.0-185.0-1.0","34","1","2023-10-31 21:04:32","a725c3012b74bf33a1020a98cb69c237","179.38.69.223","Mozilla/5.0 (Macintosh; Intel Mac OS X 10_15_7) AppleWebKit/537.36 (KHTML, like Gecko) Chrome/118.0.0.0 Safari/537.36","Macintosh","Chrome","118.0.0.0","OS X","10_15_7","null","en-US,en;q=0.9,es;q=0.8","true","410","tones/440hz_short.mp3","j","","","empty_block","","veintiocho","","","","2","26",""
"","","","","","html-keyboard-response","166","328504","0.0-187.0","34","1","2023-10-31 21:04:32","a725c3012b74bf33a1020a98cb69c237","179.38.69.223","Mozilla/5.0 (Macintosh; Intel Mac OS X 10_15_7) AppleWebKit/537.36 (KHTML, like Gecko) Chrome/118.0.0.0 Safari/537.36","Macintosh","Chrome","118.0.0.0","OS X","10_15_7","null","en-US,en;q=0.9,es;q=0.8","true","null","<div style=""font-size:100px;"">X</div>","null","","","fixation","","","","","","","",""
"","","","","","audio-keyboard-response","167","329070","0.0-188.0","34","1","2023-10-31 21:04:32","a725c3012b74bf33a1020a98cb69c237","179.38.69.223","Mozilla/5.0 (Macintosh; Intel Mac OS X 10_15_7) AppleWebKit/537.36 (KHTML, like Gecko) Chrome/118.0.0.0 Safari/537.36","Macintosh","Chrome","118.0.0.0","OS X","10_15_7","null","en-US,en;q=0.9,es;q=0.8","true","565","tones/880hz_short.mp3","s","","","tone_number_task","992.5","sesenta y uno","tones/880hz_short.mp3","1142.5","60","2","27",""
"","","","","","html-keyboard-response","168","329502","0.0-189.0-0.0","34","1","2023-10-31 21:04:32","a725c3012b74bf33a1020a98cb69c237","179.38.69.223","Mozilla/5.0 (Macintosh; Intel Mac OS X 10_15_7) AppleWebKit/537.36 (KHTML, like Gecko) Chrome/118.0.0.0 Safari/537.36","Macintosh","Chrome","118.0.0.0","OS X","10_15_7","null","en-US,en;q=0.9,es;q=0.8","true","null","","null","","","delay_block","","","","","","2","27",""
"","","","","","html-keyboard-response","169","329657","0.0-189.0-1.0","34","1","2023-10-31 21:04:32","a725c3012b74bf33a1020a98cb69c237","179.38.69.223","Mozilla/5.0 (Macintosh; Intel Mac OS X 10_15_7) AppleWebKit/537.36 (KHTML, like Gecko) Chrome/118.0.0.0 Safari/537.36","Macintosh","Chrome","118.0.0.0","OS X","10_15_7","null","en-US,en;q=0.9,es;q=0.8","true","null","<p id=""stimulus"" style=""font-size:60px;"">sesenta y uno</p>","null","","","tone_number_task_remaining_before_delay","","sesenta y uno","","577.5","60","2","27",""
"","","","","","html-keyboard-response","170","330217","0.0-192.0-0.0","34","1","2023-10-31 21:04:32","a725c3012b74bf33a1020a98cb69c237","179.38.69.223","Mozilla/5.0 (Macintosh; Intel Mac OS X 10_15_7) AppleWebKit/537.36 (KHTML, like Gecko) Chrome/118.0.0.0 Safari/537.36","Macintosh","Chrome","118.0.0.0","OS X","10_15_7","null","en-US,en;q=0.9,es;q=0.8","true","556","<p id=""stimulus"" style=""font-size:60px;"">sesenta y uno</p>","k","","","empty_block","","sesenta y uno","","","","2","27",""
"","","","","","html-keyboard-response","171","332965","0.0-193.0","34","1","2023-10-31 21:04:32","a725c3012b74bf33a1020a98cb69c237","179.38.69.223","Mozilla/5.0 (Macintosh; Intel Mac OS X 10_15_7) AppleWebKit/537.36 (KHTML, like Gecko) Chrome/118.0.0.0 Safari/537.36","Macintosh","Chrome","118.0.0.0","OS X","10_15_7","null","en-US,en;q=0.9,es;q=0.8","true","null","<div style=""font-size:100px;"">X</div>","null","","","fixation","","","","","","","",""
"","","","","","audio-keyboard-response","172","333124","0.0-194.0","34","1","2023-10-31 21:04:32","a725c3012b74bf33a1020a98cb69c237","179.38.69.223","Mozilla/5.0 (Macintosh; Intel Mac OS X 10_15_7) AppleWebKit/537.36 (KHTML, like Gecko) Chrome/118.0.0.0 Safari/537.36","Macintosh","Chrome","118.0.0.0","OS X","10_15_7","null","en-US,en;q=0.9,es;q=0.8","true","null","tones/880hz_short.mp3","null","","","tone_number_task","0","cuarenta","tones/880hz_short.mp3","150","60","2","28",""
"","","","","","html-keyboard-response","173","333511","0.0-197.0-0.0","34","1","2023-10-31 21:04:32","a725c3012b74bf33a1020a98cb69c237","179.38.69.223","Mozilla/5.0 (Macintosh; Intel Mac OS X 10_15_7) AppleWebKit/537.36 (KHTML, like Gecko) Chrome/118.0.0.0 Safari/537.36","Macintosh","Chrome","118.0.0.0","OS X","10_15_7","null","en-US,en;q=0.9,es;q=0.8","true","382","tones/880hz_short.mp3","s","","","empty_block","","cuarenta","","","","2","28",""
"","","","","","html-keyboard-response","174","334047","0.0-197.0-1.0","34","1","2023-10-31 21:04:32","a725c3012b74bf33a1020a98cb69c237","179.38.69.223","Mozilla/5.0 (Macintosh; Intel Mac OS X 10_15_7) AppleWebKit/537.36 (KHTML, like Gecko) Chrome/118.0.0.0 Safari/537.36","Macintosh","Chrome","118.0.0.0","OS X","10_15_7","null","en-US,en;q=0.9,es;q=0.8","true","533","tones/880hz_short.mp3","j","","","empty_block","","cuarenta","","","","2","28",""
"","","","","","html-keyboard-response","175","336793","0.0-199.0","34","1","2023-10-31 21:04:32","a725c3012b74bf33a1020a98cb69c237","179.38.69.223","Mozilla/5.0 (Macintosh; Intel Mac OS X 10_15_7) AppleWebKit/537.36 (KHTML, like Gecko) Chrome/118.0.0.0 Safari/537.36","Macintosh","Chrome","118.0.0.0","OS X","10_15_7","null","en-US,en;q=0.9,es;q=0.8","true","null","<div style=""font-size:100px;"">X</div>","null","","","fixation","","","","","","","",""
"","","","","","audio-keyboard-response","176","337349","0.0-200.0","34","1","2023-10-31 21:04:32","a725c3012b74bf33a1020a98cb69c237","179.38.69.223","Mozilla/5.0 (Macintosh; Intel Mac OS X 10_15_7) AppleWebKit/537.36 (KHTML, like Gecko) Chrome/118.0.0.0 Safari/537.36","Macintosh","Chrome","118.0.0.0","OS X","10_15_7","null","en-US,en;q=0.9,es;q=0.8","true","555","tones/880hz_short.mp3","s","","","tone_number_task","1025","treinta y tres","tones/880hz_short.mp3","1175","60","2","29",""
"","","","","","html-keyboard-response","177","337825","0.0-201.0-0.0","34","1","2023-10-31 21:04:32","a725c3012b74bf33a1020a98cb69c237","179.38.69.223","Mozilla/5.0 (Macintosh; Intel Mac OS X 10_15_7) AppleWebKit/537.36 (KHTML, like Gecko) Chrome/118.0.0.0 Safari/537.36","Macintosh","Chrome","118.0.0.0","OS X","10_15_7","null","en-US,en;q=0.9,es;q=0.8","true","null","","null","","","delay_block","","","","","","2","29",""
"","","","","","html-keyboard-response","178","337981","0.0-201.0-1.0","34","1","2023-10-31 21:04:32","a725c3012b74bf33a1020a98cb69c237","179.38.69.223","Mozilla/5.0 (Macintosh; Intel Mac OS X 10_15_7) AppleWebKit/537.36 (KHTML, like Gecko) Chrome/118.0.0.0 Safari/537.36","Macintosh","Chrome","118.0.0.0","OS X","10_15_7","null","en-US,en;q=0.9,es;q=0.8","true","null","<p id=""stimulus"" style=""font-size:60px;"">treinta y tres</p>","null","","","tone_number_task_remaining_before_delay","","treinta y tres","","620","60","2","29",""
"","","","","","html-keyboard-response","179","339132","0.0-204.0-0.0","34","1","2023-10-31 21:04:32","a725c3012b74bf33a1020a98cb69c237","179.38.69.223","Mozilla/5.0 (Macintosh; Intel Mac OS X 10_15_7) AppleWebKit/537.36 (KHTML, like Gecko) Chrome/118.0.0.0 Safari/537.36","Macintosh","Chrome","118.0.0.0","OS X","10_15_7","null","en-US,en;q=0.9,es;q=0.8","true","1148","<p id=""stimulus"" style=""font-size:60px;"">treinta y tres</p>","j","","","empty_block","","treinta y tres","","","","2","29",""
"","","","","","html-keyboard-response","180","341877","0.0-205.0","34","1","2023-10-31 21:04:32","a725c3012b74bf33a1020a98cb69c237","179.38.69.223","Mozilla/5.0 (Macintosh; Intel Mac OS X 10_15_7) AppleWebKit/537.36 (KHTML, like Gecko) Chrome/118.0.0.0 Safari/537.36","Macintosh","Chrome","118.0.0.0","OS X","10_15_7","null","en-US,en;q=0.9,es;q=0.8","true","null","<div style=""font-size:100px;"">X</div>","null","","","fixation","","","","","","","",""
"","","","","","audio-keyboard-response","181","342545","0.0-206.0","34","1","2023-10-31 21:04:32","a725c3012b74bf33a1020a98cb69c237","179.38.69.223","Mozilla/5.0 (Macintosh; Intel Mac OS X 10_15_7) AppleWebKit/537.36 (KHTML, like Gecko) Chrome/118.0.0.0 Safari/537.36","Macintosh","Chrome","118.0.0.0","OS X","10_15_7","null","en-US,en;q=0.9,es;q=0.8","true","667","tones/880hz_short.mp3","s","","","tone_number_task","992.5","cuarenta y dos","tones/880hz_short.mp3","1142.5","60","2","30",""
"","","","","","html-keyboard-response","182","342875","0.0-207.0-0.0","34","1","2023-10-31 21:04:32","a725c3012b74bf33a1020a98cb69c237","179.38.69.223","Mozilla/5.0 (Macintosh; Intel Mac OS X 10_15_7) AppleWebKit/537.36 (KHTML, like Gecko) Chrome/118.0.0.0 Safari/537.36","Macintosh","Chrome","118.0.0.0","OS X","10_15_7","null","en-US,en;q=0.9,es;q=0.8","true","null","","null","","","delay_block","","","","","","2","30",""
"","","","","","html-keyboard-response","183","343033","0.0-207.0-1.0","34","1","2023-10-31 21:04:32","a725c3012b74bf33a1020a98cb69c237","179.38.69.223","Mozilla/5.0 (Macintosh; Intel Mac OS X 10_15_7) AppleWebKit/537.36 (KHTML, like Gecko) Chrome/118.0.0.0 Safari/537.36","Macintosh","Chrome","118.0.0.0","OS X","10_15_7","null","en-US,en;q=0.9,es;q=0.8","true","null","<p id=""stimulus"" style=""font-size:60px;"">cuarenta y dos</p>","null","","","tone_number_task_remaining_before_delay","","cuarenta y dos","","475.5","60","2","30",""
"","","","","","html-keyboard-response","184","343911","0.0-210.0-0.0","34","1","2023-10-31 21:04:32","a725c3012b74bf33a1020a98cb69c237","179.38.69.223","Mozilla/5.0 (Macintosh; Intel Mac OS X 10_15_7) AppleWebKit/537.36 (KHTML, like Gecko) Chrome/118.0.0.0 Safari/537.36","Macintosh","Chrome","118.0.0.0","OS X","10_15_7","null","en-US,en;q=0.9,es;q=0.8","true","874","<p id=""stimulus"" style=""font-size:60px;"">cuarenta y dos</p>","j","","","empty_block","","cuarenta y dos","","","","2","30",""
"","","","","","html-keyboard-response","185","346654","0.0-211.0","34","1","2023-10-31 21:04:32","a725c3012b74bf33a1020a98cb69c237","179.38.69.223","Mozilla/5.0 (Macintosh; Intel Mac OS X 10_15_7) AppleWebKit/537.36 (KHTML, like Gecko) Chrome/118.0.0.0 Safari/537.36","Macintosh","Chrome","118.0.0.0","OS X","10_15_7","null","en-US,en;q=0.9,es;q=0.8","true","null","<div style=""font-size:100px;"">X</div>","null","","","fixation","","","","","","","",""
"","","","","","audio-keyboard-response","186","346913","0.0-212.0","34","1","2023-10-31 21:04:32","a725c3012b74bf33a1020a98cb69c237","179.38.69.223","Mozilla/5.0 (Macintosh; Intel Mac OS X 10_15_7) AppleWebKit/537.36 (KHTML, like Gecko) Chrome/118.0.0.0 Safari/537.36","Macintosh","Chrome","118.0.0.0","OS X","10_15_7","null","en-US,en;q=0.9,es;q=0.8","true","null","tones/440hz_short.mp3","null","","","tone_number_task","102.5","sesenta y dos","tones/440hz_short.mp3","252.5","60","2","31",""
"","","","","","html-keyboard-response","187","347057","0.0-215.0-0.0","34","1","2023-10-31 21:04:32","a725c3012b74bf33a1020a98cb69c237","179.38.69.223","Mozilla/5.0 (Macintosh; Intel Mac OS X 10_15_7) AppleWebKit/537.36 (KHTML, like Gecko) Chrome/118.0.0.0 Safari/537.36","Macintosh","Chrome","118.0.0.0","OS X","10_15_7","null","en-US,en;q=0.9,es;q=0.8","true","141","tones/440hz_short.mp3","a","","","empty_block","","sesenta y dos","","","","2","31",""
"","","","","","html-keyboard-response","188","347563","0.0-215.0-1.0","34","1","2023-10-31 21:04:32","a725c3012b74bf33a1020a98cb69c237","179.38.69.223","Mozilla/5.0 (Macintosh; Intel Mac OS X 10_15_7) AppleWebKit/537.36 (KHTML, like Gecko) Chrome/118.0.0.0 Safari/537.36","Macintosh","Chrome","118.0.0.0","OS X","10_15_7","null","en-US,en;q=0.9,es;q=0.8","true","502","tones/440hz_short.mp3","k","","","empty_block","","sesenta y dos","","","","2","31",""
"","","","","","html-keyboard-response","189","350312","0.0-217.0","34","1","2023-10-31 21:04:32","a725c3012b74bf33a1020a98cb69c237","179.38.69.223","Mozilla/5.0 (Macintosh; Intel Mac OS X 10_15_7) AppleWebKit/537.36 (KHTML, like Gecko) Chrome/118.0.0.0 Safari/537.36","Macintosh","Chrome","118.0.0.0","OS X","10_15_7","null","en-US,en;q=0.9,es;q=0.8","true","null","<div style=""font-size:100px;"">X</div>","null","","","fixation","","","","","","","",""
"","","","","","audio-keyboard-response","190","350809","0.0-218.0","34","1","2023-10-31 21:04:32","a725c3012b74bf33a1020a98cb69c237","179.38.69.223","Mozilla/5.0 (Macintosh; Intel Mac OS X 10_15_7) AppleWebKit/537.36 (KHTML, like Gecko) Chrome/118.0.0.0 Safari/537.36","Macintosh","Chrome","118.0.0.0","OS X","10_15_7","null","en-US,en;q=0.9,es;q=0.8","true","491","tones/880hz_short.mp3","s","","","tone_number_task","1025","veintidós","tones/880hz_short.mp3","1175","60","2","32",""
"","","","","","html-keyboard-response","191","351347","0.0-219.0-0.0","34","1","2023-10-31 21:04:32","a725c3012b74bf33a1020a98cb69c237","179.38.69.223","Mozilla/5.0 (Macintosh; Intel Mac OS X 10_15_7) AppleWebKit/537.36 (KHTML, like Gecko) Chrome/118.0.0.0 Safari/537.36","Macintosh","Chrome","118.0.0.0","OS X","10_15_7","null","en-US,en;q=0.9,es;q=0.8","true","null","","null","","","delay_block","","","","","","2","32",""
"","","","","","html-keyboard-response","192","351506","0.0-219.0-1.0","34","1","2023-10-31 21:04:32","a725c3012b74bf33a1020a98cb69c237","179.38.69.223","Mozilla/5.0 (Macintosh; Intel Mac OS X 10_15_7) AppleWebKit/537.36 (KHTML, like Gecko) Chrome/118.0.0.0 Safari/537.36","Macintosh","Chrome","118.0.0.0","OS X","10_15_7","null","en-US,en;q=0.9,es;q=0.8","true","null","<p id=""stimulus"" style=""font-size:60px;"">veintidós</p>","null","","","tone_number_task_remaining_before_delay","","veintidós","","684","60","2","32",""
"","","","","","html-keyboard-response","193","351931","0.0-222.0-0.0","34","1","2023-10-31 21:04:32","a725c3012b74bf33a1020a98cb69c237","179.38.69.223","Mozilla/5.0 (Macintosh; Intel Mac OS X 10_15_7) AppleWebKit/537.36 (KHTML, like Gecko) Chrome/118.0.0.0 Safari/537.36","Macintosh","Chrome","118.0.0.0","OS X","10_15_7","null","en-US,en;q=0.9,es;q=0.8","true","421","<p id=""stimulus"" style=""font-size:60px;"">veintidós</p>","j","","","empty_block","","veintidós","","","","2","32",""
"","","","","","html-keyboard-response","194","354677","0.0-223.0","34","1","2023-10-31 21:04:32","a725c3012b74bf33a1020a98cb69c237","179.38.69.223","Mozilla/5.0 (Macintosh; Intel Mac OS X 10_15_7) AppleWebKit/537.36 (KHTML, like Gecko) Chrome/118.0.0.0 Safari/537.36","Macintosh","Chrome","118.0.0.0","OS X","10_15_7","null","en-US,en;q=0.9,es;q=0.8","true","null","<div style=""font-size:100px;"">X</div>","null","","","fixation","","","","","","","",""
"","","","","","audio-keyboard-response","195","354934","0.0-224.0","34","1","2023-10-31 21:04:32","a725c3012b74bf33a1020a98cb69c237","179.38.69.223","Mozilla/5.0 (Macintosh; Intel Mac OS X 10_15_7) AppleWebKit/537.36 (KHTML, like Gecko) Chrome/118.0.0.0 Safari/537.36","Macintosh","Chrome","118.0.0.0","OS X","10_15_7","null","en-US,en;q=0.9,es;q=0.8","true","null","tones/880hz_short.mp3","null","","","tone_number_task","102.5","cuarenta","tones/880hz_short.mp3","252.5","60","2","33",""
"","","","","","html-keyboard-response","196","355753","0.0-227.0-0.0","34","1","2023-10-31 21:04:32","a725c3012b74bf33a1020a98cb69c237","179.38.69.223","Mozilla/5.0 (Macintosh; Intel Mac OS X 10_15_7) AppleWebKit/537.36 (KHTML, like Gecko) Chrome/118.0.0.0 Safari/537.36","Macintosh","Chrome","118.0.0.0","OS X","10_15_7","null","en-US,en;q=0.9,es;q=0.8","true","816","tones/880hz_short.mp3","s","","","empty_block","","cuarenta","","","","2","33",""
"","","","","","html-keyboard-response","197","356209","0.0-227.0-1.0","34","1","2023-10-31 21:04:32","a725c3012b74bf33a1020a98cb69c237","179.38.69.223","Mozilla/5.0 (Macintosh; Intel Mac OS X 10_15_7) AppleWebKit/537.36 (KHTML, like Gecko) Chrome/118.0.0.0 Safari/537.36","Macintosh","Chrome","118.0.0.0","OS X","10_15_7","null","en-US,en;q=0.9,es;q=0.8","true","452","tones/880hz_short.mp3","j","","","empty_block","","cuarenta","","","","2","33",""
"","","","","","html-keyboard-response","198","358954","0.0-229.0","34","1","2023-10-31 21:04:32","a725c3012b74bf33a1020a98cb69c237","179.38.69.223","Mozilla/5.0 (Macintosh; Intel Mac OS X 10_15_7) AppleWebKit/537.36 (KHTML, like Gecko) Chrome/118.0.0.0 Safari/537.36","Macintosh","Chrome","118.0.0.0","OS X","10_15_7","null","en-US,en;q=0.9,es;q=0.8","true","null","<div style=""font-size:100px;"">X</div>","null","","","fixation","","","","","","","",""
"","","","","","audio-keyboard-response","199","359109","0.0-230.0","34","1","2023-10-31 21:04:32","a725c3012b74bf33a1020a98cb69c237","179.38.69.223","Mozilla/5.0 (Macintosh; Intel Mac OS X 10_15_7) AppleWebKit/537.36 (KHTML, like Gecko) Chrome/118.0.0.0 Safari/537.36","Macintosh","Chrome","118.0.0.0","OS X","10_15_7","null","en-US,en;q=0.9,es;q=0.8","true","null","tones/880hz_short.mp3","null","","","tone_number_task","0","cincuenta y seis","tones/880hz_short.mp3","150","60","2","34",""
"","","","","","html-keyboard-response","200","359623","0.0-233.0-0.0","34","1","2023-10-31 21:04:32","a725c3012b74bf33a1020a98cb69c237","179.38.69.223","Mozilla/5.0 (Macintosh; Intel Mac OS X 10_15_7) AppleWebKit/537.36 (KHTML, like Gecko) Chrome/118.0.0.0 Safari/537.36","Macintosh","Chrome","118.0.0.0","OS X","10_15_7","null","en-US,en;q=0.9,es;q=0.8","true","510","tones/880hz_short.mp3","s","","","empty_block","","cincuenta y seis","","","","2","34",""
"","","","","","html-keyboard-response","201","359937","0.0-233.0-1.0","34","1","2023-10-31 21:04:32","a725c3012b74bf33a1020a98cb69c237","179.38.69.223","Mozilla/5.0 (Macintosh; Intel Mac OS X 10_15_7) AppleWebKit/537.36 (KHTML, like Gecko) Chrome/118.0.0.0 Safari/537.36","Macintosh","Chrome","118.0.0.0","OS X","10_15_7","null","en-US,en;q=0.9,es;q=0.8","true","311","tones/880hz_short.mp3","k","","","empty_block","","cincuenta y seis","","","","2","34",""
"","","","","","html-keyboard-response","202","362685","0.0-235.0","34","1","2023-10-31 21:04:32","a725c3012b74bf33a1020a98cb69c237","179.38.69.223","Mozilla/5.0 (Macintosh; Intel Mac OS X 10_15_7) AppleWebKit/537.36 (KHTML, like Gecko) Chrome/118.0.0.0 Safari/537.36","Macintosh","Chrome","118.0.0.0","OS X","10_15_7","null","en-US,en;q=0.9,es;q=0.8","true","null","<div style=""font-size:100px;"">X</div>","null","","","fixation","","","","","","","",""
"","","","","","audio-keyboard-response","203","362945","0.0-236.0","34","1","2023-10-31 21:04:32","a725c3012b74bf33a1020a98cb69c237","179.38.69.223","Mozilla/5.0 (Macintosh; Intel Mac OS X 10_15_7) AppleWebKit/537.36 (KHTML, like Gecko) Chrome/118.0.0.0 Safari/537.36","Macintosh","Chrome","118.0.0.0","OS X","10_15_7","null","en-US,en;q=0.9,es;q=0.8","true","null","tones/440hz_short.mp3","null","","","tone_number_task","102.5","cuarenta y ocho","tones/440hz_short.mp3","252.5","60","2","35",""
"","","","","","html-keyboard-response","204","363418","0.0-239.0-0.0","34","1","2023-10-31 21:04:32","a725c3012b74bf33a1020a98cb69c237","179.38.69.223","Mozilla/5.0 (Macintosh; Intel Mac OS X 10_15_7) AppleWebKit/537.36 (KHTML, like Gecko) Chrome/118.0.0.0 Safari/537.36","Macintosh","Chrome","118.0.0.0","OS X","10_15_7","null","en-US,en;q=0.9,es;q=0.8","true","468","tones/440hz_short.mp3","a","","","empty_block","","cuarenta y ocho","","","","2","35",""
"","","","","","html-keyboard-response","205","363736","0.0-239.0-1.0","34","1","2023-10-31 21:04:32","a725c3012b74bf33a1020a98cb69c237","179.38.69.223","Mozilla/5.0 (Macintosh; Intel Mac OS X 10_15_7) AppleWebKit/537.36 (KHTML, like Gecko) Chrome/118.0.0.0 Safari/537.36","Macintosh","Chrome","118.0.0.0","OS X","10_15_7","null","en-US,en;q=0.9,es;q=0.8","true","314","tones/440hz_short.mp3","k","","","empty_block","","cuarenta y ocho","","","","2","35",""
"","","","","","html-keyboard-response","206","366483","0.0-241.0","34","1","2023-10-31 21:04:32","a725c3012b74bf33a1020a98cb69c237","179.38.69.223","Mozilla/5.0 (Macintosh; Intel Mac OS X 10_15_7) AppleWebKit/537.36 (KHTML, like Gecko) Chrome/118.0.0.0 Safari/537.36","Macintosh","Chrome","118.0.0.0","OS X","10_15_7","null","en-US,en;q=0.9,es;q=0.8","true","null","<div style=""font-size:100px;"">X</div>","null","","","fixation","","","","","","","",""
"","","","","","audio-keyboard-response","207","367124","0.0-242.0","34","1","2023-10-31 21:04:32","a725c3012b74bf33a1020a98cb69c237","179.38.69.223","Mozilla/5.0 (Macintosh; Intel Mac OS X 10_15_7) AppleWebKit/537.36 (KHTML, like Gecko) Chrome/118.0.0.0 Safari/537.36","Macintosh","Chrome","118.0.0.0","OS X","10_15_7","null","en-US,en;q=0.9,es;q=0.8","true","640","tones/880hz_short.mp3","s","","","tone_number_task","1025","veintiseis","tones/880hz_short.mp3","1175","60","2","36",""
"","","","","","html-keyboard-response","208","367515","0.0-243.0-0.0","34","1","2023-10-31 21:04:32","a725c3012b74bf33a1020a98cb69c237","179.38.69.223","Mozilla/5.0 (Macintosh; Intel Mac OS X 10_15_7) AppleWebKit/537.36 (KHTML, like Gecko) Chrome/118.0.0.0 Safari/537.36","Macintosh","Chrome","118.0.0.0","OS X","10_15_7","null","en-US,en;q=0.9,es;q=0.8","true","null","","null","","","delay_block","","","","","","2","36",""
