"success","timeout","failed_images","failed_audio","failed_video","trial_type","trial_index","time_elapsed","internal_node_id","run_id","condition","recorded_at","source_code_version","ip","user_agent","device","browser","browser_version","platform","platform_version","referer","accept_language","check","rt","stimulus","response","question_order","url","task","delay","number","audioFile","trial_duration","font_size","block","round","value"
"true","false","[]","[]","[]","preload","0","566","0.0-0.0","29","1","2023-10-24 17:52:08","a725c3012b74bf33a1020a98cb69c237","181.231.6.41","Mozilla/5.0 (Windows NT 10.0; Win64; x64) AppleWebKit/537.36 (KHTML, like Gecko) Chrome/118.0.0.0 Safari/537.36","WebKit","Chrome","118.0.0.0","Windows","10.0","null","en-US,en;q=0.9,es-AR;q=0.8,es;q=0.7,fr-FR;q=0.6,fr;q=0.5","true","","","","","","","","","","","","","",""
"true","","","","","fullscreen","1","21108","0.0-1.0","29","1","2023-10-24 17:52:08","a725c3012b74bf33a1020a98cb69c237","181.231.6.41","Mozilla/5.0 (Windows NT 10.0; Win64; x64) AppleWebKit/537.36 (KHTML, like Gecko) Chrome/118.0.0.0 Safari/537.36","WebKit","Chrome","118.0.0.0","Windows","10.0","null","en-US,en;q=0.9,es-AR;q=0.8,es;q=0.7,fr-FR;q=0.6,fr;q=0.5","true","","","","","","","","","","","","","",""
"","","","","","html-button-response","2","22989","0.0-2.0","29","1","2023-10-24 17:52:08","a725c3012b74bf33a1020a98cb69c237","181.231.6.41","Mozilla/5.0 (Windows NT 10.0; Win64; x64) AppleWebKit/537.36 (KHTML, like Gecko) Chrome/118.0.0.0 Safari/537.36","WebKit","Chrome","118.0.0.0","Windows","10.0","null","en-US,en;q=0.9,es-AR;q=0.8,es;q=0.7,fr-FR;q=0.6,fr;q=0.5","true","1880","<p style=""font-size:24px; color:red;"">Cosas importantes a tener en cuenta antes de comenzar el experimento:</p>","0","","","","","","","","","","",""
"","","","","","html-button-response","3","27725","0.0-3.0","29","1","2023-10-24 17:52:08","a725c3012b74bf33a1020a98cb69c237","181.231.6.41","Mozilla/5.0 (Windows NT 10.0; Win64; x64) AppleWebKit/537.36 (KHTML, like Gecko) Chrome/118.0.0.0 Safari/537.36","WebKit","Chrome","118.0.0.0","Windows","10.0","null","en-US,en;q=0.9,es-AR;q=0.8,es;q=0.7,fr-FR;q=0.6,fr;q=0.5","true","4735","<p style=""font-size:24px;"">El experimento dura aproximadamente 15 minutos.</p><p style=""font-size:24px;"">Por favor, no cierres la ventana del navegador durante el experimento.</p><p style=""font-size:24px;"">Si se completa de forma parcial, no se guardará ningún resultado.</p>","0","","","","","","","","","","",""
"","","","","","html-button-response","4","30621","0.0-4.0","29","1","2023-10-24 17:52:08","a725c3012b74bf33a1020a98cb69c237","181.231.6.41","Mozilla/5.0 (Windows NT 10.0; Win64; x64) AppleWebKit/537.36 (KHTML, like Gecko) Chrome/118.0.0.0 Safari/537.36","WebKit","Chrome","118.0.0.0","Windows","10.0","null","en-US,en;q=0.9,es-AR;q=0.8,es;q=0.7,fr-FR;q=0.6,fr;q=0.5","true","2895","<p style=""font-size:24px;"">El experimento contiene estímulos sonoros.</p>","0","","","","","","","","","","",""
"","","","","","audio-button-response","5","34957","0.0-5.0-0.0","29","1","2023-10-24 17:52:08","a725c3012b74bf33a1020a98cb69c237","181.231.6.41","Mozilla/5.0 (Windows NT 10.0; Win64; x64) AppleWebKit/537.36 (KHTML, like Gecko) Chrome/118.0.0.0 Safari/537.36","WebKit","Chrome","118.0.0.0","Windows","10.0","null","en-US,en;q=0.9,es-AR;q=0.8,es;q=0.7,fr-FR;q=0.6,fr;q=0.5","true","4309","tones/440hz_short.mp3","1","","","","","","","","","","",""
"","","","","","audio-button-response","6","36429","0.0-6.0-0.0","29","1","2023-10-24 17:52:08","a725c3012b74bf33a1020a98cb69c237","181.231.6.41","Mozilla/5.0 (Windows NT 10.0; Win64; x64) AppleWebKit/537.36 (KHTML, like Gecko) Chrome/118.0.0.0 Safari/537.36","WebKit","Chrome","118.0.0.0","Windows","10.0","null","en-US,en;q=0.9,es-AR;q=0.8,es;q=0.7,fr-FR;q=0.6,fr;q=0.5","true","1472","tones/880hz_short.mp3","1","","","","","","","","","","",""
"","","","","","survey-html-form","7","39158","0.0-7.0","29","1","2023-10-24 17:52:08","a725c3012b74bf33a1020a98cb69c237","181.231.6.41","Mozilla/5.0 (Windows NT 10.0; Win64; x64) AppleWebKit/537.36 (KHTML, like Gecko) Chrome/118.0.0.0 Safari/537.36","WebKit","Chrome","118.0.0.0","Windows","10.0","null","en-US,en;q=0.9,es-AR;q=0.8,es;q=0.7,fr-FR;q=0.6,fr;q=0.5","true","2725","","{""response"":""26""}","","","","","","","","","","",""
"","","","","","survey-multi-choice","8","44077","0.0-8.0","29","1","2023-10-24 17:52:08","a725c3012b74bf33a1020a98cb69c237","181.231.6.41","Mozilla/5.0 (Windows NT 10.0; Win64; x64) AppleWebKit/537.36 (KHTML, like Gecko) Chrome/118.0.0.0 Safari/537.36","WebKit","Chrome","118.0.0.0","Windows","10.0","null","en-US,en;q=0.9,es-AR;q=0.8,es;q=0.7,fr-FR;q=0.6,fr;q=0.5","true","4918","","{""gender"":""Hombre"",""hand"":""Izquierda""}","[0,1]","","","","","","","","","",""
"","","","","","external-html","9","94110","0.0-9.0","29","1","2023-10-24 17:52:08","a725c3012b74bf33a1020a98cb69c237","181.231.6.41","Mozilla/5.0 (Windows NT 10.0; Win64; x64) AppleWebKit/537.36 (KHTML, like Gecko) Chrome/118.0.0.0 Safari/537.36","WebKit","Chrome","118.0.0.0","Windows","10.0","null","en-US,en;q=0.9,es-AR;q=0.8,es;q=0.7,fr-FR;q=0.6,fr;q=0.5","true","49612","","","","instructions/instructions.html","","","","","","","","",""
"","","","","","external-html","10","125428","0.0-10.0","29","1","2023-10-24 17:52:08","a725c3012b74bf33a1020a98cb69c237","181.231.6.41","Mozilla/5.0 (Windows NT 10.0; Win64; x64) AppleWebKit/537.36 (KHTML, like Gecko) Chrome/118.0.0.0 Safari/537.36","WebKit","Chrome","118.0.0.0","Windows","10.0","null","en-US,en;q=0.9,es-AR;q=0.8,es;q=0.7,fr-FR;q=0.6,fr;q=0.5","true","29715","","","","instructions/animation.html","","","","","","","","",""
"","","","","","html-keyboard-response","11","128201","0.0-11.0-0.0","29","1","2023-10-24 17:52:08","a725c3012b74bf33a1020a98cb69c237","181.231.6.41","Mozilla/5.0 (Windows NT 10.0; Win64; x64) AppleWebKit/537.36 (KHTML, like Gecko) Chrome/118.0.0.0 Safari/537.36","WebKit","Chrome","118.0.0.0","Windows","10.0","null","en-US,en;q=0.9,es-AR;q=0.8,es;q=0.7,fr-FR;q=0.6,fr;q=0.5","true","null","<div style=""font-size:100px;"">X</div>","null","","","fixation","","","","","","","",""
"","","","","","audio-keyboard-response","12","128767","0.0-11.0-1.0","29","1","2023-10-24 17:52:08","a725c3012b74bf33a1020a98cb69c237","181.231.6.41","Mozilla/5.0 (Windows NT 10.0; Win64; x64) AppleWebKit/537.36 (KHTML, like Gecko) Chrome/118.0.0.0 Safari/537.36","WebKit","Chrome","118.0.0.0","Windows","10.0","null","en-US,en;q=0.9,es-AR;q=0.8,es;q=0.7,fr-FR;q=0.6,fr;q=0.5","true","520","tones/880hz_short.mp3","s","","","tone_number_task","1000","36","tones/880hz_short.mp3","1150","100","null","null",""
"","","","","","html-keyboard-response","13","129251","0.0-11.0-2.0-0.0","29","1","2023-10-24 17:52:08","a725c3012b74bf33a1020a98cb69c237","181.231.6.41","Mozilla/5.0 (Windows NT 10.0; Win64; x64) AppleWebKit/537.36 (KHTML, like Gecko) Chrome/118.0.0.0 Safari/537.36","WebKit","Chrome","118.0.0.0","Windows","10.0","null","en-US,en;q=0.9,es-AR;q=0.8,es;q=0.7,fr-FR;q=0.6,fr;q=0.5","true","null","","null","","","delay_block","","","","","","null","null",""
"","","","","","html-keyboard-response","14","129406","0.0-11.0-2.0-1.0","29","1","2023-10-24 17:52:08","a725c3012b74bf33a1020a98cb69c237","181.231.6.41","Mozilla/5.0 (Windows NT 10.0; Win64; x64) AppleWebKit/537.36 (KHTML, like Gecko) Chrome/118.0.0.0 Safari/537.36","WebKit","Chrome","118.0.0.0","Windows","10.0","null","en-US,en;q=0.9,es-AR;q=0.8,es;q=0.7,fr-FR;q=0.6,fr;q=0.5","true","null","<p id=""stimulus"" style=""font-size:100px;"">36</p>","null","","","tone_number_task_remaining_before_delay","","36","","630","100","null","null",""
"","","","","","html-keyboard-response","15","130277","0.0-11.0-5.0-0.0","29","1","2023-10-24 17:52:08","a725c3012b74bf33a1020a98cb69c237","181.231.6.41","Mozilla/5.0 (Windows NT 10.0; Win64; x64) AppleWebKit/537.36 (KHTML, like Gecko) Chrome/118.0.0.0 Safari/537.36","WebKit","Chrome","118.0.0.0","Windows","10.0","null","en-US,en;q=0.9,es-AR;q=0.8,es;q=0.7,fr-FR;q=0.6,fr;q=0.5","true","868","<p id=""stimulus"" style=""font-size:100px;"">36</p>","j","","","empty_block","","36","","","","null","null",""
"","","","","","html-keyboard-response","16","133039","0.0-13.0-0.0","29","1","2023-10-24 17:52:08","a725c3012b74bf33a1020a98cb69c237","181.231.6.41","Mozilla/5.0 (Windows NT 10.0; Win64; x64) AppleWebKit/537.36 (KHTML, like Gecko) Chrome/118.0.0.0 Safari/537.36","WebKit","Chrome","118.0.0.0","Windows","10.0","null","en-US,en;q=0.9,es-AR;q=0.8,es;q=0.7,fr-FR;q=0.6,fr;q=0.5","true","null","<div style=""font-size:100px;"">X</div>","null","","","fixation","","","","","","","",""
"","","","","","audio-keyboard-response","17","133692","0.0-13.0-1.0","29","1","2023-10-24 17:52:08","a725c3012b74bf33a1020a98cb69c237","181.231.6.41","Mozilla/5.0 (Windows NT 10.0; Win64; x64) AppleWebKit/537.36 (KHTML, like Gecko) Chrome/118.0.0.0 Safari/537.36","WebKit","Chrome","118.0.0.0","Windows","10.0","null","en-US,en;q=0.9,es-AR;q=0.8,es;q=0.7,fr-FR;q=0.6,fr;q=0.5","true","null","tones/440hz_short.mp3","null","","","tone_number_task","500","31","tones/440hz_short.mp3","650","100","null","null",""
"","","","","","html-keyboard-response","18","133911","0.0-13.0-4.0-0.0","29","1","2023-10-24 17:52:08","a725c3012b74bf33a1020a98cb69c237","181.231.6.41","Mozilla/5.0 (Windows NT 10.0; Win64; x64) AppleWebKit/537.36 (KHTML, like Gecko) Chrome/118.0.0.0 Safari/537.36","WebKit","Chrome","118.0.0.0","Windows","10.0","null","en-US,en;q=0.9,es-AR;q=0.8,es;q=0.7,fr-FR;q=0.6,fr;q=0.5","true","218","tones/440hz_short.mp3","a","","","empty_block","","31","","","","null","null",""
"","","","","","html-keyboard-response","19","134484","0.0-13.0-4.0-1.0","29","1","2023-10-24 17:52:08","a725c3012b74bf33a1020a98cb69c237","181.231.6.41","Mozilla/5.0 (Windows NT 10.0; Win64; x64) AppleWebKit/537.36 (KHTML, like Gecko) Chrome/118.0.0.0 Safari/537.36","WebKit","Chrome","118.0.0.0","Windows","10.0","null","en-US,en;q=0.9,es-AR;q=0.8,es;q=0.7,fr-FR;q=0.6,fr;q=0.5","true","571","tones/440hz_short.mp3","j","","","empty_block","","31","","","","null","null",""
"","","","","","html-keyboard-response","20","137246","0.0-15.0-0.0","29","1","2023-10-24 17:52:08","a725c3012b74bf33a1020a98cb69c237","181.231.6.41","Mozilla/5.0 (Windows NT 10.0; Win64; x64) AppleWebKit/537.36 (KHTML, like Gecko) Chrome/118.0.0.0 Safari/537.36","WebKit","Chrome","118.0.0.0","Windows","10.0","null","en-US,en;q=0.9,es-AR;q=0.8,es;q=0.7,fr-FR;q=0.6,fr;q=0.5","true","null","<div style=""font-size:100px;"">X</div>","null","","","fixation","","","","","","","",""
"","","","","","audio-keyboard-response","21","137548","0.0-15.0-1.0","29","1","2023-10-24 17:52:08","a725c3012b74bf33a1020a98cb69c237","181.231.6.41","Mozilla/5.0 (Windows NT 10.0; Win64; x64) AppleWebKit/537.36 (KHTML, like Gecko) Chrome/118.0.0.0 Safari/537.36","WebKit","Chrome","118.0.0.0","Windows","10.0","null","en-US,en;q=0.9,es-AR;q=0.8,es;q=0.7,fr-FR;q=0.6,fr;q=0.5","true","null","tones/880hz_short.mp3","null","","","tone_number_task","150","50","tones/880hz_short.mp3","300","100","null","null",""
"","","","","","html-keyboard-response","22","138524","0.0-15.0-4.0-0.0","29","1","2023-10-24 17:52:08","a725c3012b74bf33a1020a98cb69c237","181.231.6.41","Mozilla/5.0 (Windows NT 10.0; Win64; x64) AppleWebKit/537.36 (KHTML, like Gecko) Chrome/118.0.0.0 Safari/537.36","WebKit","Chrome","118.0.0.0","Windows","10.0","null","en-US,en;q=0.9,es-AR;q=0.8,es;q=0.7,fr-FR;q=0.6,fr;q=0.5","true","975","tones/880hz_short.mp3","s","","","empty_block","","50","","","","null","null",""
"","","","","","html-keyboard-response","23","138620","0.0-15.0-4.0-1.0","29","1","2023-10-24 17:52:08","a725c3012b74bf33a1020a98cb69c237","181.231.6.41","Mozilla/5.0 (Windows NT 10.0; Win64; x64) AppleWebKit/537.36 (KHTML, like Gecko) Chrome/118.0.0.0 Safari/537.36","WebKit","Chrome","118.0.0.0","Windows","10.0","null","en-US,en;q=0.9,es-AR;q=0.8,es;q=0.7,fr-FR;q=0.6,fr;q=0.5","true","95","tones/880hz_short.mp3","k","","","empty_block","","50","","","","null","null",""
"","","","","","html-keyboard-response","24","141381","0.0-17.0-0.0","29","1","2023-10-24 17:52:08","a725c3012b74bf33a1020a98cb69c237","181.231.6.41","Mozilla/5.0 (Windows NT 10.0; Win64; x64) AppleWebKit/537.36 (KHTML, like Gecko) Chrome/118.0.0.0 Safari/537.36","WebKit","Chrome","118.0.0.0","Windows","10.0","null","en-US,en;q=0.9,es-AR;q=0.8,es;q=0.7,fr-FR;q=0.6,fr;q=0.5","true","null","<div style=""font-size:100px;"">X</div>","null","","","fixation","","","","","","","",""
"","","","","","audio-keyboard-response","25","141584","0.0-17.0-1.0","29","1","2023-10-24 17:52:08","a725c3012b74bf33a1020a98cb69c237","181.231.6.41","Mozilla/5.0 (Windows NT 10.0; Win64; x64) AppleWebKit/537.36 (KHTML, like Gecko) Chrome/118.0.0.0 Safari/537.36","WebKit","Chrome","118.0.0.0","Windows","10.0","null","en-US,en;q=0.9,es-AR;q=0.8,es;q=0.7,fr-FR;q=0.6,fr;q=0.5","true","null","tones/880hz_short.mp3","null","","","tone_number_task","50","27","tones/880hz_short.mp3","200","100","null","null",""
"","","","","","html-keyboard-response","26","142212","0.0-17.0-4.0-0.0","29","1","2023-10-24 17:52:08","a725c3012b74bf33a1020a98cb69c237","181.231.6.41","Mozilla/5.0 (Windows NT 10.0; Win64; x64) AppleWebKit/537.36 (KHTML, like Gecko) Chrome/118.0.0.0 Safari/537.36","WebKit","Chrome","118.0.0.0","Windows","10.0","null","en-US,en;q=0.9,es-AR;q=0.8,es;q=0.7,fr-FR;q=0.6,fr;q=0.5","true","627","tones/880hz_short.mp3","s","","","empty_block","","27","","","","null","null",""
"","","","","","html-keyboard-response","27","142332","0.0-17.0-4.0-1.0","29","1","2023-10-24 17:52:08","a725c3012b74bf33a1020a98cb69c237","181.231.6.41","Mozilla/5.0 (Windows NT 10.0; Win64; x64) AppleWebKit/537.36 (KHTML, like Gecko) Chrome/118.0.0.0 Safari/537.36","WebKit","Chrome","118.0.0.0","Windows","10.0","null","en-US,en;q=0.9,es-AR;q=0.8,es;q=0.7,fr-FR;q=0.6,fr;q=0.5","true","118","tones/880hz_short.mp3","j","","","empty_block","","27","","","","null","null",""
"","","","","","html-button-response","28","148300","0.0-19.0","29","1","2023-10-24 17:52:08","a725c3012b74bf33a1020a98cb69c237","181.231.6.41","Mozilla/5.0 (Windows NT 10.0; Win64; x64) AppleWebKit/537.36 (KHTML, like Gecko) Chrome/118.0.0.0 Safari/537.36","WebKit","Chrome","118.0.0.0","Windows","10.0","null","en-US,en;q=0.9,es-AR;q=0.8,es;q=0.7,fr-FR;q=0.6,fr;q=0.5","true","5967","
  <h1> Muy bien </h1>
  <p> Ahora, en vez de ser presentados en dígitos, los números vendrán escritos en palabras. </p>
  <p> Por ejemplo, en vez de 44 te aparecerá ""cuarenta y cuatro"". </p>
  ","0","","","","","","","","","","",""
"","","","","","html-keyboard-response","29","151062","0.0-20.0-0.0","29","1","2023-10-24 17:52:08","a725c3012b74bf33a1020a98cb69c237","181.231.6.41","Mozilla/5.0 (Windows NT 10.0; Win64; x64) AppleWebKit/537.36 (KHTML, like Gecko) Chrome/118.0.0.0 Safari/537.36","WebKit","Chrome","118.0.0.0","Windows","10.0","null","en-US,en;q=0.9,es-AR;q=0.8,es;q=0.7,fr-FR;q=0.6,fr;q=0.5","true","null","<div style=""font-size:100px;"">X</div>","null","","","fixation","","","","","","","",""
"","","","","","audio-keyboard-response","30","151510","0.0-20.0-1.0","29","1","2023-10-24 17:52:08","a725c3012b74bf33a1020a98cb69c237","181.231.6.41","Mozilla/5.0 (Windows NT 10.0; Win64; x64) AppleWebKit/537.36 (KHTML, like Gecko) Chrome/118.0.0.0 Safari/537.36","WebKit","Chrome","118.0.0.0","Windows","10.0","null","en-US,en;q=0.9,es-AR;q=0.8,es;q=0.7,fr-FR;q=0.6,fr;q=0.5","true","440","tones/880hz_short.mp3","s","","","tone_number_task","1000","cincuenta y uno","tones/880hz_short.mp3","1150","60","null","null",""
"","","","","","html-keyboard-response","31","152077","0.0-20.0-2.0-0.0","29","1","2023-10-24 17:52:08","a725c3012b74bf33a1020a98cb69c237","181.231.6.41","Mozilla/5.0 (Windows NT 10.0; Win64; x64) AppleWebKit/537.36 (KHTML, like Gecko) Chrome/118.0.0.0 Safari/537.36","WebKit","Chrome","118.0.0.0","Windows","10.0","null","en-US,en;q=0.9,es-AR;q=0.8,es;q=0.7,fr-FR;q=0.6,fr;q=0.5","true","null","","null","","","delay_block","","","","","","null","null",""
"","","","","","html-keyboard-response","32","152230","0.0-20.0-2.0-1.0","29","1","2023-10-24 17:52:08","a725c3012b74bf33a1020a98cb69c237","181.231.6.41","Mozilla/5.0 (Windows NT 10.0; Win64; x64) AppleWebKit/537.36 (KHTML, like Gecko) Chrome/118.0.0.0 Safari/537.36","WebKit","Chrome","118.0.0.0","Windows","10.0","null","en-US,en;q=0.9,es-AR;q=0.8,es;q=0.7,fr-FR;q=0.6,fr;q=0.5","true","null","<p id=""stimulus"" style=""font-size:60px;"">cincuenta y uno</p>","null","","","tone_number_task_remaining_before_delay","","cincuenta y uno","","710","60","null","null",""
"","","","","","html-keyboard-response","33","153133","0.0-20.0-5.0-0.0","29","1","2023-10-24 17:52:08","a725c3012b74bf33a1020a98cb69c237","181.231.6.41","Mozilla/5.0 (Windows NT 10.0; Win64; x64) AppleWebKit/537.36 (KHTML, like Gecko) Chrome/118.0.0.0 Safari/537.36","WebKit","Chrome","118.0.0.0","Windows","10.0","null","en-US,en;q=0.9,es-AR;q=0.8,es;q=0.7,fr-FR;q=0.6,fr;q=0.5","true","899","<p id=""stimulus"" style=""font-size:60px;"">cincuenta y uno</p>","k","","","empty_block","","cincuenta y uno","","","","null","null",""
"","","","","","html-button-response","34","158188","0.0-22.0","29","1","2023-10-24 17:52:08","a725c3012b74bf33a1020a98cb69c237","181.231.6.41","Mozilla/5.0 (Windows NT 10.0; Win64; x64) AppleWebKit/537.36 (KHTML, like Gecko) Chrome/118.0.0.0 Safari/537.36","WebKit","Chrome","118.0.0.0","Windows","10.0","null","en-US,en;q=0.9,es-AR;q=0.8,es;q=0.7,fr-FR;q=0.6,fr;q=0.5","true","5053","
  <h1> Fin del Entrenamiento </h1>
  <p> ¡Felicitaciones, terminaste el entrenamiento! Ahora vamos a comenzar con el experimento. </p>
  <p> Es importante tener en cuenta que consta de cuatro bloques.</p>
  <p> Podés aprovechar los momentos entre bloques para tomar un breve descanso o tomar agua entre cada uno</p>
  <p> Recordá que tenés que responder lo más rápido que puedas, pero sin equivocarte. </p>
  ","0","","","","","","","","","","",""
"","","","","","external-html","35","163062","0.0-23.0","29","1","2023-10-24 17:52:08","a725c3012b74bf33a1020a98cb69c237","181.231.6.41","Mozilla/5.0 (Windows NT 10.0; Win64; x64) AppleWebKit/537.36 (KHTML, like Gecko) Chrome/118.0.0.0 Safari/537.36","WebKit","Chrome","118.0.0.0","Windows","10.0","null","en-US,en;q=0.9,es-AR;q=0.8,es;q=0.7,fr-FR;q=0.6,fr;q=0.5","true","4497","","","","instructions/instructions_words_first.html","","","","","","","","",""
"","","","","","call-function","36","163075","0.0-24.0","29","1","2023-10-24 17:52:08","a725c3012b74bf33a1020a98cb69c237","181.231.6.41","Mozilla/5.0 (Windows NT 10.0; Win64; x64) AppleWebKit/537.36 (KHTML, like Gecko) Chrome/118.0.0.0 Safari/537.36","WebKit","Chrome","118.0.0.0","Windows","10.0","null","en-US,en;q=0.9,es-AR;q=0.8,es;q=0.7,fr-FR;q=0.6,fr;q=0.5","true","","","","","","","","","","","","","",""
"","","","","","html-keyboard-response","37","165836","0.0-25.0","29","1","2023-10-24 17:52:08","a725c3012b74bf33a1020a98cb69c237","181.231.6.41","Mozilla/5.0 (Windows NT 10.0; Win64; x64) AppleWebKit/537.36 (KHTML, like Gecko) Chrome/118.0.0.0 Safari/537.36","WebKit","Chrome","118.0.0.0","Windows","10.0","null","en-US,en;q=0.9,es-AR;q=0.8,es;q=0.7,fr-FR;q=0.6,fr;q=0.5","true","null","<div style=""font-size:100px;"">X</div>","null","","","fixation","","","","","","","",""
"","","","","","audio-keyboard-response","38","165992","0.0-26.0","29","1","2023-10-24 17:52:08","a725c3012b74bf33a1020a98cb69c237","181.231.6.41","Mozilla/5.0 (Windows NT 10.0; Win64; x64) AppleWebKit/537.36 (KHTML, like Gecko) Chrome/118.0.0.0 Safari/537.36","WebKit","Chrome","118.0.0.0","Windows","10.0","null","en-US,en;q=0.9,es-AR;q=0.8,es;q=0.7,fr-FR;q=0.6,fr;q=0.5","true","null","tones/880hz_short.mp3","null","","","tone_number_task","0","cuarenta y ocho","tones/880hz_short.mp3","150","60","2","0",""
"","","","","","html-keyboard-response","39","166398","0.0-29.0-0.0","29","1","2023-10-24 17:52:08","a725c3012b74bf33a1020a98cb69c237","181.231.6.41","Mozilla/5.0 (Windows NT 10.0; Win64; x64) AppleWebKit/537.36 (KHTML, like Gecko) Chrome/118.0.0.0 Safari/537.36","WebKit","Chrome","118.0.0.0","Windows","10.0","null","en-US,en;q=0.9,es-AR;q=0.8,es;q=0.7,fr-FR;q=0.6,fr;q=0.5","true","401","tones/880hz_short.mp3","s","","","empty_block","","cuarenta y ocho","","","","2","0",""
"","","","","","html-keyboard-response","40","167188","0.0-29.0-1.0","29","1","2023-10-24 17:52:08","a725c3012b74bf33a1020a98cb69c237","181.231.6.41","Mozilla/5.0 (Windows NT 10.0; Win64; x64) AppleWebKit/537.36 (KHTML, like Gecko) Chrome/118.0.0.0 Safari/537.36","WebKit","Chrome","118.0.0.0","Windows","10.0","null","en-US,en;q=0.9,es-AR;q=0.8,es;q=0.7,fr-FR;q=0.6,fr;q=0.5","true","786","tones/880hz_short.mp3","k","","","empty_block","","cuarenta y ocho","","","","2","0",""
"","","","","","html-keyboard-response","41","169949","0.0-31.0","29","1","2023-10-24 17:52:08","a725c3012b74bf33a1020a98cb69c237","181.231.6.41","Mozilla/5.0 (Windows NT 10.0; Win64; x64) AppleWebKit/537.36 (KHTML, like Gecko) Chrome/118.0.0.0 Safari/537.36","WebKit","Chrome","118.0.0.0","Windows","10.0","null","en-US,en;q=0.9,es-AR;q=0.8,es;q=0.7,fr-FR;q=0.6,fr;q=0.5","true","null","<div style=""font-size:100px;"">X</div>","null","","","fixation","","","","","","","",""
"","","","","","audio-keyboard-response","42","170203","0.0-32.0","29","1","2023-10-24 17:52:08","a725c3012b74bf33a1020a98cb69c237","181.231.6.41","Mozilla/5.0 (Windows NT 10.0; Win64; x64) AppleWebKit/537.36 (KHTML, like Gecko) Chrome/118.0.0.0 Safari/537.36","WebKit","Chrome","118.0.0.0","Windows","10.0","null","en-US,en;q=0.9,es-AR;q=0.8,es;q=0.7,fr-FR;q=0.6,fr;q=0.5","true","null","tones/880hz_short.mp3","null","","","tone_number_task","102.5","treinta y ocho","tones/880hz_short.mp3","252.5","60","2","1",""
"","","","","","html-keyboard-response","43","170660","0.0-35.0-0.0","29","1","2023-10-24 17:52:08","a725c3012b74bf33a1020a98cb69c237","181.231.6.41","Mozilla/5.0 (Windows NT 10.0; Win64; x64) AppleWebKit/537.36 (KHTML, like Gecko) Chrome/118.0.0.0 Safari/537.36","WebKit","Chrome","118.0.0.0","Windows","10.0","null","en-US,en;q=0.9,es-AR;q=0.8,es;q=0.7,fr-FR;q=0.6,fr;q=0.5","true","455","tones/880hz_short.mp3","s","","","empty_block","","treinta y ocho","","","","2","1",""
"","","","","","html-keyboard-response","44","171004","0.0-35.0-1.0","29","1","2023-10-24 17:52:08","a725c3012b74bf33a1020a98cb69c237","181.231.6.41","Mozilla/5.0 (Windows NT 10.0; Win64; x64) AppleWebKit/537.36 (KHTML, like Gecko) Chrome/118.0.0.0 Safari/537.36","WebKit","Chrome","118.0.0.0","Windows","10.0","null","en-US,en;q=0.9,es-AR;q=0.8,es;q=0.7,fr-FR;q=0.6,fr;q=0.5","true","343","tones/880hz_short.mp3","j","","","empty_block","","treinta y ocho","","","","2","1",""
"","","","","","html-keyboard-response","45","173765","0.0-37.0","29","1","2023-10-24 17:52:08","a725c3012b74bf33a1020a98cb69c237","181.231.6.41","Mozilla/5.0 (Windows NT 10.0; Win64; x64) AppleWebKit/537.36 (KHTML, like Gecko) Chrome/118.0.0.0 Safari/537.36","WebKit","Chrome","118.0.0.0","Windows","10.0","null","en-US,en;q=0.9,es-AR;q=0.8,es;q=0.7,fr-FR;q=0.6,fr;q=0.5","true","null","<div style=""font-size:100px;"">X</div>","null","","","fixation","","","","","","","",""
"","","","","","audio-keyboard-response","46","173922","0.0-38.0","29","1","2023-10-24 17:52:08","a725c3012b74bf33a1020a98cb69c237","181.231.6.41","Mozilla/5.0 (Windows NT 10.0; Win64; x64) AppleWebKit/537.36 (KHTML, like Gecko) Chrome/118.0.0.0 Safari/537.36","WebKit","Chrome","118.0.0.0","Windows","10.0","null","en-US,en;q=0.9,es-AR;q=0.8,es;q=0.7,fr-FR;q=0.6,fr;q=0.5","true","null","tones/440hz_short.mp3","null","","","tone_number_task","0","cincuenta y cinco","tones/440hz_short.mp3","150","60","2","2",""
"","","","","","html-keyboard-response","47","174294","0.0-41.0-0.0","29","1","2023-10-24 17:52:08","a725c3012b74bf33a1020a98cb69c237","181.231.6.41","Mozilla/5.0 (Windows NT 10.0; Win64; x64) AppleWebKit/537.36 (KHTML, like Gecko) Chrome/118.0.0.0 Safari/537.36","WebKit","Chrome","118.0.0.0","Windows","10.0","null","en-US,en;q=0.9,es-AR;q=0.8,es;q=0.7,fr-FR;q=0.6,fr;q=0.5","true","368","tones/440hz_short.mp3","a","","","empty_block","","cincuenta y cinco","","","","2","2",""
"","","","","","html-keyboard-response","48","174638","0.0-41.0-1.0","29","1","2023-10-24 17:52:08","a725c3012b74bf33a1020a98cb69c237","181.231.6.41","Mozilla/5.0 (Windows NT 10.0; Win64; x64) AppleWebKit/537.36 (KHTML, like Gecko) Chrome/118.0.0.0 Safari/537.36","WebKit","Chrome","118.0.0.0","Windows","10.0","null","en-US,en;q=0.9,es-AR;q=0.8,es;q=0.7,fr-FR;q=0.6,fr;q=0.5","true","340","tones/440hz_short.mp3","k","","","empty_block","","cincuenta y cinco","","","","2","2",""
"","","","","","html-keyboard-response","49","177404","0.0-43.0","29","1","2023-10-24 17:52:08","a725c3012b74bf33a1020a98cb69c237","181.231.6.41","Mozilla/5.0 (Windows NT 10.0; Win64; x64) AppleWebKit/537.36 (KHTML, like Gecko) Chrome/118.0.0.0 Safari/537.36","WebKit","Chrome","118.0.0.0","Windows","10.0","null","en-US,en;q=0.9,es-AR;q=0.8,es;q=0.7,fr-FR;q=0.6,fr;q=0.5","true","null","<div style=""font-size:100px;"">X</div>","null","","","fixation","","","","","","","",""
"","","","","","audio-keyboard-response","50","177933","0.0-44.0","29","1","2023-10-24 17:52:08","a725c3012b74bf33a1020a98cb69c237","181.231.6.41","Mozilla/5.0 (Windows NT 10.0; Win64; x64) AppleWebKit/537.36 (KHTML, like Gecko) Chrome/118.0.0.0 Safari/537.36","WebKit","Chrome","118.0.0.0","Windows","10.0","null","en-US,en;q=0.9,es-AR;q=0.8,es;q=0.7,fr-FR;q=0.6,fr;q=0.5","true","520","tones/440hz_short.mp3","a","","","tone_number_task","1025","cincuenta","tones/440hz_short.mp3","1175","60","2","3",""
"","","","","","html-keyboard-response","51","178441","0.0-45.0-0.0","29","1","2023-10-24 17:52:08","a725c3012b74bf33a1020a98cb69c237","181.231.6.41","Mozilla/5.0 (Windows NT 10.0; Win64; x64) AppleWebKit/537.36 (KHTML, like Gecko) Chrome/118.0.0.0 Safari/537.36","WebKit","Chrome","118.0.0.0","Windows","10.0","null","en-US,en;q=0.9,es-AR;q=0.8,es;q=0.7,fr-FR;q=0.6,fr;q=0.5","true","null","","null","","","delay_block","","","","","","2","3",""
"","","","","","html-keyboard-response","52","178596","0.0-45.0-1.0","29","1","2023-10-24 17:52:08","a725c3012b74bf33a1020a98cb69c237","181.231.6.41","Mozilla/5.0 (Windows NT 10.0; Win64; x64) AppleWebKit/537.36 (KHTML, like Gecko) Chrome/118.0.0.0 Safari/537.36","WebKit","Chrome","118.0.0.0","Windows","10.0","null","en-US,en;q=0.9,es-AR;q=0.8,es;q=0.7,fr-FR;q=0.6,fr;q=0.5","true","null","<p id=""stimulus"" style=""font-size:60px;"">cincuenta</p>","null","","","tone_number_task_remaining_before_delay","","cincuenta","","655","60","2","3",""
"","","","","","html-keyboard-response","53","179301","0.0-48.0-0.0","29","1","2023-10-24 17:52:08","a725c3012b74bf33a1020a98cb69c237","181.231.6.41","Mozilla/5.0 (Windows NT 10.0; Win64; x64) AppleWebKit/537.36 (KHTML, like Gecko) Chrome/118.0.0.0 Safari/537.36","WebKit","Chrome","118.0.0.0","Windows","10.0","null","en-US,en;q=0.9,es-AR;q=0.8,es;q=0.7,fr-FR;q=0.6,fr;q=0.5","true","701","<p id=""stimulus"" style=""font-size:60px;"">cincuenta</p>","k","","","empty_block","","cincuenta","","","","2","3",""
"","","","","","html-keyboard-response","54","182064","0.0-49.0","29","1","2023-10-24 17:52:08","a725c3012b74bf33a1020a98cb69c237","181.231.6.41","Mozilla/5.0 (Windows NT 10.0; Win64; x64) AppleWebKit/537.36 (KHTML, like Gecko) Chrome/118.0.0.0 Safari/537.36","WebKit","Chrome","118.0.0.0","Windows","10.0","null","en-US,en;q=0.9,es-AR;q=0.8,es;q=0.7,fr-FR;q=0.6,fr;q=0.5","true","null","<div style=""font-size:100px;"">X</div>","null","","","fixation","","","","","","","",""
"","","","","","audio-keyboard-response","55","182724","0.0-50.0","29","1","2023-10-24 17:52:08","a725c3012b74bf33a1020a98cb69c237","181.231.6.41","Mozilla/5.0 (Windows NT 10.0; Win64; x64) AppleWebKit/537.36 (KHTML, like Gecko) Chrome/118.0.0.0 Safari/537.36","WebKit","Chrome","118.0.0.0","Windows","10.0","null","en-US,en;q=0.9,es-AR;q=0.8,es;q=0.7,fr-FR;q=0.6,fr;q=0.5","true","661","tones/880hz_short.mp3","s","","","tone_number_task","992.5","veinticuatro","tones/880hz_short.mp3","1142.5","60","2","4",""
"","","","","","html-keyboard-response","56","183059","0.0-51.0-0.0","29","1","2023-10-24 17:52:08","a725c3012b74bf33a1020a98cb69c237","181.231.6.41","Mozilla/5.0 (Windows NT 10.0; Win64; x64) AppleWebKit/537.36 (KHTML, like Gecko) Chrome/118.0.0.0 Safari/537.36","WebKit","Chrome","118.0.0.0","Windows","10.0","null","en-US,en;q=0.9,es-AR;q=0.8,es;q=0.7,fr-FR;q=0.6,fr;q=0.5","true","null","","null","","","delay_block","","","","","","2","4",""
"","","","","","html-keyboard-response","57","183213","0.0-51.0-1.0","29","1","2023-10-24 17:52:08","a725c3012b74bf33a1020a98cb69c237","181.231.6.41","Mozilla/5.0 (Windows NT 10.0; Win64; x64) AppleWebKit/537.36 (KHTML, like Gecko) Chrome/118.0.0.0 Safari/537.36","WebKit","Chrome","118.0.0.0","Windows","10.0","null","en-US,en;q=0.9,es-AR;q=0.8,es;q=0.7,fr-FR;q=0.6,fr;q=0.5","true","null","<p id=""stimulus"" style=""font-size:60px;"">veinticuatro</p>","null","","","tone_number_task_remaining_before_delay","","veinticuatro","","481.5","60","2","4",""
"","","","","","html-keyboard-response","58","183836","0.0-54.0-0.0","29","1","2023-10-24 17:52:08","a725c3012b74bf33a1020a98cb69c237","181.231.6.41","Mozilla/5.0 (Windows NT 10.0; Win64; x64) AppleWebKit/537.36 (KHTML, like Gecko) Chrome/118.0.0.0 Safari/537.36","WebKit","Chrome","118.0.0.0","Windows","10.0","null","en-US,en;q=0.9,es-AR;q=0.8,es;q=0.7,fr-FR;q=0.6,fr;q=0.5","true","621","<p id=""stimulus"" style=""font-size:60px;"">veinticuatro</p>","j","","","empty_block","","veinticuatro","","","","2","4",""
"","","","","","html-keyboard-response","59","186598","0.0-55.0","29","1","2023-10-24 17:52:08","a725c3012b74bf33a1020a98cb69c237","181.231.6.41","Mozilla/5.0 (Windows NT 10.0; Win64; x64) AppleWebKit/537.36 (KHTML, like Gecko) Chrome/118.0.0.0 Safari/537.36","WebKit","Chrome","118.0.0.0","Windows","10.0","null","en-US,en;q=0.9,es-AR;q=0.8,es;q=0.7,fr-FR;q=0.6,fr;q=0.5","true","null","<div style=""font-size:100px;"">X</div>","null","","","fixation","","","","","","","",""
"","","","","","audio-keyboard-response","60","187316","0.0-56.0","29","1","2023-10-24 17:52:08","a725c3012b74bf33a1020a98cb69c237","181.231.6.41","Mozilla/5.0 (Windows NT 10.0; Win64; x64) AppleWebKit/537.36 (KHTML, like Gecko) Chrome/118.0.0.0 Safari/537.36","WebKit","Chrome","118.0.0.0","Windows","10.0","null","en-US,en;q=0.9,es-AR;q=0.8,es;q=0.7,fr-FR;q=0.6,fr;q=0.5","true","720","tones/880hz_short.mp3","s","","","tone_number_task","1025","treinta y cuatro","tones/880hz_short.mp3","1175","60","2","5",""
"","","","","","html-keyboard-response","61","187623","0.0-57.0-0.0","29","1","2023-10-24 17:52:08","a725c3012b74bf33a1020a98cb69c237","181.231.6.41","Mozilla/5.0 (Windows NT 10.0; Win64; x64) AppleWebKit/537.36 (KHTML, like Gecko) Chrome/118.0.0.0 Safari/537.36","WebKit","Chrome","118.0.0.0","Windows","10.0","null","en-US,en;q=0.9,es-AR;q=0.8,es;q=0.7,fr-FR;q=0.6,fr;q=0.5","true","null","","null","","","delay_block","","","","","","2","5",""
"","","","","","html-keyboard-response","62","187775","0.0-57.0-1.0","29","1","2023-10-24 17:52:08","a725c3012b74bf33a1020a98cb69c237","181.231.6.41","Mozilla/5.0 (Windows NT 10.0; Win64; x64) AppleWebKit/537.36 (KHTML, like Gecko) Chrome/118.0.0.0 Safari/537.36","WebKit","Chrome","118.0.0.0","Windows","10.0","null","en-US,en;q=0.9,es-AR;q=0.8,es;q=0.7,fr-FR;q=0.6,fr;q=0.5","true","null","<p id=""stimulus"" style=""font-size:60px;"">treinta y cuatro</p>","null","","","tone_number_task_remaining_before_delay","","treinta y cuatro","","455","60","2","5",""
"","","","","","html-keyboard-response","63","188405","0.0-60.0-0.0","29","1","2023-10-24 17:52:08","a725c3012b74bf33a1020a98cb69c237","181.231.6.41","Mozilla/5.0 (Windows NT 10.0; Win64; x64) AppleWebKit/537.36 (KHTML, like Gecko) Chrome/118.0.0.0 Safari/537.36","WebKit","Chrome","118.0.0.0","Windows","10.0","null","en-US,en;q=0.9,es-AR;q=0.8,es;q=0.7,fr-FR;q=0.6,fr;q=0.5","true","628","<p id=""stimulus"" style=""font-size:60px;"">treinta y cuatro</p>","j","","","empty_block","","treinta y cuatro","","","","2","5",""
"","","","","","html-keyboard-response","64","191172","0.0-61.0","29","1","2023-10-24 17:52:08","a725c3012b74bf33a1020a98cb69c237","181.231.6.41","Mozilla/5.0 (Windows NT 10.0; Win64; x64) AppleWebKit/537.36 (KHTML, like Gecko) Chrome/118.0.0.0 Safari/537.36","WebKit","Chrome","118.0.0.0","Windows","10.0","null","en-US,en;q=0.9,es-AR;q=0.8,es;q=0.7,fr-FR;q=0.6,fr;q=0.5","true","null","<div style=""font-size:100px;"">X</div>","null","","","fixation","","","","","","","",""
"","","","","","audio-keyboard-response","65","191328","0.0-62.0","29","1","2023-10-24 17:52:08","a725c3012b74bf33a1020a98cb69c237","181.231.6.41","Mozilla/5.0 (Windows NT 10.0; Win64; x64) AppleWebKit/537.36 (KHTML, like Gecko) Chrome/118.0.0.0 Safari/537.36","WebKit","Chrome","118.0.0.0","Windows","10.0","null","en-US,en;q=0.9,es-AR;q=0.8,es;q=0.7,fr-FR;q=0.6,fr;q=0.5","true","null","tones/880hz_short.mp3","null","","","tone_number_task","0","cuarenta y uno","tones/880hz_short.mp3","150","60","2","6",""
"","","","","","html-keyboard-response","66","191589","0.0-65.0-0.0","29","1","2023-10-24 17:52:08","a725c3012b74bf33a1020a98cb69c237","181.231.6.41","Mozilla/5.0 (Windows NT 10.0; Win64; x64) AppleWebKit/537.36 (KHTML, like Gecko) Chrome/118.0.0.0 Safari/537.36","WebKit","Chrome","118.0.0.0","Windows","10.0","null","en-US,en;q=0.9,es-AR;q=0.8,es;q=0.7,fr-FR;q=0.6,fr;q=0.5","true","255","tones/880hz_short.mp3","s","","","empty_block","","cuarenta y uno","","","","2","6",""
"","","","","","html-keyboard-response","67","192134","0.0-65.0-1.0","29","1","2023-10-24 17:52:08","a725c3012b74bf33a1020a98cb69c237","181.231.6.41","Mozilla/5.0 (Windows NT 10.0; Win64; x64) AppleWebKit/537.36 (KHTML, like Gecko) Chrome/118.0.0.0 Safari/537.36","WebKit","Chrome","118.0.0.0","Windows","10.0","null","en-US,en;q=0.9,es-AR;q=0.8,es;q=0.7,fr-FR;q=0.6,fr;q=0.5","true","538","tones/880hz_short.mp3","j","","","empty_block","","cuarenta y uno","","","","2","6",""
"","","","","","html-keyboard-response","68","194900","0.0-67.0","29","1","2023-10-24 17:52:08","a725c3012b74bf33a1020a98cb69c237","181.231.6.41","Mozilla/5.0 (Windows NT 10.0; Win64; x64) AppleWebKit/537.36 (KHTML, like Gecko) Chrome/118.0.0.0 Safari/537.36","WebKit","Chrome","118.0.0.0","Windows","10.0","null","en-US,en;q=0.9,es-AR;q=0.8,es;q=0.7,fr-FR;q=0.6,fr;q=0.5","true","null","<div style=""font-size:100px;"">X</div>","null","","","fixation","","","","","","","",""
"","","","","","audio-keyboard-response","69","195428","0.0-68.0","29","1","2023-10-24 17:52:08","a725c3012b74bf33a1020a98cb69c237","181.231.6.41","Mozilla/5.0 (Windows NT 10.0; Win64; x64) AppleWebKit/537.36 (KHTML, like Gecko) Chrome/118.0.0.0 Safari/537.36","WebKit","Chrome","118.0.0.0","Windows","10.0","null","en-US,en;q=0.9,es-AR;q=0.8,es;q=0.7,fr-FR;q=0.6,fr;q=0.5","true","528","tones/880hz_short.mp3","s","","","tone_number_task","1025","cincuenta y nueve","tones/880hz_short.mp3","1175","60","2","7",""
"","","","","","html-keyboard-response","70","195929","0.0-69.0-0.0","29","1","2023-10-24 17:52:08","a725c3012b74bf33a1020a98cb69c237","181.231.6.41","Mozilla/5.0 (Windows NT 10.0; Win64; x64) AppleWebKit/537.36 (KHTML, like Gecko) Chrome/118.0.0.0 Safari/537.36","WebKit","Chrome","118.0.0.0","Windows","10.0","null","en-US,en;q=0.9,es-AR;q=0.8,es;q=0.7,fr-FR;q=0.6,fr;q=0.5","true","null","","null","","","delay_block","","","","","","2","7",""
"","","","","","html-keyboard-response","71","196082","0.0-69.0-1.0","29","1","2023-10-24 17:52:08","a725c3012b74bf33a1020a98cb69c237","181.231.6.41","Mozilla/5.0 (Windows NT 10.0; Win64; x64) AppleWebKit/537.36 (KHTML, like Gecko) Chrome/118.0.0.0 Safari/537.36","WebKit","Chrome","118.0.0.0","Windows","10.0","null","en-US,en;q=0.9,es-AR;q=0.8,es;q=0.7,fr-FR;q=0.6,fr;q=0.5","true","null","<p id=""stimulus"" style=""font-size:60px;"">cincuenta y nueve</p>","null","","","tone_number_task_remaining_before_delay","","cincuenta y nueve","","647","60","2","7",""
"","","","","","html-keyboard-response","72","196836","0.0-72.0-0.0","29","1","2023-10-24 17:52:08","a725c3012b74bf33a1020a98cb69c237","181.231.6.41","Mozilla/5.0 (Windows NT 10.0; Win64; x64) AppleWebKit/537.36 (KHTML, like Gecko) Chrome/118.0.0.0 Safari/537.36","WebKit","Chrome","118.0.0.0","Windows","10.0","null","en-US,en;q=0.9,es-AR;q=0.8,es;q=0.7,fr-FR;q=0.6,fr;q=0.5","true","751","<p id=""stimulus"" style=""font-size:60px;"">cincuenta y nueve</p>","k","","","empty_block","","cincuenta y nueve","","","","2","7",""
"","","","","","html-keyboard-response","73","199598","0.0-73.0","29","1","2023-10-24 17:52:08","a725c3012b74bf33a1020a98cb69c237","181.231.6.41","Mozilla/5.0 (Windows NT 10.0; Win64; x64) AppleWebKit/537.36 (KHTML, like Gecko) Chrome/118.0.0.0 Safari/537.36","WebKit","Chrome","118.0.0.0","Windows","10.0","null","en-US,en;q=0.9,es-AR;q=0.8,es;q=0.7,fr-FR;q=0.6,fr;q=0.5","true","null","<div style=""font-size:100px;"">X</div>","null","","","fixation","","","","","","","",""
"","","","","","audio-keyboard-response","74","199853","0.0-74.0","29","1","2023-10-24 17:52:08","a725c3012b74bf33a1020a98cb69c237","181.231.6.41","Mozilla/5.0 (Windows NT 10.0; Win64; x64) AppleWebKit/537.36 (KHTML, like Gecko) Chrome/118.0.0.0 Safari/537.36","WebKit","Chrome","118.0.0.0","Windows","10.0","null","en-US,en;q=0.9,es-AR;q=0.8,es;q=0.7,fr-FR;q=0.6,fr;q=0.5","true","null","tones/880hz_short.mp3","null","","","tone_number_task","102.5","cincuenta y nueve","tones/880hz_short.mp3","252.5","60","2","8",""
"","","","","","html-keyboard-response","75","200276","0.0-77.0-0.0","29","1","2023-10-24 17:52:08","a725c3012b74bf33a1020a98cb69c237","181.231.6.41","Mozilla/5.0 (Windows NT 10.0; Win64; x64) AppleWebKit/537.36 (KHTML, like Gecko) Chrome/118.0.0.0 Safari/537.36","WebKit","Chrome","118.0.0.0","Windows","10.0","null","en-US,en;q=0.9,es-AR;q=0.8,es;q=0.7,fr-FR;q=0.6,fr;q=0.5","true","419","tones/880hz_short.mp3","s","","","empty_block","","cincuenta y nueve","","","","2","8",""
"","","","","","html-keyboard-response","76","200556","0.0-77.0-1.0","29","1","2023-10-24 17:52:08","a725c3012b74bf33a1020a98cb69c237","181.231.6.41","Mozilla/5.0 (Windows NT 10.0; Win64; x64) AppleWebKit/537.36 (KHTML, like Gecko) Chrome/118.0.0.0 Safari/537.36","WebKit","Chrome","118.0.0.0","Windows","10.0","null","en-US,en;q=0.9,es-AR;q=0.8,es;q=0.7,fr-FR;q=0.6,fr;q=0.5","true","277","tones/880hz_short.mp3","k","","","empty_block","","cincuenta y nueve","","","","2","8",""
"","","","","","html-keyboard-response","77","203320","0.0-79.0","29","1","2023-10-24 17:52:08","a725c3012b74bf33a1020a98cb69c237","181.231.6.41","Mozilla/5.0 (Windows NT 10.0; Win64; x64) AppleWebKit/537.36 (KHTML, like Gecko) Chrome/118.0.0.0 Safari/537.36","WebKit","Chrome","118.0.0.0","Windows","10.0","null","en-US,en;q=0.9,es-AR;q=0.8,es;q=0.7,fr-FR;q=0.6,fr;q=0.5","true","null","<div style=""font-size:100px;"">X</div>","null","","","fixation","","","","","","","",""
"","","","","","audio-keyboard-response","78","203750","0.0-80.0","29","1","2023-10-24 17:52:08","a725c3012b74bf33a1020a98cb69c237","181.231.6.41","Mozilla/5.0 (Windows NT 10.0; Win64; x64) AppleWebKit/537.36 (KHTML, like Gecko) Chrome/118.0.0.0 Safari/537.36","WebKit","Chrome","118.0.0.0","Windows","10.0","null","en-US,en;q=0.9,es-AR;q=0.8,es;q=0.7,fr-FR;q=0.6,fr;q=0.5","true","419","tones/440hz_short.mp3","a","","","tone_number_task","1025","veintiuno","tones/440hz_short.mp3","1175","60","2","9",""
"","","","","","html-keyboard-response","79","204364","0.0-81.0-0.0","29","1","2023-10-24 17:52:08","a725c3012b74bf33a1020a98cb69c237","181.231.6.41","Mozilla/5.0 (Windows NT 10.0; Win64; x64) AppleWebKit/537.36 (KHTML, like Gecko) Chrome/118.0.0.0 Safari/537.36","WebKit","Chrome","118.0.0.0","Windows","10.0","null","en-US,en;q=0.9,es-AR;q=0.8,es;q=0.7,fr-FR;q=0.6,fr;q=0.5","true","null","","null","","","delay_block","","","","","","2","9",""
"","","","","","html-keyboard-response","80","204522","0.0-81.0-1.0","29","1","2023-10-24 17:52:08","a725c3012b74bf33a1020a98cb69c237","181.231.6.41","Mozilla/5.0 (Windows NT 10.0; Win64; x64) AppleWebKit/537.36 (KHTML, like Gecko) Chrome/118.0.0.0 Safari/537.36","WebKit","Chrome","118.0.0.0","Windows","10.0","null","en-US,en;q=0.9,es-AR;q=0.8,es;q=0.7,fr-FR;q=0.6,fr;q=0.5","true","null","<p id=""stimulus"" style=""font-size:60px;"">veintiuno</p>","null","","","tone_number_task_remaining_before_delay","","veintiuno","","756","60","2","9",""
"","","","","","html-keyboard-response","81","204988","0.0-84.0-0.0","29","1","2023-10-24 17:52:08","a725c3012b74bf33a1020a98cb69c237","181.231.6.41","Mozilla/5.0 (Windows NT 10.0; Win64; x64) AppleWebKit/537.36 (KHTML, like Gecko) Chrome/118.0.0.0 Safari/537.36","WebKit","Chrome","118.0.0.0","Windows","10.0","null","en-US,en;q=0.9,es-AR;q=0.8,es;q=0.7,fr-FR;q=0.6,fr;q=0.5","true","460","<p id=""stimulus"" style=""font-size:60px;"">veintiuno</p>","j","","","empty_block","","veintiuno","","","","2","9",""
"","","","","","html-keyboard-response","82","207753","0.0-85.0","29","1","2023-10-24 17:52:08","a725c3012b74bf33a1020a98cb69c237","181.231.6.41","Mozilla/5.0 (Windows NT 10.0; Win64; x64) AppleWebKit/537.36 (KHTML, like Gecko) Chrome/118.0.0.0 Safari/537.36","WebKit","Chrome","118.0.0.0","Windows","10.0","null","en-US,en;q=0.9,es-AR;q=0.8,es;q=0.7,fr-FR;q=0.6,fr;q=0.5","true","null","<div style=""font-size:100px;"">X</div>","null","","","fixation","","","","","","","",""
"","","","","","audio-keyboard-response","83","208548","0.0-86.0","29","1","2023-10-24 17:52:08","a725c3012b74bf33a1020a98cb69c237","181.231.6.41","Mozilla/5.0 (Windows NT 10.0; Win64; x64) AppleWebKit/537.36 (KHTML, like Gecko) Chrome/118.0.0.0 Safari/537.36","WebKit","Chrome","118.0.0.0","Windows","10.0","null","en-US,en;q=0.9,es-AR;q=0.8,es;q=0.7,fr-FR;q=0.6,fr;q=0.5","true","789","tones/880hz_short.mp3","s","","","tone_number_task","1025","treinta y ocho","tones/880hz_short.mp3","1175","60","2","10",""
"","","","","","html-keyboard-response","84","208790","0.0-87.0-0.0","29","1","2023-10-24 17:52:08","a725c3012b74bf33a1020a98cb69c237","181.231.6.41","Mozilla/5.0 (Windows NT 10.0; Win64; x64) AppleWebKit/537.36 (KHTML, like Gecko) Chrome/118.0.0.0 Safari/537.36","WebKit","Chrome","118.0.0.0","Windows","10.0","null","en-US,en;q=0.9,es-AR;q=0.8,es;q=0.7,fr-FR;q=0.6,fr;q=0.5","true","null","","null","","","delay_block","","","","","","2","10",""
"","","","","","html-keyboard-response","85","208946","0.0-87.0-1.0","29","1","2023-10-24 17:52:08","a725c3012b74bf33a1020a98cb69c237","181.231.6.41","Mozilla/5.0 (Windows NT 10.0; Win64; x64) AppleWebKit/537.36 (KHTML, like Gecko) Chrome/118.0.0.0 Safari/537.36","WebKit","Chrome","118.0.0.0","Windows","10.0","null","en-US,en;q=0.9,es-AR;q=0.8,es;q=0.7,fr-FR;q=0.6,fr;q=0.5","true","null","<p id=""stimulus"" style=""font-size:60px;"">treinta y ocho</p>","null","","","tone_number_task_remaining_before_delay","","treinta y ocho","","386","60","2","10",""
"","","","","","html-keyboard-response","86","209749","0.0-90.0-0.0","29","1","2023-10-24 17:52:08","a725c3012b74bf33a1020a98cb69c237","181.231.6.41","Mozilla/5.0 (Windows NT 10.0; Win64; x64) AppleWebKit/537.36 (KHTML, like Gecko) Chrome/118.0.0.0 Safari/537.36","WebKit","Chrome","118.0.0.0","Windows","10.0","null","en-US,en;q=0.9,es-AR;q=0.8,es;q=0.7,fr-FR;q=0.6,fr;q=0.5","true","798","<p id=""stimulus"" style=""font-size:60px;"">treinta y ocho</p>","j","","","empty_block","","treinta y ocho","","","","2","10",""
"","","","","","html-keyboard-response","87","212513","0.0-91.0","29","1","2023-10-24 17:52:08","a725c3012b74bf33a1020a98cb69c237","181.231.6.41","Mozilla/5.0 (Windows NT 10.0; Win64; x64) AppleWebKit/537.36 (KHTML, like Gecko) Chrome/118.0.0.0 Safari/537.36","WebKit","Chrome","118.0.0.0","Windows","10.0","null","en-US,en;q=0.9,es-AR;q=0.8,es;q=0.7,fr-FR;q=0.6,fr;q=0.5","true","null","<div style=""font-size:100px;"">X</div>","null","","","fixation","","","","","","","",""
"","","","","","audio-keyboard-response","88","212770","0.0-92.0","29","1","2023-10-24 17:52:08","a725c3012b74bf33a1020a98cb69c237","181.231.6.41","Mozilla/5.0 (Windows NT 10.0; Win64; x64) AppleWebKit/537.36 (KHTML, like Gecko) Chrome/118.0.0.0 Safari/537.36","WebKit","Chrome","118.0.0.0","Windows","10.0","null","en-US,en;q=0.9,es-AR;q=0.8,es;q=0.7,fr-FR;q=0.6,fr;q=0.5","true","null","tones/880hz_short.mp3","null","","","tone_number_task","102.5","treinta y cinco","tones/880hz_short.mp3","252.5","60","2","11",""
"","","","","","html-keyboard-response","89","213405","0.0-95.0-0.0","29","1","2023-10-24 17:52:08","a725c3012b74bf33a1020a98cb69c237","181.231.6.41","Mozilla/5.0 (Windows NT 10.0; Win64; x64) AppleWebKit/537.36 (KHTML, like Gecko) Chrome/118.0.0.0 Safari/537.36","WebKit","Chrome","118.0.0.0","Windows","10.0","null","en-US,en;q=0.9,es-AR;q=0.8,es;q=0.7,fr-FR;q=0.6,fr;q=0.5","true","631","tones/880hz_short.mp3","s","","","empty_block","","treinta y cinco","","","","2","11",""
"","","","","","html-keyboard-response","90","213533","0.0-95.0-1.0","29","1","2023-10-24 17:52:08","a725c3012b74bf33a1020a98cb69c237","181.231.6.41","Mozilla/5.0 (Windows NT 10.0; Win64; x64) AppleWebKit/537.36 (KHTML, like Gecko) Chrome/118.0.0.0 Safari/537.36","WebKit","Chrome","118.0.0.0","Windows","10.0","null","en-US,en;q=0.9,es-AR;q=0.8,es;q=0.7,fr-FR;q=0.6,fr;q=0.5","true","124","tones/880hz_short.mp3","j","","","empty_block","","treinta y cinco","","","","2","11",""
"","","","","","html-keyboard-response","91","216298","0.0-97.0","29","1","2023-10-24 17:52:08","a725c3012b74bf33a1020a98cb69c237","181.231.6.41","Mozilla/5.0 (Windows NT 10.0; Win64; x64) AppleWebKit/537.36 (KHTML, like Gecko) Chrome/118.0.0.0 Safari/537.36","WebKit","Chrome","118.0.0.0","Windows","10.0","null","en-US,en;q=0.9,es-AR;q=0.8,es;q=0.7,fr-FR;q=0.6,fr;q=0.5","true","null","<div style=""font-size:100px;"">X</div>","null","","","fixation","","","","","","","",""
"","","","","","audio-keyboard-response","92","216812","0.0-98.0","29","1","2023-10-24 17:52:08","a725c3012b74bf33a1020a98cb69c237","181.231.6.41","Mozilla/5.0 (Windows NT 10.0; Win64; x64) AppleWebKit/537.36 (KHTML, like Gecko) Chrome/118.0.0.0 Safari/537.36","WebKit","Chrome","118.0.0.0","Windows","10.0","null","en-US,en;q=0.9,es-AR;q=0.8,es;q=0.7,fr-FR;q=0.6,fr;q=0.5","true","509","tones/880hz_short.mp3","s","","","tone_number_task","992.5","treinta y seis","tones/880hz_short.mp3","1142.5","60","2","12",""
"","","","","","html-keyboard-response","93","217299","0.0-99.0-0.0","29","1","2023-10-24 17:52:08","a725c3012b74bf33a1020a98cb69c237","181.231.6.41","Mozilla/5.0 (Windows NT 10.0; Win64; x64) AppleWebKit/537.36 (KHTML, like Gecko) Chrome/118.0.0.0 Safari/537.36","WebKit","Chrome","118.0.0.0","Windows","10.0","null","en-US,en;q=0.9,es-AR;q=0.8,es;q=0.7,fr-FR;q=0.6,fr;q=0.5","true","null","","null","","","delay_block","","","","","","2","12",""
"","","","","","html-keyboard-response","94","217456","0.0-99.0-1.0","29","1","2023-10-24 17:52:08","a725c3012b74bf33a1020a98cb69c237","181.231.6.41","Mozilla/5.0 (Windows NT 10.0; Win64; x64) AppleWebKit/537.36 (KHTML, like Gecko) Chrome/118.0.0.0 Safari/537.36","WebKit","Chrome","118.0.0.0","Windows","10.0","null","en-US,en;q=0.9,es-AR;q=0.8,es;q=0.7,fr-FR;q=0.6,fr;q=0.5","true","null","<p id=""stimulus"" style=""font-size:60px;"">treinta y seis</p>","null","","","tone_number_task_remaining_before_delay","","treinta y seis","","633.5","60","2","12",""
"","","","","","html-keyboard-response","95","218052","0.0-102.0-0.0","29","1","2023-10-24 17:52:08","a725c3012b74bf33a1020a98cb69c237","181.231.6.41","Mozilla/5.0 (Windows NT 10.0; Win64; x64) AppleWebKit/537.36 (KHTML, like Gecko) Chrome/118.0.0.0 Safari/537.36","WebKit","Chrome","118.0.0.0","Windows","10.0","null","en-US,en;q=0.9,es-AR;q=0.8,es;q=0.7,fr-FR;q=0.6,fr;q=0.5","true","593","<p id=""stimulus"" style=""font-size:60px;"">treinta y seis</p>","j","","","empty_block","","treinta y seis","","","","2","12",""
"","","","","","html-keyboard-response","96","220816","0.0-103.0","29","1","2023-10-24 17:52:08","a725c3012b74bf33a1020a98cb69c237","181.231.6.41","Mozilla/5.0 (Windows NT 10.0; Win64; x64) AppleWebKit/537.36 (KHTML, like Gecko) Chrome/118.0.0.0 Safari/537.36","WebKit","Chrome","118.0.0.0","Windows","10.0","null","en-US,en;q=0.9,es-AR;q=0.8,es;q=0.7,fr-FR;q=0.6,fr;q=0.5","true","null","<div style=""font-size:100px;"">X</div>","null","","","fixation","","","","","","","",""
"","","","","","audio-keyboard-response","97","221076","0.0-104.0","29","1","2023-10-24 17:52:08","a725c3012b74bf33a1020a98cb69c237","181.231.6.41","Mozilla/5.0 (Windows NT 10.0; Win64; x64) AppleWebKit/537.36 (KHTML, like Gecko) Chrome/118.0.0.0 Safari/537.36","WebKit","Chrome","118.0.0.0","Windows","10.0","null","en-US,en;q=0.9,es-AR;q=0.8,es;q=0.7,fr-FR;q=0.6,fr;q=0.5","true","null","tones/440hz_short.mp3","null","","","tone_number_task","102.5","cincuenta y dos","tones/440hz_short.mp3","252.5","60","2","13",""
"","","","","","html-keyboard-response","98","221909","0.0-107.0-0.0","29","1","2023-10-24 17:52:08","a725c3012b74bf33a1020a98cb69c237","181.231.6.41","Mozilla/5.0 (Windows NT 10.0; Win64; x64) AppleWebKit/537.36 (KHTML, like Gecko) Chrome/118.0.0.0 Safari/537.36","WebKit","Chrome","118.0.0.0","Windows","10.0","null","en-US,en;q=0.9,es-AR;q=0.8,es;q=0.7,fr-FR;q=0.6,fr;q=0.5","true","824","tones/440hz_short.mp3","a","","","empty_block","","cincuenta y dos","","","","2","13",""
"","","","","","html-keyboard-response","99","222405","0.0-107.0-1.0","29","1","2023-10-24 17:52:08","a725c3012b74bf33a1020a98cb69c237","181.231.6.41","Mozilla/5.0 (Windows NT 10.0; Win64; x64) AppleWebKit/537.36 (KHTML, like Gecko) Chrome/118.0.0.0 Safari/537.36","WebKit","Chrome","118.0.0.0","Windows","10.0","null","en-US,en;q=0.9,es-AR;q=0.8,es;q=0.7,fr-FR;q=0.6,fr;q=0.5","true","489","tones/440hz_short.mp3","k","","","empty_block","","cincuenta y dos","","","","2","13",""
"","","","","","html-keyboard-response","100","225175","0.0-109.0","29","1","2023-10-24 17:52:08","a725c3012b74bf33a1020a98cb69c237","181.231.6.41","Mozilla/5.0 (Windows NT 10.0; Win64; x64) AppleWebKit/537.36 (KHTML, like Gecko) Chrome/118.0.0.0 Safari/537.36","WebKit","Chrome","118.0.0.0","Windows","10.0","null","en-US,en;q=0.9,es-AR;q=0.8,es;q=0.7,fr-FR;q=0.6,fr;q=0.5","true","null","<div style=""font-size:100px;"">X</div>","null","","","fixation","","","","","","","",""
"","","","","","audio-keyboard-response","101","225334","0.0-110.0","29","1","2023-10-24 17:52:08","a725c3012b74bf33a1020a98cb69c237","181.231.6.41","Mozilla/5.0 (Windows NT 10.0; Win64; x64) AppleWebKit/537.36 (KHTML, like Gecko) Chrome/118.0.0.0 Safari/537.36","WebKit","Chrome","118.0.0.0","Windows","10.0","null","en-US,en;q=0.9,es-AR;q=0.8,es;q=0.7,fr-FR;q=0.6,fr;q=0.5","true","null","tones/880hz_short.mp3","null","","","tone_number_task","0","veintiocho","tones/880hz_short.mp3","150","60","2","14",""
"","","","","","html-keyboard-response","102","226542","0.0-113.0-0.0","29","1","2023-10-24 17:52:08","a725c3012b74bf33a1020a98cb69c237","181.231.6.41","Mozilla/5.0 (Windows NT 10.0; Win64; x64) AppleWebKit/537.36 (KHTML, like Gecko) Chrome/118.0.0.0 Safari/537.36","WebKit","Chrome","118.0.0.0","Windows","10.0","null","en-US,en;q=0.9,es-AR;q=0.8,es;q=0.7,fr-FR;q=0.6,fr;q=0.5","true","null","tones/880hz_short.mp3","null","","","empty_block","","veintiocho","","","","2","14",""
"","","","","","html-keyboard-response","103","226589","0.0-113.0-1.0","29","1","2023-10-24 17:52:08","a725c3012b74bf33a1020a98cb69c237","181.231.6.41","Mozilla/5.0 (Windows NT 10.0; Win64; x64) AppleWebKit/537.36 (KHTML, like Gecko) Chrome/118.0.0.0 Safari/537.36","WebKit","Chrome","118.0.0.0","Windows","10.0","null","en-US,en;q=0.9,es-AR;q=0.8,es;q=0.7,fr-FR;q=0.6,fr;q=0.5","true","42","tones/880hz_short.mp3","s","","","empty_block","","veintiocho","","","","2","14",""
"","","","","","html-keyboard-response","104","229355","0.0-115.0","29","1","2023-10-24 17:52:08","a725c3012b74bf33a1020a98cb69c237","181.231.6.41","Mozilla/5.0 (Windows NT 10.0; Win64; x64) AppleWebKit/537.36 (KHTML, like Gecko) Chrome/118.0.0.0 Safari/537.36","WebKit","Chrome","118.0.0.0","Windows","10.0","null","en-US,en;q=0.9,es-AR;q=0.8,es;q=0.7,fr-FR;q=0.6,fr;q=0.5","true","null","<div style=""font-size:100px;"">X</div>","null","","","fixation","","","","","","","",""
"","","","","","audio-keyboard-response","105","229820","0.0-116.0","29","1","2023-10-24 17:52:08","a725c3012b74bf33a1020a98cb69c237","181.231.6.41","Mozilla/5.0 (Windows NT 10.0; Win64; x64) AppleWebKit/537.36 (KHTML, like Gecko) Chrome/118.0.0.0 Safari/537.36","WebKit","Chrome","118.0.0.0","Windows","10.0","null","en-US,en;q=0.9,es-AR;q=0.8,es;q=0.7,fr-FR;q=0.6,fr;q=0.5","true","461","tones/880hz_short.mp3","s","","","tone_number_task","1025","cincuenta y dos","tones/880hz_short.mp3","1175","60","2","15",""
"","","","","","html-keyboard-response","106","230388","0.0-117.0-0.0","29","1","2023-10-24 17:52:08","a725c3012b74bf33a1020a98cb69c237","181.231.6.41","Mozilla/5.0 (Windows NT 10.0; Win64; x64) AppleWebKit/537.36 (KHTML, like Gecko) Chrome/118.0.0.0 Safari/537.36","WebKit","Chrome","118.0.0.0","Windows","10.0","null","en-US,en;q=0.9,es-AR;q=0.8,es;q=0.7,fr-FR;q=0.6,fr;q=0.5","true","null","","null","","","delay_block","","","","","","2","15",""
"","","","","","html-keyboard-response","107","230541","0.0-117.0-1.0","29","1","2023-10-24 17:52:08","a725c3012b74bf33a1020a98cb69c237","181.231.6.41","Mozilla/5.0 (Windows NT 10.0; Win64; x64) AppleWebKit/537.36 (KHTML, like Gecko) Chrome/118.0.0.0 Safari/537.36","WebKit","Chrome","118.0.0.0","Windows","10.0","null","en-US,en;q=0.9,es-AR;q=0.8,es;q=0.7,fr-FR;q=0.6,fr;q=0.5","true","null","<p id=""stimulus"" style=""font-size:60px;"">cincuenta y dos</p>","null","","","tone_number_task_remaining_before_delay","","cincuenta y dos","","714","60","2","15",""
"","","","","","html-keyboard-response","108","231229","0.0-120.0-0.0","29","1","2023-10-24 17:52:08","a725c3012b74bf33a1020a98cb69c237","181.231.6.41","Mozilla/5.0 (Windows NT 10.0; Win64; x64) AppleWebKit/537.36 (KHTML, like Gecko) Chrome/118.0.0.0 Safari/537.36","WebKit","Chrome","118.0.0.0","Windows","10.0","null","en-US,en;q=0.9,es-AR;q=0.8,es;q=0.7,fr-FR;q=0.6,fr;q=0.5","true","685","<p id=""stimulus"" style=""font-size:60px;"">cincuenta y dos</p>","k","","","empty_block","","cincuenta y dos","","","","2","15",""
"","","","","","html-keyboard-response","109","233998","0.0-121.0","29","1","2023-10-24 17:52:08","a725c3012b74bf33a1020a98cb69c237","181.231.6.41","Mozilla/5.0 (Windows NT 10.0; Win64; x64) AppleWebKit/537.36 (KHTML, like Gecko) Chrome/118.0.0.0 Safari/537.36","WebKit","Chrome","118.0.0.0","Windows","10.0","null","en-US,en;q=0.9,es-AR;q=0.8,es;q=0.7,fr-FR;q=0.6,fr;q=0.5","true","null","<div style=""font-size:100px;"">X</div>","null","","","fixation","","","","","","","",""
"","","","","","audio-keyboard-response","110","234468","0.0-122.0","29","1","2023-10-24 17:52:08","a725c3012b74bf33a1020a98cb69c237","181.231.6.41","Mozilla/5.0 (Windows NT 10.0; Win64; x64) AppleWebKit/537.36 (KHTML, like Gecko) Chrome/118.0.0.0 Safari/537.36","WebKit","Chrome","118.0.0.0","Windows","10.0","null","en-US,en;q=0.9,es-AR;q=0.8,es;q=0.7,fr-FR;q=0.6,fr;q=0.5","true","469","tones/880hz_short.mp3","s","","","tone_number_task","992.5","veintiocho","tones/880hz_short.mp3","1142.5","60","2","16",""
"","","","","","html-keyboard-response","111","234998","0.0-123.0-0.0","29","1","2023-10-24 17:52:08","a725c3012b74bf33a1020a98cb69c237","181.231.6.41","Mozilla/5.0 (Windows NT 10.0; Win64; x64) AppleWebKit/537.36 (KHTML, like Gecko) Chrome/118.0.0.0 Safari/537.36","WebKit","Chrome","118.0.0.0","Windows","10.0","null","en-US,en;q=0.9,es-AR;q=0.8,es;q=0.7,fr-FR;q=0.6,fr;q=0.5","true","null","","null","","","delay_block","","","","","","2","16",""
"","","","","","html-keyboard-response","112","235155","0.0-123.0-1.0","29","1","2023-10-24 17:52:08","a725c3012b74bf33a1020a98cb69c237","181.231.6.41","Mozilla/5.0 (Windows NT 10.0; Win64; x64) AppleWebKit/537.36 (KHTML, like Gecko) Chrome/118.0.0.0 Safari/537.36","WebKit","Chrome","118.0.0.0","Windows","10.0","null","en-US,en;q=0.9,es-AR;q=0.8,es;q=0.7,fr-FR;q=0.6,fr;q=0.5","true","null","<p id=""stimulus"" style=""font-size:60px;"">veintiocho</p>","null","","","tone_number_task_remaining_before_delay","","veintiocho","","673.5","60","2","16",""
"","","","","","html-keyboard-response","113","235685","0.0-126.0-0.0","29","1","2023-10-24 17:52:08","a725c3012b74bf33a1020a98cb69c237","181.231.6.41","Mozilla/5.0 (Windows NT 10.0; Win64; x64) AppleWebKit/537.36 (KHTML, like Gecko) Chrome/118.0.0.0 Safari/537.36","WebKit","Chrome","118.0.0.0","Windows","10.0","null","en-US,en;q=0.9,es-AR;q=0.8,es;q=0.7,fr-FR;q=0.6,fr;q=0.5","true","525","<p id=""stimulus"" style=""font-size:60px;"">veintiocho</p>","j","","","empty_block","","veintiocho","","","","2","16",""
"","","","","","html-keyboard-response","114","238450","0.0-127.0","29","1","2023-10-24 17:52:08","a725c3012b74bf33a1020a98cb69c237","181.231.6.41","Mozilla/5.0 (Windows NT 10.0; Win64; x64) AppleWebKit/537.36 (KHTML, like Gecko) Chrome/118.0.0.0 Safari/537.36","WebKit","Chrome","118.0.0.0","Windows","10.0","null","en-US,en;q=0.9,es-AR;q=0.8,es;q=0.7,fr-FR;q=0.6,fr;q=0.5","true","null","<div style=""font-size:100px;"">X</div>","null","","","fixation","","","","","","","",""
"","","","","","audio-keyboard-response","115","238605","0.0-128.0","29","1","2023-10-24 17:52:08","a725c3012b74bf33a1020a98cb69c237","181.231.6.41","Mozilla/5.0 (Windows NT 10.0; Win64; x64) AppleWebKit/537.36 (KHTML, like Gecko) Chrome/118.0.0.0 Safari/537.36","WebKit","Chrome","118.0.0.0","Windows","10.0","null","en-US,en;q=0.9,es-AR;q=0.8,es;q=0.7,fr-FR;q=0.6,fr;q=0.5","true","null","tones/880hz_short.mp3","null","","","tone_number_task","0","treinta y seis","tones/880hz_short.mp3","150","60","2","17",""
"","","","","","html-keyboard-response","116","238861","0.0-131.0-0.0","29","1","2023-10-24 17:52:08","a725c3012b74bf33a1020a98cb69c237","181.231.6.41","Mozilla/5.0 (Windows NT 10.0; Win64; x64) AppleWebKit/537.36 (KHTML, like Gecko) Chrome/118.0.0.0 Safari/537.36","WebKit","Chrome","118.0.0.0","Windows","10.0","null","en-US,en;q=0.9,es-AR;q=0.8,es;q=0.7,fr-FR;q=0.6,fr;q=0.5","true","251","tones/880hz_short.mp3","s","","","empty_block","","treinta y seis","","","","2","17",""
"","","","","","html-keyboard-response","117","239124","0.0-131.0-1.0","29","1","2023-10-24 17:52:08","a725c3012b74bf33a1020a98cb69c237","181.231.6.41","Mozilla/5.0 (Windows NT 10.0; Win64; x64) AppleWebKit/537.36 (KHTML, like Gecko) Chrome/118.0.0.0 Safari/537.36","WebKit","Chrome","118.0.0.0","Windows","10.0","null","en-US,en;q=0.9,es-AR;q=0.8,es;q=0.7,fr-FR;q=0.6,fr;q=0.5","true","258","tones/880hz_short.mp3","j","","","empty_block","","treinta y seis","","","","2","17",""
"","","","","","html-keyboard-response","118","241890","0.0-133.0","29","1","2023-10-24 17:52:08","a725c3012b74bf33a1020a98cb69c237","181.231.6.41","Mozilla/5.0 (Windows NT 10.0; Win64; x64) AppleWebKit/537.36 (KHTML, like Gecko) Chrome/118.0.0.0 Safari/537.36","WebKit","Chrome","118.0.0.0","Windows","10.0","null","en-US,en;q=0.9,es-AR;q=0.8,es;q=0.7,fr-FR;q=0.6,fr;q=0.5","true","null","<div style=""font-size:100px;"">X</div>","null","","","fixation","","","","","","","",""
"","","","","","audio-keyboard-response","119","242044","0.0-134.0","29","1","2023-10-24 17:52:08","a725c3012b74bf33a1020a98cb69c237","181.231.6.41","Mozilla/5.0 (Windows NT 10.0; Win64; x64) AppleWebKit/537.36 (KHTML, like Gecko) Chrome/118.0.0.0 Safari/537.36","WebKit","Chrome","118.0.0.0","Windows","10.0","null","en-US,en;q=0.9,es-AR;q=0.8,es;q=0.7,fr-FR;q=0.6,fr;q=0.5","true","null","tones/880hz_short.mp3","null","","","tone_number_task","0","treinta y uno","tones/880hz_short.mp3","150","60","2","18",""
"","","","","","html-keyboard-response","120","242284","0.0-137.0-0.0","29","1","2023-10-24 17:52:08","a725c3012b74bf33a1020a98cb69c237","181.231.6.41","Mozilla/5.0 (Windows NT 10.0; Win64; x64) AppleWebKit/537.36 (KHTML, like Gecko) Chrome/118.0.0.0 Safari/537.36","WebKit","Chrome","118.0.0.0","Windows","10.0","null","en-US,en;q=0.9,es-AR;q=0.8,es;q=0.7,fr-FR;q=0.6,fr;q=0.5","true","235","tones/880hz_short.mp3","s","","","empty_block","","treinta y uno","","","","2","18",""
"","","","","","html-keyboard-response","121","242508","0.0-137.0-1.0","29","1","2023-10-24 17:52:08","a725c3012b74bf33a1020a98cb69c237","181.231.6.41","Mozilla/5.0 (Windows NT 10.0; Win64; x64) AppleWebKit/537.36 (KHTML, like Gecko) Chrome/118.0.0.0 Safari/537.36","WebKit","Chrome","118.0.0.0","Windows","10.0","null","en-US,en;q=0.9,es-AR;q=0.8,es;q=0.7,fr-FR;q=0.6,fr;q=0.5","true","221","tones/880hz_short.mp3","j","","","empty_block","","treinta y uno","","","","2","18",""
"","","","","","html-keyboard-response","122","245271","0.0-139.0","29","1","2023-10-24 17:52:08","a725c3012b74bf33a1020a98cb69c237","181.231.6.41","Mozilla/5.0 (Windows NT 10.0; Win64; x64) AppleWebKit/537.36 (KHTML, like Gecko) Chrome/118.0.0.0 Safari/537.36","WebKit","Chrome","118.0.0.0","Windows","10.0","null","en-US,en;q=0.9,es-AR;q=0.8,es;q=0.7,fr-FR;q=0.6,fr;q=0.5","true","null","<div style=""font-size:100px;"">X</div>","null","","","fixation","","","","","","","",""
"","","","","","audio-keyboard-response","123","245527","0.0-140.0","29","1","2023-10-24 17:52:08","a725c3012b74bf33a1020a98cb69c237","181.231.6.41","Mozilla/5.0 (Windows NT 10.0; Win64; x64) AppleWebKit/537.36 (KHTML, like Gecko) Chrome/118.0.0.0 Safari/537.36","WebKit","Chrome","118.0.0.0","Windows","10.0","null","en-US,en;q=0.9,es-AR;q=0.8,es;q=0.7,fr-FR;q=0.6,fr;q=0.5","true","null","tones/440hz_short.mp3","null","","","tone_number_task","102.5","treinta y tres","tones/440hz_short.mp3","252.5","60","2","19",""
"","","","","","html-keyboard-response","124","245740","0.0-143.0-0.0","29","1","2023-10-24 17:52:08","a725c3012b74bf33a1020a98cb69c237","181.231.6.41","Mozilla/5.0 (Windows NT 10.0; Win64; x64) AppleWebKit/537.36 (KHTML, like Gecko) Chrome/118.0.0.0 Safari/537.36","WebKit","Chrome","118.0.0.0","Windows","10.0","null","en-US,en;q=0.9,es-AR;q=0.8,es;q=0.7,fr-FR;q=0.6,fr;q=0.5","true","210","tones/440hz_short.mp3","a","","","empty_block","","treinta y tres","","","","2","19",""
"","","","","","html-keyboard-response","125","246380","0.0-143.0-1.0","29","1","2023-10-24 17:52:08","a725c3012b74bf33a1020a98cb69c237","181.231.6.41","Mozilla/5.0 (Windows NT 10.0; Win64; x64) AppleWebKit/537.36 (KHTML, like Gecko) Chrome/118.0.0.0 Safari/537.36","WebKit","Chrome","118.0.0.0","Windows","10.0","null","en-US,en;q=0.9,es-AR;q=0.8,es;q=0.7,fr-FR;q=0.6,fr;q=0.5","true","638","tones/440hz_short.mp3","j","","","empty_block","","treinta y tres","","","","2","19",""
"","","","","","html-keyboard-response","126","249143","0.0-145.0","29","1","2023-10-24 17:52:08","a725c3012b74bf33a1020a98cb69c237","181.231.6.41","Mozilla/5.0 (Windows NT 10.0; Win64; x64) AppleWebKit/537.36 (KHTML, like Gecko) Chrome/118.0.0.0 Safari/537.36","WebKit","Chrome","118.0.0.0","Windows","10.0","null","en-US,en;q=0.9,es-AR;q=0.8,es;q=0.7,fr-FR;q=0.6,fr;q=0.5","true","null","<div style=""font-size:100px;"">X</div>","null","","","fixation","","","","","","","",""
"","","","","","audio-keyboard-response","127","249589","0.0-146.0","29","1","2023-10-24 17:52:08","a725c3012b74bf33a1020a98cb69c237","181.231.6.41","Mozilla/5.0 (Windows NT 10.0; Win64; x64) AppleWebKit/537.36 (KHTML, like Gecko) Chrome/118.0.0.0 Safari/537.36","WebKit","Chrome","118.0.0.0","Windows","10.0","null","en-US,en;q=0.9,es-AR;q=0.8,es;q=0.7,fr-FR;q=0.6,fr;q=0.5","true","440","tones/440hz_short.mp3","a","","","tone_number_task","992.5","treinta","tones/440hz_short.mp3","1142.5","60","2","20",""
"","","","","","html-keyboard-response","128","250148","0.0-147.0-0.0","29","1","2023-10-24 17:52:08","a725c3012b74bf33a1020a98cb69c237","181.231.6.41","Mozilla/5.0 (Windows NT 10.0; Win64; x64) AppleWebKit/537.36 (KHTML, like Gecko) Chrome/118.0.0.0 Safari/537.36","WebKit","Chrome","118.0.0.0","Windows","10.0","null","en-US,en;q=0.9,es-AR;q=0.8,es;q=0.7,fr-FR;q=0.6,fr;q=0.5","true","null","","null","","","delay_block","","","","","","2","20",""
"","","","","","html-keyboard-response","129","250308","0.0-147.0-1.0","29","1","2023-10-24 17:52:08","a725c3012b74bf33a1020a98cb69c237","181.231.6.41","Mozilla/5.0 (Windows NT 10.0; Win64; x64) AppleWebKit/537.36 (KHTML, like Gecko) Chrome/118.0.0.0 Safari/537.36","WebKit","Chrome","118.0.0.0","Windows","10.0","null","en-US,en;q=0.9,es-AR;q=0.8,es;q=0.7,fr-FR;q=0.6,fr;q=0.5","true","null","<p id=""stimulus"" style=""font-size:60px;"">treinta</p>","null","","","tone_number_task_remaining_before_delay","","treinta","","702.5","60","2","20",""
"","","","","","html-keyboard-response","130","250638","0.0-150.0-0.0","29","1","2023-10-24 17:52:08","a725c3012b74bf33a1020a98cb69c237","181.231.6.41","Mozilla/5.0 (Windows NT 10.0; Win64; x64) AppleWebKit/537.36 (KHTML, like Gecko) Chrome/118.0.0.0 Safari/537.36","WebKit","Chrome","118.0.0.0","Windows","10.0","null","en-US,en;q=0.9,es-AR;q=0.8,es;q=0.7,fr-FR;q=0.6,fr;q=0.5","true","320","<p id=""stimulus"" style=""font-size:60px;"">treinta</p>","j","","","empty_block","","treinta","","","","2","20",""
"","","","","","html-keyboard-response","131","253407","0.0-151.0","29","1","2023-10-24 17:52:08","a725c3012b74bf33a1020a98cb69c237","181.231.6.41","Mozilla/5.0 (Windows NT 10.0; Win64; x64) AppleWebKit/537.36 (KHTML, like Gecko) Chrome/118.0.0.0 Safari/537.36","WebKit","Chrome","118.0.0.0","Windows","10.0","null","en-US,en;q=0.9,es-AR;q=0.8,es;q=0.7,fr-FR;q=0.6,fr;q=0.5","true","null","<div style=""font-size:100px;"">X</div>","null","","","fixation","","","","","","","",""
"","","","","","audio-keyboard-response","132","253964","0.0-152.0","29","1","2023-10-24 17:52:08","a725c3012b74bf33a1020a98cb69c237","181.231.6.41","Mozilla/5.0 (Windows NT 10.0; Win64; x64) AppleWebKit/537.36 (KHTML, like Gecko) Chrome/118.0.0.0 Safari/537.36","WebKit","Chrome","118.0.0.0","Windows","10.0","null","en-US,en;q=0.9,es-AR;q=0.8,es;q=0.7,fr-FR;q=0.6,fr;q=0.5","true","549","tones/880hz_short.mp3","s","","","tone_number_task","992.5","treinta y uno","tones/880hz_short.mp3","1142.5","60","2","21",""
"","","","","","html-keyboard-response","133","254413","0.0-153.0-0.0","29","1","2023-10-24 17:52:08","a725c3012b74bf33a1020a98cb69c237","181.231.6.41","Mozilla/5.0 (Windows NT 10.0; Win64; x64) AppleWebKit/537.36 (KHTML, like Gecko) Chrome/118.0.0.0 Safari/537.36","WebKit","Chrome","118.0.0.0","Windows","10.0","null","en-US,en;q=0.9,es-AR;q=0.8,es;q=0.7,fr-FR;q=0.6,fr;q=0.5","true","null","","null","","","delay_block","","","","","","2","21",""
"","","","","","html-keyboard-response","134","254570","0.0-153.0-1.0","29","1","2023-10-24 17:52:08","a725c3012b74bf33a1020a98cb69c237","181.231.6.41","Mozilla/5.0 (Windows NT 10.0; Win64; x64) AppleWebKit/537.36 (KHTML, like Gecko) Chrome/118.0.0.0 Safari/537.36","WebKit","Chrome","118.0.0.0","Windows","10.0","null","en-US,en;q=0.9,es-AR;q=0.8,es;q=0.7,fr-FR;q=0.6,fr;q=0.5","true","null","<p id=""stimulus"" style=""font-size:60px;"">treinta y uno</p>","null","","","tone_number_task_remaining_before_delay","","treinta y uno","","593.5","60","2","21",""
"","","","","","html-keyboard-response","135","255110","0.0-156.0-0.0","29","1","2023-10-24 17:52:08","a725c3012b74bf33a1020a98cb69c237","181.231.6.41","Mozilla/5.0 (Windows NT 10.0; Win64; x64) AppleWebKit/537.36 (KHTML, like Gecko) Chrome/118.0.0.0 Safari/537.36","WebKit","Chrome","118.0.0.0","Windows","10.0","null","en-US,en;q=0.9,es-AR;q=0.8,es;q=0.7,fr-FR;q=0.6,fr;q=0.5","true","530","<p id=""stimulus"" style=""font-size:60px;"">treinta y uno</p>","j","","","empty_block","","treinta y uno","","","","2","21",""
"","","","","","html-keyboard-response","136","257875","0.0-157.0","29","1","2023-10-24 17:52:08","a725c3012b74bf33a1020a98cb69c237","181.231.6.41","Mozilla/5.0 (Windows NT 10.0; Win64; x64) AppleWebKit/537.36 (KHTML, like Gecko) Chrome/118.0.0.0 Safari/537.36","WebKit","Chrome","118.0.0.0","Windows","10.0","null","en-US,en;q=0.9,es-AR;q=0.8,es;q=0.7,fr-FR;q=0.6,fr;q=0.5","true","null","<div style=""font-size:100px;"">X</div>","null","","","fixation","","","","","","","",""
"","","","","","audio-keyboard-response","137","258134","0.0-158.0","29","1","2023-10-24 17:52:08","a725c3012b74bf33a1020a98cb69c237","181.231.6.41","Mozilla/5.0 (Windows NT 10.0; Win64; x64) AppleWebKit/537.36 (KHTML, like Gecko) Chrome/118.0.0.0 Safari/537.36","WebKit","Chrome","118.0.0.0","Windows","10.0","null","en-US,en;q=0.9,es-AR;q=0.8,es;q=0.7,fr-FR;q=0.6,fr;q=0.5","true","null","tones/440hz_short.mp3","null","","","tone_number_task","102.5","cuarenta y seis","tones/440hz_short.mp3","252.5","60","2","22",""
"","","","","","html-keyboard-response","138","259342","0.0-161.0-0.0","29","1","2023-10-24 17:52:08","a725c3012b74bf33a1020a98cb69c237","181.231.6.41","Mozilla/5.0 (Windows NT 10.0; Win64; x64) AppleWebKit/537.36 (KHTML, like Gecko) Chrome/118.0.0.0 Safari/537.36","WebKit","Chrome","118.0.0.0","Windows","10.0","null","en-US,en;q=0.9,es-AR;q=0.8,es;q=0.7,fr-FR;q=0.6,fr;q=0.5","true","null","tones/440hz_short.mp3","null","","","empty_block","","cuarenta y seis","","","","2","22",""
"","","","","","html-keyboard-response","139","259636","0.0-161.0-1.0","29","1","2023-10-24 17:52:08","a725c3012b74bf33a1020a98cb69c237","181.231.6.41","Mozilla/5.0 (Windows NT 10.0; Win64; x64) AppleWebKit/537.36 (KHTML, like Gecko) Chrome/118.0.0.0 Safari/537.36","WebKit","Chrome","118.0.0.0","Windows","10.0","null","en-US,en;q=0.9,es-AR;q=0.8,es;q=0.7,fr-FR;q=0.6,fr;q=0.5","true","288","tones/440hz_short.mp3","a","","","empty_block","","cuarenta y seis","","","","2","22",""
"","","","","","html-keyboard-response","140","262399","0.0-163.0","29","1","2023-10-24 17:52:08","a725c3012b74bf33a1020a98cb69c237","181.231.6.41","Mozilla/5.0 (Windows NT 10.0; Win64; x64) AppleWebKit/537.36 (KHTML, like Gecko) Chrome/118.0.0.0 Safari/537.36","WebKit","Chrome","118.0.0.0","Windows","10.0","null","en-US,en;q=0.9,es-AR;q=0.8,es;q=0.7,fr-FR;q=0.6,fr;q=0.5","true","null","<div style=""font-size:100px;"">X</div>","null","","","fixation","","","","","","","",""
"","","","","","audio-keyboard-response","141","262553","0.0-164.0","29","1","2023-10-24 17:52:08","a725c3012b74bf33a1020a98cb69c237","181.231.6.41","Mozilla/5.0 (Windows NT 10.0; Win64; x64) AppleWebKit/537.36 (KHTML, like Gecko) Chrome/118.0.0.0 Safari/537.36","WebKit","Chrome","118.0.0.0","Windows","10.0","null","en-US,en;q=0.9,es-AR;q=0.8,es;q=0.7,fr-FR;q=0.6,fr;q=0.5","true","null","tones/440hz_short.mp3","null","","","tone_number_task","0","treinta y cinco","tones/440hz_short.mp3","150","60","2","23",""
"","","","","","html-keyboard-response","142","263332","0.0-167.0-0.0","29","1","2023-10-24 17:52:08","a725c3012b74bf33a1020a98cb69c237","181.231.6.41","Mozilla/5.0 (Windows NT 10.0; Win64; x64) AppleWebKit/537.36 (KHTML, like Gecko) Chrome/118.0.0.0 Safari/537.36","WebKit","Chrome","118.0.0.0","Windows","10.0","null","en-US,en;q=0.9,es-AR;q=0.8,es;q=0.7,fr-FR;q=0.6,fr;q=0.5","true","776","tones/440hz_short.mp3","a","","","empty_block","","treinta y cinco","","","","2","23",""
"","","","","","html-keyboard-response","143","263445","0.0-167.0-1.0","29","1","2023-10-24 17:52:08","a725c3012b74bf33a1020a98cb69c237","181.231.6.41","Mozilla/5.0 (Windows NT 10.0; Win64; x64) AppleWebKit/537.36 (KHTML, like Gecko) Chrome/118.0.0.0 Safari/537.36","WebKit","Chrome","118.0.0.0","Windows","10.0","null","en-US,en;q=0.9,es-AR;q=0.8,es;q=0.7,fr-FR;q=0.6,fr;q=0.5","true","106","tones/440hz_short.mp3","j","","","empty_block","","treinta y cinco","","","","2","23",""
"","","","","","html-keyboard-response","144","266215","0.0-169.0","29","1","2023-10-24 17:52:08","a725c3012b74bf33a1020a98cb69c237","181.231.6.41","Mozilla/5.0 (Windows NT 10.0; Win64; x64) AppleWebKit/537.36 (KHTML, like Gecko) Chrome/118.0.0.0 Safari/537.36","WebKit","Chrome","118.0.0.0","Windows","10.0","null","en-US,en;q=0.9,es-AR;q=0.8,es;q=0.7,fr-FR;q=0.6,fr;q=0.5","true","null","<div style=""font-size:100px;"">X</div>","null","","","fixation","","","","","","","",""
"","","","","","audio-keyboard-response","145","266478","0.0-170.0","29","1","2023-10-24 17:52:08","a725c3012b74bf33a1020a98cb69c237","181.231.6.41","Mozilla/5.0 (Windows NT 10.0; Win64; x64) AppleWebKit/537.36 (KHTML, like Gecko) Chrome/118.0.0.0 Safari/537.36","WebKit","Chrome","118.0.0.0","Windows","10.0","null","en-US,en;q=0.9,es-AR;q=0.8,es;q=0.7,fr-FR;q=0.6,fr;q=0.5","true","null","tones/880hz_short.mp3","null","","","tone_number_task","102.5","sesenta","tones/880hz_short.mp3","252.5","60","2","24",""
"","","","","","html-keyboard-response","146","267213","0.0-173.0-0.0","29","1","2023-10-24 17:52:08","a725c3012b74bf33a1020a98cb69c237","181.231.6.41","Mozilla/5.0 (Windows NT 10.0; Win64; x64) AppleWebKit/537.36 (KHTML, like Gecko) Chrome/118.0.0.0 Safari/537.36","WebKit","Chrome","118.0.0.0","Windows","10.0","null","en-US,en;q=0.9,es-AR;q=0.8,es;q=0.7,fr-FR;q=0.6,fr;q=0.5","true","726","tones/880hz_short.mp3","s","","","empty_block","","sesenta","","","","2","24",""
"","","","","","html-keyboard-response","147","267373","0.0-173.0-1.0","29","1","2023-10-24 17:52:08","a725c3012b74bf33a1020a98cb69c237","181.231.6.41","Mozilla/5.0 (Windows NT 10.0; Win64; x64) AppleWebKit/537.36 (KHTML, like Gecko) Chrome/118.0.0.0 Safari/537.36","WebKit","Chrome","118.0.0.0","Windows","10.0","null","en-US,en;q=0.9,es-AR;q=0.8,es;q=0.7,fr-FR;q=0.6,fr;q=0.5","true","152","tones/880hz_short.mp3","k","","","empty_block","","sesenta","","","","2","24",""
"","","","","","html-keyboard-response","148","270139","0.0-175.0","29","1","2023-10-24 17:52:08","a725c3012b74bf33a1020a98cb69c237","181.231.6.41","Mozilla/5.0 (Windows NT 10.0; Win64; x64) AppleWebKit/537.36 (KHTML, like Gecko) Chrome/118.0.0.0 Safari/537.36","WebKit","Chrome","118.0.0.0","Windows","10.0","null","en-US,en;q=0.9,es-AR;q=0.8,es;q=0.7,fr-FR;q=0.6,fr;q=0.5","true","null","<div style=""font-size:100px;"">X</div>","null","","","fixation","","","","","","","",""
"","","","","","audio-keyboard-response","149","270916","0.0-176.0","29","1","2023-10-24 17:52:08","a725c3012b74bf33a1020a98cb69c237","181.231.6.41","Mozilla/5.0 (Windows NT 10.0; Win64; x64) AppleWebKit/537.36 (KHTML, like Gecko) Chrome/118.0.0.0 Safari/537.36","WebKit","Chrome","118.0.0.0","Windows","10.0","null","en-US,en;q=0.9,es-AR;q=0.8,es;q=0.7,fr-FR;q=0.6,fr;q=0.5","true","771","tones/440hz_short.mp3","a","","","tone_number_task","992.5","cincuenta y cinco","tones/440hz_short.mp3","1142.5","60","2","25",""
"","","","","","html-keyboard-response","150","271142","0.0-177.0-0.0","29","1","2023-10-24 17:52:08","a725c3012b74bf33a1020a98cb69c237","181.231.6.41","Mozilla/5.0 (Windows NT 10.0; Win64; x64) AppleWebKit/537.36 (KHTML, like Gecko) Chrome/118.0.0.0 Safari/537.36","WebKit","Chrome","118.0.0.0","Windows","10.0","null","en-US,en;q=0.9,es-AR;q=0.8,es;q=0.7,fr-FR;q=0.6,fr;q=0.5","true","null","","null","","","delay_block","","","","","","2","25",""
"","","","","","html-keyboard-response","151","271297","0.0-177.0-1.0","29","1","2023-10-24 17:52:08","a725c3012b74bf33a1020a98cb69c237","181.231.6.41","Mozilla/5.0 (Windows NT 10.0; Win64; x64) AppleWebKit/537.36 (KHTML, like Gecko) Chrome/118.0.0.0 Safari/537.36","WebKit","Chrome","118.0.0.0","Windows","10.0","null","en-US,en;q=0.9,es-AR;q=0.8,es;q=0.7,fr-FR;q=0.6,fr;q=0.5","true","null","<p id=""stimulus"" style=""font-size:60px;"">cincuenta y cinco</p>","null","","","tone_number_task_remaining_before_delay","","cincuenta y cinco","","371.5","60","2","25",""
"","","","","","html-keyboard-response","152","271998","0.0-180.0-0.0","29","1","2023-10-24 17:52:08","a725c3012b74bf33a1020a98cb69c237","181.231.6.41","Mozilla/5.0 (Windows NT 10.0; Win64; x64) AppleWebKit/537.36 (KHTML, like Gecko) Chrome/118.0.0.0 Safari/537.36","WebKit","Chrome","118.0.0.0","Windows","10.0","null","en-US,en;q=0.9,es-AR;q=0.8,es;q=0.7,fr-FR;q=0.6,fr;q=0.5","true","695","<p id=""stimulus"" style=""font-size:60px;"">cincuenta y cinco</p>","k","","","empty_block","","cincuenta y cinco","","","","2","25",""
"","","","","","html-keyboard-response","153","274770","0.0-181.0","29","1","2023-10-24 17:52:08","a725c3012b74bf33a1020a98cb69c237","181.231.6.41","Mozilla/5.0 (Windows NT 10.0; Win64; x64) AppleWebKit/537.36 (KHTML, like Gecko) Chrome/118.0.0.0 Safari/537.36","WebKit","Chrome","118.0.0.0","Windows","10.0","null","en-US,en;q=0.9,es-AR;q=0.8,es;q=0.7,fr-FR;q=0.6,fr;q=0.5","true","null","<div style=""font-size:100px;"">X</div>","null","","","fixation","","","","","","","",""
"","","","","","audio-keyboard-response","154","275029","0.0-182.0","29","1","2023-10-24 17:52:08","a725c3012b74bf33a1020a98cb69c237","181.231.6.41","Mozilla/5.0 (Windows NT 10.0; Win64; x64) AppleWebKit/537.36 (KHTML, like Gecko) Chrome/118.0.0.0 Safari/537.36","WebKit","Chrome","118.0.0.0","Windows","10.0","null","en-US,en;q=0.9,es-AR;q=0.8,es;q=0.7,fr-FR;q=0.6,fr;q=0.5","true","null","tones/440hz_short.mp3","null","","","tone_number_task","102.5","veintinueve","tones/440hz_short.mp3","252.5","60","2","26",""
"","","","","","html-keyboard-response","155","275228","0.0-185.0-0.0","29","1","2023-10-24 17:52:08","a725c3012b74bf33a1020a98cb69c237","181.231.6.41","Mozilla/5.0 (Windows NT 10.0; Win64; x64) AppleWebKit/537.36 (KHTML, like Gecko) Chrome/118.0.0.0 Safari/537.36","WebKit","Chrome","118.0.0.0","Windows","10.0","null","en-US,en;q=0.9,es-AR;q=0.8,es;q=0.7,fr-FR;q=0.6,fr;q=0.5","true","193","tones/440hz_short.mp3","a","","","empty_block","","veintinueve","","","","2","26",""
"","","","","","html-keyboard-response","156","275732","0.0-185.0-1.0","29","1","2023-10-24 17:52:08","a725c3012b74bf33a1020a98cb69c237","181.231.6.41","Mozilla/5.0 (Windows NT 10.0; Win64; x64) AppleWebKit/537.36 (KHTML, like Gecko) Chrome/118.0.0.0 Safari/537.36","WebKit","Chrome","118.0.0.0","Windows","10.0","null","en-US,en;q=0.9,es-AR;q=0.8,es;q=0.7,fr-FR;q=0.6,fr;q=0.5","true","499","tones/440hz_short.mp3","j","","","empty_block","","veintinueve","","","","2","26",""
"","","","","","html-keyboard-response","157","278500","0.0-187.0","29","1","2023-10-24 17:52:08","a725c3012b74bf33a1020a98cb69c237","181.231.6.41","Mozilla/5.0 (Windows NT 10.0; Win64; x64) AppleWebKit/537.36 (KHTML, like Gecko) Chrome/118.0.0.0 Safari/537.36","WebKit","Chrome","118.0.0.0","Windows","10.0","null","en-US,en;q=0.9,es-AR;q=0.8,es;q=0.7,fr-FR;q=0.6,fr;q=0.5","true","null","<div style=""font-size:100px;"">X</div>","null","","","fixation","","","","","","","",""
"","","","","","audio-keyboard-response","158","278662","0.0-188.0","29","1","2023-10-24 17:52:08","a725c3012b74bf33a1020a98cb69c237","181.231.6.41","Mozilla/5.0 (Windows NT 10.0; Win64; x64) AppleWebKit/537.36 (KHTML, like Gecko) Chrome/118.0.0.0 Safari/537.36","WebKit","Chrome","118.0.0.0","Windows","10.0","null","en-US,en;q=0.9,es-AR;q=0.8,es;q=0.7,fr-FR;q=0.6,fr;q=0.5","true","null","tones/440hz_short.mp3","null","","","tone_number_task","0","cuarenta y ocho","tones/440hz_short.mp3","150","60","2","27",""
"","","","","","html-keyboard-response","159","279318","0.0-191.0-0.0","29","1","2023-10-24 17:52:08","a725c3012b74bf33a1020a98cb69c237","181.231.6.41","Mozilla/5.0 (Windows NT 10.0; Win64; x64) AppleWebKit/537.36 (KHTML, like Gecko) Chrome/118.0.0.0 Safari/537.36","WebKit","Chrome","118.0.0.0","Windows","10.0","null","en-US,en;q=0.9,es-AR;q=0.8,es;q=0.7,fr-FR;q=0.6,fr;q=0.5","true","643","tones/440hz_short.mp3","a","","","empty_block","","cuarenta y ocho","","","","2","27",""
"","","","","","html-keyboard-response","160","279685","0.0-191.0-1.0","29","1","2023-10-24 17:52:08","a725c3012b74bf33a1020a98cb69c237","181.231.6.41","Mozilla/5.0 (Windows NT 10.0; Win64; x64) AppleWebKit/537.36 (KHTML, like Gecko) Chrome/118.0.0.0 Safari/537.36","WebKit","Chrome","118.0.0.0","Windows","10.0","null","en-US,en;q=0.9,es-AR;q=0.8,es;q=0.7,fr-FR;q=0.6,fr;q=0.5","true","356","tones/440hz_short.mp3","k","","","empty_block","","cuarenta y ocho","","","","2","27",""
"","","","","","html-keyboard-response","161","282457","0.0-193.0","29","1","2023-10-24 17:52:08","a725c3012b74bf33a1020a98cb69c237","181.231.6.41","Mozilla/5.0 (Windows NT 10.0; Win64; x64) AppleWebKit/537.36 (KHTML, like Gecko) Chrome/118.0.0.0 Safari/537.36","WebKit","Chrome","118.0.0.0","Windows","10.0","null","en-US,en;q=0.9,es-AR;q=0.8,es;q=0.7,fr-FR;q=0.6,fr;q=0.5","true","null","<div style=""font-size:100px;"">X</div>","null","","","fixation","","","","","","","",""
"","","","","","audio-keyboard-response","162","283092","0.0-194.0","29","1","2023-10-24 17:52:08","a725c3012b74bf33a1020a98cb69c237","181.231.6.41","Mozilla/5.0 (Windows NT 10.0; Win64; x64) AppleWebKit/537.36 (KHTML, like Gecko) Chrome/118.0.0.0 Safari/537.36","WebKit","Chrome","118.0.0.0","Windows","10.0","null","en-US,en;q=0.9,es-AR;q=0.8,es;q=0.7,fr-FR;q=0.6,fr;q=0.5","true","621","tones/880hz_short.mp3","s","","","tone_number_task","992.5","cuarenta y nueve","tones/880hz_short.mp3","1142.5","60","2","28",""
"","","","","","html-keyboard-response","163","283469","0.0-195.0-0.0","29","1","2023-10-24 17:52:08","a725c3012b74bf33a1020a98cb69c237","181.231.6.41","Mozilla/5.0 (Windows NT 10.0; Win64; x64) AppleWebKit/537.36 (KHTML, like Gecko) Chrome/118.0.0.0 Safari/537.36","WebKit","Chrome","118.0.0.0","Windows","10.0","null","en-US,en;q=0.9,es-AR;q=0.8,es;q=0.7,fr-FR;q=0.6,fr;q=0.5","true","null","","null","","","delay_block","","","","","","2","28",""
"","","","","","html-keyboard-response","164","283625","0.0-195.0-1.0","29","1","2023-10-24 17:52:08","a725c3012b74bf33a1020a98cb69c237","181.231.6.41","Mozilla/5.0 (Windows NT 10.0; Win64; x64) AppleWebKit/537.36 (KHTML, like Gecko) Chrome/118.0.0.0 Safari/537.36","WebKit","Chrome","118.0.0.0","Windows","10.0","null","en-US,en;q=0.9,es-AR;q=0.8,es;q=0.7,fr-FR;q=0.6,fr;q=0.5","true","null","<p id=""stimulus"" style=""font-size:60px;"">cuarenta y nueve</p>","null","","","tone_number_task_remaining_before_delay","","cuarenta y nueve","","521.5","60","2","28",""
"","","","","","html-keyboard-response","165","284197","0.0-198.0-0.0","29","1","2023-10-24 17:52:08","a725c3012b74bf33a1020a98cb69c237","181.231.6.41","Mozilla/5.0 (Windows NT 10.0; Win64; x64) AppleWebKit/537.36 (KHTML, like Gecko) Chrome/118.0.0.0 Safari/537.36","WebKit","Chrome","118.0.0.0","Windows","10.0","null","en-US,en;q=0.9,es-AR;q=0.8,es;q=0.7,fr-FR;q=0.6,fr;q=0.5","true","566","<p id=""stimulus"" style=""font-size:60px;"">cuarenta y nueve</p>","k","","","empty_block","","cuarenta y nueve","","","","2","28",""
"","","","","","html-keyboard-response","166","286969","0.0-199.0","29","1","2023-10-24 17:52:08","a725c3012b74bf33a1020a98cb69c237","181.231.6.41","Mozilla/5.0 (Windows NT 10.0; Win64; x64) AppleWebKit/537.36 (KHTML, like Gecko) Chrome/118.0.0.0 Safari/537.36","WebKit","Chrome","118.0.0.0","Windows","10.0","null","en-US,en;q=0.9,es-AR;q=0.8,es;q=0.7,fr-FR;q=0.6,fr;q=0.5","true","null","<div style=""font-size:100px;"">X</div>","null","","","fixation","","","","","","","",""
"","","","","","audio-keyboard-response","167","287130","0.0-200.0","29","1","2023-10-24 17:52:08","a725c3012b74bf33a1020a98cb69c237","181.231.6.41","Mozilla/5.0 (Windows NT 10.0; Win64; x64) AppleWebKit/537.36 (KHTML, like Gecko) Chrome/118.0.0.0 Safari/537.36","WebKit","Chrome","118.0.0.0","Windows","10.0","null","en-US,en;q=0.9,es-AR;q=0.8,es;q=0.7,fr-FR;q=0.6,fr;q=0.5","true","null","tones/880hz_short.mp3","null","","","tone_number_task","0","treinta y cinco","tones/880hz_short.mp3","150","60","2","29",""
"","","","","","html-keyboard-response","168","288334","0.0-203.0-0.0","29","1","2023-10-24 17:52:08","a725c3012b74bf33a1020a98cb69c237","181.231.6.41","Mozilla/5.0 (Windows NT 10.0; Win64; x64) AppleWebKit/537.36 (KHTML, like Gecko) Chrome/118.0.0.0 Safari/537.36","WebKit","Chrome","118.0.0.0","Windows","10.0","null","en-US,en;q=0.9,es-AR;q=0.8,es;q=0.7,fr-FR;q=0.6,fr;q=0.5","true","null","tones/880hz_short.mp3","null","","","empty_block","","treinta y cinco","","","","2","29",""
"","","","","","html-keyboard-response","169","288804","0.0-203.0-1.0","29","1","2023-10-24 17:52:08","a725c3012b74bf33a1020a98cb69c237","181.231.6.41","Mozilla/5.0 (Windows NT 10.0; Win64; x64) AppleWebKit/537.36 (KHTML, like Gecko) Chrome/118.0.0.0 Safari/537.36","WebKit","Chrome","118.0.0.0","Windows","10.0","null","en-US,en;q=0.9,es-AR;q=0.8,es;q=0.7,fr-FR;q=0.6,fr;q=0.5","true","465","tones/880hz_short.mp3","s","","","empty_block","","treinta y cinco","","","","2","29",""
"","","","","","html-keyboard-response","170","291569","0.0-205.0","29","1","2023-10-24 17:52:08","a725c3012b74bf33a1020a98cb69c237","181.231.6.41","Mozilla/5.0 (Windows NT 10.0; Win64; x64) AppleWebKit/537.36 (KHTML, like Gecko) Chrome/118.0.0.0 Safari/537.36","WebKit","Chrome","118.0.0.0","Windows","10.0","null","en-US,en;q=0.9,es-AR;q=0.8,es;q=0.7,fr-FR;q=0.6,fr;q=0.5","true","null","<div style=""font-size:100px;"">X</div>","null","","","fixation","","","","","","","",""
"","","","","","audio-keyboard-response","171","292197","0.0-206.0","29","1","2023-10-24 17:52:08","a725c3012b74bf33a1020a98cb69c237","181.231.6.41","Mozilla/5.0 (Windows NT 10.0; Win64; x64) AppleWebKit/537.36 (KHTML, like Gecko) Chrome/118.0.0.0 Safari/537.36","WebKit","Chrome","118.0.0.0","Windows","10.0","null","en-US,en;q=0.9,es-AR;q=0.8,es;q=0.7,fr-FR;q=0.6,fr;q=0.5","true","619","tones/880hz_short.mp3","s","","","tone_number_task","992.5","cincuenta y uno","tones/880hz_short.mp3","1142.5","60","2","30",""
"","","","","","html-keyboard-response","172","292579","0.0-207.0-0.0","29","1","2023-10-24 17:52:08","a725c3012b74bf33a1020a98cb69c237","181.231.6.41","Mozilla/5.0 (Windows NT 10.0; Win64; x64) AppleWebKit/537.36 (KHTML, like Gecko) Chrome/118.0.0.0 Safari/537.36","WebKit","Chrome","118.0.0.0","Windows","10.0","null","en-US,en;q=0.9,es-AR;q=0.8,es;q=0.7,fr-FR;q=0.6,fr;q=0.5","true","null","","null","","","delay_block","","","","","","2","30",""
"","","","","","html-keyboard-response","173","292738","0.0-207.0-1.0","29","1","2023-10-24 17:52:08","a725c3012b74bf33a1020a98cb69c237","181.231.6.41","Mozilla/5.0 (Windows NT 10.0; Win64; x64) AppleWebKit/537.36 (KHTML, like Gecko) Chrome/118.0.0.0 Safari/537.36","WebKit","Chrome","118.0.0.0","Windows","10.0","null","en-US,en;q=0.9,es-AR;q=0.8,es;q=0.7,fr-FR;q=0.6,fr;q=0.5","true","null","<p id=""stimulus"" style=""font-size:60px;"">cincuenta y uno</p>","null","","","tone_number_task_remaining_before_delay","","cincuenta y uno","","523.5","60","2","30",""
"","","","","","html-keyboard-response","174","293534","0.0-210.0-0.0","29","1","2023-10-24 17:52:08","a725c3012b74bf33a1020a98cb69c237","181.231.6.41","Mozilla/5.0 (Windows NT 10.0; Win64; x64) AppleWebKit/537.36 (KHTML, like Gecko) Chrome/118.0.0.0 Safari/537.36","WebKit","Chrome","118.0.0.0","Windows","10.0","null","en-US,en;q=0.9,es-AR;q=0.8,es;q=0.7,fr-FR;q=0.6,fr;q=0.5","true","789","<p id=""stimulus"" style=""font-size:60px;"">cincuenta y uno</p>","k","","","empty_block","","cincuenta y uno","","","","2","30",""
"","","","","","html-keyboard-response","175","296306","0.0-211.0","29","1","2023-10-24 17:52:08","a725c3012b74bf33a1020a98cb69c237","181.231.6.41","Mozilla/5.0 (Windows NT 10.0; Win64; x64) AppleWebKit/537.36 (KHTML, like Gecko) Chrome/118.0.0.0 Safari/537.36","WebKit","Chrome","118.0.0.0","Windows","10.0","null","en-US,en;q=0.9,es-AR;q=0.8,es;q=0.7,fr-FR;q=0.6,fr;q=0.5","true","null","<div style=""font-size:100px;"">X</div>","null","","","fixation","","","","","","","",""
"","","","","","audio-keyboard-response","176","297061","0.0-212.0","29","1","2023-10-24 17:52:08","a725c3012b74bf33a1020a98cb69c237","181.231.6.41","Mozilla/5.0 (Windows NT 10.0; Win64; x64) AppleWebKit/537.36 (KHTML, like Gecko) Chrome/118.0.0.0 Safari/537.36","WebKit","Chrome","118.0.0.0","Windows","10.0","null","en-US,en;q=0.9,es-AR;q=0.8,es;q=0.7,fr-FR;q=0.6,fr;q=0.5","true","741","tones/440hz_short.mp3","a","","","tone_number_task","992.5","cincuenta y cuatro","tones/440hz_short.mp3","1142.5","60","2","31",""
"","","","","","html-keyboard-response","177","297325","0.0-213.0-0.0","29","1","2023-10-24 17:52:08","a725c3012b74bf33a1020a98cb69c237","181.231.6.41","Mozilla/5.0 (Windows NT 10.0; Win64; x64) AppleWebKit/537.36 (KHTML, like Gecko) Chrome/118.0.0.0 Safari/537.36","WebKit","Chrome","118.0.0.0","Windows","10.0","null","en-US,en;q=0.9,es-AR;q=0.8,es;q=0.7,fr-FR;q=0.6,fr;q=0.5","true","null","","null","","","delay_block","","","","","","2","31",""
"","","","","","html-keyboard-response","178","297488","0.0-213.0-1.0","29","1","2023-10-24 17:52:08","a725c3012b74bf33a1020a98cb69c237","181.231.6.41","Mozilla/5.0 (Windows NT 10.0; Win64; x64) AppleWebKit/537.36 (KHTML, like Gecko) Chrome/118.0.0.0 Safari/537.36","WebKit","Chrome","118.0.0.0","Windows","10.0","null","en-US,en;q=0.9,es-AR;q=0.8,es;q=0.7,fr-FR;q=0.6,fr;q=0.5","true","null","<p id=""stimulus"" style=""font-size:60px;"">cincuenta y cuatro</p>","null","","","tone_number_task_remaining_before_delay","","cincuenta y cuatro","","401.5","60","2","31",""
"","","","","","html-keyboard-response","179","297957","0.0-216.0-0.0","29","1","2023-10-24 17:52:08","a725c3012b74bf33a1020a98cb69c237","181.231.6.41","Mozilla/5.0 (Windows NT 10.0; Win64; x64) AppleWebKit/537.36 (KHTML, like Gecko) Chrome/118.0.0.0 Safari/537.36","WebKit","Chrome","118.0.0.0","Windows","10.0","null","en-US,en;q=0.9,es-AR;q=0.8,es;q=0.7,fr-FR;q=0.6,fr;q=0.5","true","458","<p id=""stimulus"" style=""font-size:60px;"">cincuenta y cuatro</p>","k","","","empty_block","","cincuenta y cuatro","","","","2","31",""
"","","","","","html-keyboard-response","180","300729","0.0-217.0","29","1","2023-10-24 17:52:08","a725c3012b74bf33a1020a98cb69c237","181.231.6.41","Mozilla/5.0 (Windows NT 10.0; Win64; x64) AppleWebKit/537.36 (KHTML, like Gecko) Chrome/118.0.0.0 Safari/537.36","WebKit","Chrome","118.0.0.0","Windows","10.0","null","en-US,en;q=0.9,es-AR;q=0.8,es;q=0.7,fr-FR;q=0.6,fr;q=0.5","true","null","<div style=""font-size:100px;"">X</div>","null","","","fixation","","","","","","","",""
"","","","","","audio-keyboard-response","181","300992","0.0-218.0","29","1","2023-10-24 17:52:08","a725c3012b74bf33a1020a98cb69c237","181.231.6.41","Mozilla/5.0 (Windows NT 10.0; Win64; x64) AppleWebKit/537.36 (KHTML, like Gecko) Chrome/118.0.0.0 Safari/537.36","WebKit","Chrome","118.0.0.0","Windows","10.0","null","en-US,en;q=0.9,es-AR;q=0.8,es;q=0.7,fr-FR;q=0.6,fr;q=0.5","true","null","tones/880hz_short.mp3","null","","","tone_number_task","102.5","treinta y nueve","tones/880hz_short.mp3","252.5","60","2","32",""
"","","","","","html-keyboard-response","182","301214","0.0-221.0-0.0","29","1","2023-10-24 17:52:08","a725c3012b74bf33a1020a98cb69c237","181.231.6.41","Mozilla/5.0 (Windows NT 10.0; Win64; x64) AppleWebKit/537.36 (KHTML, like Gecko) Chrome/118.0.0.0 Safari/537.36","WebKit","Chrome","118.0.0.0","Windows","10.0","null","en-US,en;q=0.9,es-AR;q=0.8,es;q=0.7,fr-FR;q=0.6,fr;q=0.5","true","210","tones/880hz_short.mp3","s","","","empty_block","","treinta y nueve","","","","2","32",""
"","","","","","html-keyboard-response","183","301605","0.0-221.0-1.0","29","1","2023-10-24 17:52:08","a725c3012b74bf33a1020a98cb69c237","181.231.6.41","Mozilla/5.0 (Windows NT 10.0; Win64; x64) AppleWebKit/537.36 (KHTML, like Gecko) Chrome/118.0.0.0 Safari/537.36","WebKit","Chrome","118.0.0.0","Windows","10.0","null","en-US,en;q=0.9,es-AR;q=0.8,es;q=0.7,fr-FR;q=0.6,fr;q=0.5","true","379","tones/880hz_short.mp3","j","","","empty_block","","treinta y nueve","","","","2","32",""
"","","","","","html-keyboard-response","184","304375","0.0-223.0","29","1","2023-10-24 17:52:08","a725c3012b74bf33a1020a98cb69c237","181.231.6.41","Mozilla/5.0 (Windows NT 10.0; Win64; x64) AppleWebKit/537.36 (KHTML, like Gecko) Chrome/118.0.0.0 Safari/537.36","WebKit","Chrome","118.0.0.0","Windows","10.0","null","en-US,en;q=0.9,es-AR;q=0.8,es;q=0.7,fr-FR;q=0.6,fr;q=0.5","true","null","<div style=""font-size:100px;"">X</div>","null","","","fixation","","","","","","","",""
"","","","","","audio-keyboard-response","185","305428","0.0-224.0","29","1","2023-10-24 17:52:08","a725c3012b74bf33a1020a98cb69c237","181.231.6.41","Mozilla/5.0 (Windows NT 10.0; Win64; x64) AppleWebKit/537.36 (KHTML, like Gecko) Chrome/118.0.0.0 Safari/537.36","WebKit","Chrome","118.0.0.0","Windows","10.0","null","en-US,en;q=0.9,es-AR;q=0.8,es;q=0.7,fr-FR;q=0.6,fr;q=0.5","true","1040","tones/880hz_short.mp3","s","","","tone_number_task","1025","sesenta y cinco","tones/880hz_short.mp3","1175","60","2","33",""
"","","","","","html-keyboard-response","186","305571","0.0-226.0-0.0","29","1","2023-10-24 17:52:08","a725c3012b74bf33a1020a98cb69c237","181.231.6.41","Mozilla/5.0 (Windows NT 10.0; Win64; x64) AppleWebKit/537.36 (KHTML, like Gecko) Chrome/118.0.0.0 Safari/537.36","WebKit","Chrome","118.0.0.0","Windows","10.0","null","en-US,en;q=0.9,es-AR;q=0.8,es;q=0.7,fr-FR;q=0.6,fr;q=0.5","true","null","<p id=""stimulus"" style=""font-size:60px;"">sesenta y cinco</p>","null","","","tone_number_task_remaining_after_delay","","sesenta y cinco","","","60","2","33",""
"","","","","","html-keyboard-response","187","306509","0.0-228.0-0.0","29","1","2023-10-24 17:52:08","a725c3012b74bf33a1020a98cb69c237","181.231.6.41","Mozilla/5.0 (Windows NT 10.0; Win64; x64) AppleWebKit/537.36 (KHTML, like Gecko) Chrome/118.0.0.0 Safari/537.36","WebKit","Chrome","118.0.0.0","Windows","10.0","null","en-US,en;q=0.9,es-AR;q=0.8,es;q=0.7,fr-FR;q=0.6,fr;q=0.5","true","933","<p id=""stimulus"" style=""font-size:60px;"">sesenta y cinco</p>","k","","","empty_block","","sesenta y cinco","","","","2","33",""
"","","","","","html-keyboard-response","188","309281","0.0-229.0","29","1","2023-10-24 17:52:08","a725c3012b74bf33a1020a98cb69c237","181.231.6.41","Mozilla/5.0 (Windows NT 10.0; Win64; x64) AppleWebKit/537.36 (KHTML, like Gecko) Chrome/118.0.0.0 Safari/537.36","WebKit","Chrome","118.0.0.0","Windows","10.0","null","en-US,en;q=0.9,es-AR;q=0.8,es;q=0.7,fr-FR;q=0.6,fr;q=0.5","true","null","<div style=""font-size:100px;"">X</div>","null","","","fixation","","","","","","","",""
"","","","","","audio-keyboard-response","189","309773","0.0-230.0","29","1","2023-10-24 17:52:08","a725c3012b74bf33a1020a98cb69c237","181.231.6.41","Mozilla/5.0 (Windows NT 10.0; Win64; x64) AppleWebKit/537.36 (KHTML, like Gecko) Chrome/118.0.0.0 Safari/537.36","WebKit","Chrome","118.0.0.0","Windows","10.0","null","en-US,en;q=0.9,es-AR;q=0.8,es;q=0.7,fr-FR;q=0.6,fr;q=0.5","true","469","tones/880hz_short.mp3","s","","","tone_number_task","992.5","sesenta y siete","tones/880hz_short.mp3","1142.5","60","2","34",""
"","","","","","html-keyboard-response","190","310313","0.0-231.0-0.0","29","1","2023-10-24 17:52:08","a725c3012b74bf33a1020a98cb69c237","181.231.6.41","Mozilla/5.0 (Windows NT 10.0; Win64; x64) AppleWebKit/537.36 (KHTML, like Gecko) Chrome/118.0.0.0 Safari/537.36","WebKit","Chrome","118.0.0.0","Windows","10.0","null","en-US,en;q=0.9,es-AR;q=0.8,es;q=0.7,fr-FR;q=0.6,fr;q=0.5","true","null","","null","","","delay_block","","","","","","2","34",""
"","","","","","html-keyboard-response","191","310479","0.0-231.0-1.0","29","1","2023-10-24 17:52:08","a725c3012b74bf33a1020a98cb69c237","181.231.6.41","Mozilla/5.0 (Windows NT 10.0; Win64; x64) AppleWebKit/537.36 (KHTML, like Gecko) Chrome/118.0.0.0 Safari/537.36","WebKit","Chrome","118.0.0.0","Windows","10.0","null","en-US,en;q=0.9,es-AR;q=0.8,es;q=0.7,fr-FR;q=0.6,fr;q=0.5","true","null","<p id=""stimulus"" style=""font-size:60px;"">sesenta y siete</p>","null","","","tone_number_task_remaining_before_delay","","sesenta y siete","","673.5","60","2","34",""
"","","","","","html-keyboard-response","192","311021","0.0-234.0-0.0","29","1","2023-10-24 17:52:08","a725c3012b74bf33a1020a98cb69c237","181.231.6.41","Mozilla/5.0 (Windows NT 10.0; Win64; x64) AppleWebKit/537.36 (KHTML, like Gecko) Chrome/118.0.0.0 Safari/537.36","WebKit","Chrome","118.0.0.0","Windows","10.0","null","en-US,en;q=0.9,es-AR;q=0.8,es;q=0.7,fr-FR;q=0.6,fr;q=0.5","true","526","<p id=""stimulus"" style=""font-size:60px;"">sesenta y siete</p>","k","","","empty_block","","sesenta y siete","","","","2","34",""
"","","","","","html-keyboard-response","193","313793","0.0-235.0","29","1","2023-10-24 17:52:08","a725c3012b74bf33a1020a98cb69c237","181.231.6.41","Mozilla/5.0 (Windows NT 10.0; Win64; x64) AppleWebKit/537.36 (KHTML, like Gecko) Chrome/118.0.0.0 Safari/537.36","WebKit","Chrome","118.0.0.0","Windows","10.0","null","en-US,en;q=0.9,es-AR;q=0.8,es;q=0.7,fr-FR;q=0.6,fr;q=0.5","true","null","<div style=""font-size:100px;"">X</div>","null","","","fixation","","","","","","","",""
"","","","","","audio-keyboard-response","194","314172","0.0-236.0","29","1","2023-10-24 17:52:08","a725c3012b74bf33a1020a98cb69c237","181.231.6.41","Mozilla/5.0 (Windows NT 10.0; Win64; x64) AppleWebKit/537.36 (KHTML, like Gecko) Chrome/118.0.0.0 Safari/537.36","WebKit","Chrome","118.0.0.0","Windows","10.0","null","en-US,en;q=0.9,es-AR;q=0.8,es;q=0.7,fr-FR;q=0.6,fr;q=0.5","true","371","tones/880hz_short.mp3","s","","","tone_number_task","1025","cuarenta y ocho","tones/880hz_short.mp3","1175","60","2","35",""
"","","","","","html-keyboard-response","195","314836","0.0-237.0-0.0","29","1","2023-10-24 17:52:08","a725c3012b74bf33a1020a98cb69c237","181.231.6.41","Mozilla/5.0 (Windows NT 10.0; Win64; x64) AppleWebKit/537.36 (KHTML, like Gecko) Chrome/118.0.0.0 Safari/537.36","WebKit","Chrome","118.0.0.0","Windows","10.0","null","en-US,en;q=0.9,es-AR;q=0.8,es;q=0.7,fr-FR;q=0.6,fr;q=0.5","true","null","","null","","","delay_block","","","","","","2","35",""
"","","","","","html-keyboard-response","196","315002","0.0-237.0-1.0","29","1","2023-10-24 17:52:08","a725c3012b74bf33a1020a98cb69c237","181.231.6.41","Mozilla/5.0 (Windows NT 10.0; Win64; x64) AppleWebKit/537.36 (KHTML, like Gecko) Chrome/118.0.0.0 Safari/537.36","WebKit","Chrome","118.0.0.0","Windows","10.0","null","en-US,en;q=0.9,es-AR;q=0.8,es;q=0.7,fr-FR;q=0.6,fr;q=0.5","true","null","<p id=""stimulus"" style=""font-size:60px;"">cuarenta y ocho</p>","null","","","tone_number_task_remaining_before_delay","","cuarenta y ocho","","804","60","2","35",""
"","","","","","html-keyboard-response","197","315654","0.0-240.0-0.0","29","1","2023-10-24 17:52:08","a725c3012b74bf33a1020a98cb69c237","181.231.6.41","Mozilla/5.0 (Windows NT 10.0; Win64; x64) AppleWebKit/537.36 (KHTML, like Gecko) Chrome/118.0.0.0 Safari/537.36","WebKit","Chrome","118.0.0.0","Windows","10.0","null","en-US,en;q=0.9,es-AR;q=0.8,es;q=0.7,fr-FR;q=0.6,fr;q=0.5","true","639","<p id=""stimulus"" style=""font-size:60px;"">cuarenta y ocho</p>","k","","","empty_block","","cuarenta y ocho","","","","2","35",""
"","","","","","html-keyboard-response","198","318427","0.0-241.0","29","1","2023-10-24 17:52:08","a725c3012b74bf33a1020a98cb69c237","181.231.6.41","Mozilla/5.0 (Windows NT 10.0; Win64; x64) AppleWebKit/537.36 (KHTML, like Gecko) Chrome/118.0.0.0 Safari/537.36","WebKit","Chrome","118.0.0.0","Windows","10.0","null","en-US,en;q=0.9,es-AR;q=0.8,es;q=0.7,fr-FR;q=0.6,fr;q=0.5","true","null","<div style=""font-size:100px;"">X</div>","null","","","fixation","","","","","","","",""
