"success","timeout","failed_images","failed_audio","failed_video","trial_type","trial_index","time_elapsed","internal_node_id","run_id","condition","recorded_at","source_code_version","ip","user_agent","device","browser","browser_version","platform","platform_version","referer","accept_language","check","rt","stimulus","response","question_order","url","task","delay","number","audioFile","trial_duration","font_size","block","round","value"
"true","false","[]","[]","[]","preload","0","403","0.0-0.0","29","1","2023-10-31 21:00:38","a725c3012b74bf33a1020a98cb69c237","186.13.122.31","Mozilla/5.0 (Windows NT 10.0; Win64; x64) AppleWebKit/537.36 (KHTML, like Gecko) Chrome/118.0.0.0 Safari/537.36","WebKit","Chrome","118.0.0.0","Windows","10.0","null","es-AR,es;q=0.9,en-US;q=0.8,en;q=0.7","true","","","","","","","","","","","","","",""
"true","","","","","fullscreen","1","9727","0.0-1.0","29","1","2023-10-31 21:00:38","a725c3012b74bf33a1020a98cb69c237","186.13.122.31","Mozilla/5.0 (Windows NT 10.0; Win64; x64) AppleWebKit/537.36 (KHTML, like Gecko) Chrome/118.0.0.0 Safari/537.36","WebKit","Chrome","118.0.0.0","Windows","10.0","null","es-AR,es;q=0.9,en-US;q=0.8,en;q=0.7","true","","","","","","","","","","","","","",""
"","","","","","html-button-response","2","13177","0.0-2.0","29","1","2023-10-31 21:00:38","a725c3012b74bf33a1020a98cb69c237","186.13.122.31","Mozilla/5.0 (Windows NT 10.0; Win64; x64) AppleWebKit/537.36 (KHTML, like Gecko) Chrome/118.0.0.0 Safari/537.36","WebKit","Chrome","118.0.0.0","Windows","10.0","null","es-AR,es;q=0.9,en-US;q=0.8,en;q=0.7","true","3447","<p style=""font-size:24px; color:red;"">Cosas importantes a tener en cuenta antes de comenzar el experimento:</p>","0","","","","","","","","","","",""
"","","","","","html-button-response","3","20206","0.0-3.0","29","1","2023-10-31 21:00:38","a725c3012b74bf33a1020a98cb69c237","186.13.122.31","Mozilla/5.0 (Windows NT 10.0; Win64; x64) AppleWebKit/537.36 (KHTML, like Gecko) Chrome/118.0.0.0 Safari/537.36","WebKit","Chrome","118.0.0.0","Windows","10.0","null","es-AR,es;q=0.9,en-US;q=0.8,en;q=0.7","true","7027","<p style=""font-size:24px;"">El experimento dura aproximadamente 15 minutos.</p><p style=""font-size:24px;"">Por favor, no cierres la ventana del navegador durante el experimento.</p><p style=""font-size:24px;"">Si se completa de forma parcial, no se guardará ningún resultado.</p>","0","","","","","","","","","","",""
"","","","","","html-button-response","4","23127","0.0-4.0","29","1","2023-10-31 21:00:38","a725c3012b74bf33a1020a98cb69c237","186.13.122.31","Mozilla/5.0 (Windows NT 10.0; Win64; x64) AppleWebKit/537.36 (KHTML, like Gecko) Chrome/118.0.0.0 Safari/537.36","WebKit","Chrome","118.0.0.0","Windows","10.0","null","es-AR,es;q=0.9,en-US;q=0.8,en;q=0.7","true","2920","<p style=""font-size:24px;"">El experimento contiene estímulos sonoros.</p>","0","","","","","","","","","","",""
"","","","","","audio-button-response","5","25696","0.0-5.0-0.0","29","1","2023-10-31 21:00:38","a725c3012b74bf33a1020a98cb69c237","186.13.122.31","Mozilla/5.0 (Windows NT 10.0; Win64; x64) AppleWebKit/537.36 (KHTML, like Gecko) Chrome/118.0.0.0 Safari/537.36","WebKit","Chrome","118.0.0.0","Windows","10.0","null","es-AR,es;q=0.9,en-US;q=0.8,en;q=0.7","true","2540","tones/440hz_short.mp3","0","","","","","","","","","","",""
"","","","","","audio-button-response","6","33109","0.0-5.1-0.1","29","1","2023-10-31 21:00:38","a725c3012b74bf33a1020a98cb69c237","186.13.122.31","Mozilla/5.0 (Windows NT 10.0; Win64; x64) AppleWebKit/537.36 (KHTML, like Gecko) Chrome/118.0.0.0 Safari/537.36","WebKit","Chrome","118.0.0.0","Windows","10.0","null","es-AR,es;q=0.9,en-US;q=0.8,en;q=0.7","true","7410","tones/440hz_short.mp3","0","","","","","","","","","","",""
"","","","","","audio-button-response","7","34591","0.0-5.2-0.2","29","1","2023-10-31 21:00:38","a725c3012b74bf33a1020a98cb69c237","186.13.122.31","Mozilla/5.0 (Windows NT 10.0; Win64; x64) AppleWebKit/537.36 (KHTML, like Gecko) Chrome/118.0.0.0 Safari/537.36","WebKit","Chrome","118.0.0.0","Windows","10.0","null","es-AR,es;q=0.9,en-US;q=0.8,en;q=0.7","true","1480","tones/440hz_short.mp3","1","","","","","","","","","","",""
"","","","","","audio-button-response","8","38365","0.0-6.0-0.0","29","1","2023-10-31 21:00:38","a725c3012b74bf33a1020a98cb69c237","186.13.122.31","Mozilla/5.0 (Windows NT 10.0; Win64; x64) AppleWebKit/537.36 (KHTML, like Gecko) Chrome/118.0.0.0 Safari/537.36","WebKit","Chrome","118.0.0.0","Windows","10.0","null","es-AR,es;q=0.9,en-US;q=0.8,en;q=0.7","true","3770","tones/880hz_short.mp3","0","","","","","","","","","","",""
"","","","","","audio-button-response","9","39198","0.0-6.1-0.1","29","1","2023-10-31 21:00:38","a725c3012b74bf33a1020a98cb69c237","186.13.122.31","Mozilla/5.0 (Windows NT 10.0; Win64; x64) AppleWebKit/537.36 (KHTML, like Gecko) Chrome/118.0.0.0 Safari/537.36","WebKit","Chrome","118.0.0.0","Windows","10.0","null","es-AR,es;q=0.9,en-US;q=0.8,en;q=0.7","true","830","tones/880hz_short.mp3","1","","","","","","","","","","",""
"","","","","","survey-html-form","10","42803","0.0-7.0","29","1","2023-10-31 21:00:38","a725c3012b74bf33a1020a98cb69c237","186.13.122.31","Mozilla/5.0 (Windows NT 10.0; Win64; x64) AppleWebKit/537.36 (KHTML, like Gecko) Chrome/118.0.0.0 Safari/537.36","WebKit","Chrome","118.0.0.0","Windows","10.0","null","es-AR,es;q=0.9,en-US;q=0.8,en;q=0.7","true","3600","","{""response"":""38""}","","","","","","","","","","",""
"","","","","","survey-multi-choice","11","50402","0.0-8.0","29","1","2023-10-31 21:00:38","a725c3012b74bf33a1020a98cb69c237","186.13.122.31","Mozilla/5.0 (Windows NT 10.0; Win64; x64) AppleWebKit/537.36 (KHTML, like Gecko) Chrome/118.0.0.0 Safari/537.36","WebKit","Chrome","118.0.0.0","Windows","10.0","null","es-AR,es;q=0.9,en-US;q=0.8,en;q=0.7","true","7597","","{""gender"":""Hombre"",""hand"":""Derecha""}","[0,1]","","","","","","","","","",""
"","","","","","external-html","12","150848","0.0-9.0","29","1","2023-10-31 21:00:38","a725c3012b74bf33a1020a98cb69c237","186.13.122.31","Mozilla/5.0 (Windows NT 10.0; Win64; x64) AppleWebKit/537.36 (KHTML, like Gecko) Chrome/118.0.0.0 Safari/537.36","WebKit","Chrome","118.0.0.0","Windows","10.0","null","es-AR,es;q=0.9,en-US;q=0.8,en;q=0.7","true","100151","","","","instructions/instructions.html","","","","","","","","",""
"","","","","","external-html","13","211086","0.0-10.0","29","1","2023-10-31 21:00:38","a725c3012b74bf33a1020a98cb69c237","186.13.122.31","Mozilla/5.0 (Windows NT 10.0; Win64; x64) AppleWebKit/537.36 (KHTML, like Gecko) Chrome/118.0.0.0 Safari/537.36","WebKit","Chrome","118.0.0.0","Windows","10.0","null","es-AR,es;q=0.9,en-US;q=0.8,en;q=0.7","true","59940","","","","instructions/animation.html","","","","","","","","",""
"","","","","","html-keyboard-response","14","213998","0.0-11.0-0.0","29","1","2023-10-31 21:00:38","a725c3012b74bf33a1020a98cb69c237","186.13.122.31","Mozilla/5.0 (Windows NT 10.0; Win64; x64) AppleWebKit/537.36 (KHTML, like Gecko) Chrome/118.0.0.0 Safari/537.36","WebKit","Chrome","118.0.0.0","Windows","10.0","null","es-AR,es;q=0.9,en-US;q=0.8,en;q=0.7","true","null","<div style=""font-size:100px;"">X</div>","null","","","fixation","","","","","","","",""
"","","","","","audio-keyboard-response","15","215055","0.0-11.0-1.0","29","1","2023-10-31 21:00:38","a725c3012b74bf33a1020a98cb69c237","186.13.122.31","Mozilla/5.0 (Windows NT 10.0; Win64; x64) AppleWebKit/537.36 (KHTML, like Gecko) Chrome/118.0.0.0 Safari/537.36","WebKit","Chrome","118.0.0.0","Windows","10.0","null","es-AR,es;q=0.9,en-US;q=0.8,en;q=0.7","true","1039","tones/880hz_short.mp3","a","","","tone_number_task","1000","54","tones/880hz_short.mp3","1150","100","null","null",""
"","","","","","html-keyboard-response","16","215168","0.0-11.0-3.0-0.0","29","1","2023-10-31 21:00:38","a725c3012b74bf33a1020a98cb69c237","186.13.122.31","Mozilla/5.0 (Windows NT 10.0; Win64; x64) AppleWebKit/537.36 (KHTML, like Gecko) Chrome/118.0.0.0 Safari/537.36","WebKit","Chrome","118.0.0.0","Windows","10.0","null","es-AR,es;q=0.9,en-US;q=0.8,en;q=0.7","true","null","<p id=""stimulus"" style=""font-size:100px;"">54</p>","null","","","tone_number_task_remaining_after_delay","","54","","","100","null","null",""
"","","","","","html-keyboard-response","17","216398","0.0-11.0-5.0-0.0","29","1","2023-10-31 21:00:38","a725c3012b74bf33a1020a98cb69c237","186.13.122.31","Mozilla/5.0 (Windows NT 10.0; Win64; x64) AppleWebKit/537.36 (KHTML, like Gecko) Chrome/118.0.0.0 Safari/537.36","WebKit","Chrome","118.0.0.0","Windows","10.0","null","es-AR,es;q=0.9,en-US;q=0.8,en;q=0.7","true","1227","<p id=""stimulus"" style=""font-size:100px;"">54</p>","j","","","empty_block","","54","","","","null","null",""
"","","","","","html-button-response","18","222583","0.0-11.0-6.0-0.0","29","1","2023-10-31 21:00:38","a725c3012b74bf33a1020a98cb69c237","186.13.122.31","Mozilla/5.0 (Windows NT 10.0; Win64; x64) AppleWebKit/537.36 (KHTML, like Gecko) Chrome/118.0.0.0 Safari/537.36","WebKit","Chrome","118.0.0.0","Windows","10.0","null","es-AR,es;q=0.9,en-US;q=0.8,en;q=0.7","true","6184","
  '<p style=""font-size:24px; color:red;"">Incorrecto</p><p> Respondiste alguno de los estímulos de manera incorrecta.</p><p>Por favor, repasá las instrucciones y seguimos desde donde nos quedamos. </p>
  ","0","","","","","","","","","","",""
"","","","","","external-html","19","233986","0.0-11.0-6.0-1.0","29","1","2023-10-31 21:00:38","a725c3012b74bf33a1020a98cb69c237","186.13.122.31","Mozilla/5.0 (Windows NT 10.0; Win64; x64) AppleWebKit/537.36 (KHTML, like Gecko) Chrome/118.0.0.0 Safari/537.36","WebKit","Chrome","118.0.0.0","Windows","10.0","null","es-AR,es;q=0.9,en-US;q=0.8,en;q=0.7","true","11107","","","","instructions/instructions_B.html","","","","","","","","",""
"","","","","","html-keyboard-response","20","236899","0.0-11.1-0.1","29","1","2023-10-31 21:00:38","a725c3012b74bf33a1020a98cb69c237","186.13.122.31","Mozilla/5.0 (Windows NT 10.0; Win64; x64) AppleWebKit/537.36 (KHTML, like Gecko) Chrome/118.0.0.0 Safari/537.36","WebKit","Chrome","118.0.0.0","Windows","10.0","null","es-AR,es;q=0.9,en-US;q=0.8,en;q=0.7","true","null","<div style=""font-size:100px;"">X</div>","null","","","fixation","","","","","","","",""
"","","","","","audio-keyboard-response","21","238051","0.0-11.1-1.1","29","1","2023-10-31 21:00:38","a725c3012b74bf33a1020a98cb69c237","186.13.122.31","Mozilla/5.0 (Windows NT 10.0; Win64; x64) AppleWebKit/537.36 (KHTML, like Gecko) Chrome/118.0.0.0 Safari/537.36","WebKit","Chrome","118.0.0.0","Windows","10.0","null","es-AR,es;q=0.9,en-US;q=0.8,en;q=0.7","true","null","tones/880hz_short.mp3","null","","","tone_number_task","1000","54","tones/880hz_short.mp3","1150","100","null","null",""
"","","","","","html-keyboard-response","22","243447","0.0-11.1-4.1-0.1","29","1","2023-10-31 21:00:38","a725c3012b74bf33a1020a98cb69c237","186.13.122.31","Mozilla/5.0 (Windows NT 10.0; Win64; x64) AppleWebKit/537.36 (KHTML, like Gecko) Chrome/118.0.0.0 Safari/537.36","WebKit","Chrome","118.0.0.0","Windows","10.0","null","es-AR,es;q=0.9,en-US;q=0.8,en;q=0.7","true","5395","tones/880hz_short.mp3","s","","","empty_block","","54","","","","null","null",""
"","","","","","html-keyboard-response","23","244408","0.0-11.1-4.1-1.1","29","1","2023-10-31 21:00:38","a725c3012b74bf33a1020a98cb69c237","186.13.122.31","Mozilla/5.0 (Windows NT 10.0; Win64; x64) AppleWebKit/537.36 (KHTML, like Gecko) Chrome/118.0.0.0 Safari/537.36","WebKit","Chrome","118.0.0.0","Windows","10.0","null","es-AR,es;q=0.9,en-US;q=0.8,en;q=0.7","true","960","tones/880hz_short.mp3","k","","","empty_block","","54","","","","null","null",""
"","","","","","html-keyboard-response","24","247319","0.0-13.0-0.0","29","1","2023-10-31 21:00:38","a725c3012b74bf33a1020a98cb69c237","186.13.122.31","Mozilla/5.0 (Windows NT 10.0; Win64; x64) AppleWebKit/537.36 (KHTML, like Gecko) Chrome/118.0.0.0 Safari/537.36","WebKit","Chrome","118.0.0.0","Windows","10.0","null","es-AR,es;q=0.9,en-US;q=0.8,en;q=0.7","true","null","<div style=""font-size:100px;"">X</div>","null","","","fixation","","","","","","","",""
"","","","","","audio-keyboard-response","25","247971","0.0-13.0-1.0","29","1","2023-10-31 21:00:38","a725c3012b74bf33a1020a98cb69c237","186.13.122.31","Mozilla/5.0 (Windows NT 10.0; Win64; x64) AppleWebKit/537.36 (KHTML, like Gecko) Chrome/118.0.0.0 Safari/537.36","WebKit","Chrome","118.0.0.0","Windows","10.0","null","es-AR,es;q=0.9,en-US;q=0.8,en;q=0.7","true","null","tones/440hz_short.mp3","null","","","tone_number_task","500","21","tones/440hz_short.mp3","650","100","null","null",""
"","","","","","html-keyboard-response","26","248223","0.0-13.0-4.0-0.0","29","1","2023-10-31 21:00:38","a725c3012b74bf33a1020a98cb69c237","186.13.122.31","Mozilla/5.0 (Windows NT 10.0; Win64; x64) AppleWebKit/537.36 (KHTML, like Gecko) Chrome/118.0.0.0 Safari/537.36","WebKit","Chrome","118.0.0.0","Windows","10.0","null","es-AR,es;q=0.9,en-US;q=0.8,en;q=0.7","true","250","tones/440hz_short.mp3","a","","","empty_block","","21","","","","null","null",""
"","","","","","html-keyboard-response","27","248919","0.0-13.0-4.0-1.0","29","1","2023-10-31 21:00:38","a725c3012b74bf33a1020a98cb69c237","186.13.122.31","Mozilla/5.0 (Windows NT 10.0; Win64; x64) AppleWebKit/537.36 (KHTML, like Gecko) Chrome/118.0.0.0 Safari/537.36","WebKit","Chrome","118.0.0.0","Windows","10.0","null","es-AR,es;q=0.9,en-US;q=0.8,en;q=0.7","true","695","tones/440hz_short.mp3","j","","","empty_block","","21","","","","null","null",""
"","","","","","html-keyboard-response","28","251829","0.0-15.0-0.0","29","1","2023-10-31 21:00:38","a725c3012b74bf33a1020a98cb69c237","186.13.122.31","Mozilla/5.0 (Windows NT 10.0; Win64; x64) AppleWebKit/537.36 (KHTML, like Gecko) Chrome/118.0.0.0 Safari/537.36","WebKit","Chrome","118.0.0.0","Windows","10.0","null","es-AR,es;q=0.9,en-US;q=0.8,en;q=0.7","true","null","<div style=""font-size:100px;"">X</div>","null","","","fixation","","","","","","","",""
"","","","","","audio-keyboard-response","29","252131","0.0-15.0-1.0","29","1","2023-10-31 21:00:38","a725c3012b74bf33a1020a98cb69c237","186.13.122.31","Mozilla/5.0 (Windows NT 10.0; Win64; x64) AppleWebKit/537.36 (KHTML, like Gecko) Chrome/118.0.0.0 Safari/537.36","WebKit","Chrome","118.0.0.0","Windows","10.0","null","es-AR,es;q=0.9,en-US;q=0.8,en;q=0.7","true","null","tones/880hz_short.mp3","null","","","tone_number_task","150","51","tones/880hz_short.mp3","300","100","null","null",""
"","","","","","html-keyboard-response","30","252816","0.0-15.0-4.0-0.0","29","1","2023-10-31 21:00:38","a725c3012b74bf33a1020a98cb69c237","186.13.122.31","Mozilla/5.0 (Windows NT 10.0; Win64; x64) AppleWebKit/537.36 (KHTML, like Gecko) Chrome/118.0.0.0 Safari/537.36","WebKit","Chrome","118.0.0.0","Windows","10.0","null","es-AR,es;q=0.9,en-US;q=0.8,en;q=0.7","true","683","tones/880hz_short.mp3","s","","","empty_block","","51","","","","null","null",""
"","","","","","html-keyboard-response","31","253064","0.0-15.0-4.0-1.0","29","1","2023-10-31 21:00:38","a725c3012b74bf33a1020a98cb69c237","186.13.122.31","Mozilla/5.0 (Windows NT 10.0; Win64; x64) AppleWebKit/537.36 (KHTML, like Gecko) Chrome/118.0.0.0 Safari/537.36","WebKit","Chrome","118.0.0.0","Windows","10.0","null","es-AR,es;q=0.9,en-US;q=0.8,en;q=0.7","true","246","tones/880hz_short.mp3","k","","","empty_block","","51","","","","null","null",""
"","","","","","html-keyboard-response","32","255973","0.0-17.0-0.0","29","1","2023-10-31 21:00:38","a725c3012b74bf33a1020a98cb69c237","186.13.122.31","Mozilla/5.0 (Windows NT 10.0; Win64; x64) AppleWebKit/537.36 (KHTML, like Gecko) Chrome/118.0.0.0 Safari/537.36","WebKit","Chrome","118.0.0.0","Windows","10.0","null","es-AR,es;q=0.9,en-US;q=0.8,en;q=0.7","true","null","<div style=""font-size:100px;"">X</div>","null","","","fixation","","","","","","","",""
"","","","","","audio-keyboard-response","33","256175","0.0-17.0-1.0","29","1","2023-10-31 21:00:38","a725c3012b74bf33a1020a98cb69c237","186.13.122.31","Mozilla/5.0 (Windows NT 10.0; Win64; x64) AppleWebKit/537.36 (KHTML, like Gecko) Chrome/118.0.0.0 Safari/537.36","WebKit","Chrome","118.0.0.0","Windows","10.0","null","es-AR,es;q=0.9,en-US;q=0.8,en;q=0.7","true","null","tones/440hz_short.mp3","null","","","tone_number_task","50","43","tones/440hz_short.mp3","200","100","null","null",""
"","","","","","html-keyboard-response","34","256744","0.0-17.0-4.0-0.0","29","1","2023-10-31 21:00:38","a725c3012b74bf33a1020a98cb69c237","186.13.122.31","Mozilla/5.0 (Windows NT 10.0; Win64; x64) AppleWebKit/537.36 (KHTML, like Gecko) Chrome/118.0.0.0 Safari/537.36","WebKit","Chrome","118.0.0.0","Windows","10.0","null","es-AR,es;q=0.9,en-US;q=0.8,en;q=0.7","true","567","tones/440hz_short.mp3","a","","","empty_block","","43","","","","null","null",""
"","","","","","html-keyboard-response","35","257040","0.0-17.0-4.0-1.0","29","1","2023-10-31 21:00:38","a725c3012b74bf33a1020a98cb69c237","186.13.122.31","Mozilla/5.0 (Windows NT 10.0; Win64; x64) AppleWebKit/537.36 (KHTML, like Gecko) Chrome/118.0.0.0 Safari/537.36","WebKit","Chrome","118.0.0.0","Windows","10.0","null","es-AR,es;q=0.9,en-US;q=0.8,en;q=0.7","true","294","tones/440hz_short.mp3","j","","","empty_block","","43","","","","null","null",""
"","","","","","html-button-response","36","269016","0.0-19.0","29","1","2023-10-31 21:00:38","a725c3012b74bf33a1020a98cb69c237","186.13.122.31","Mozilla/5.0 (Windows NT 10.0; Win64; x64) AppleWebKit/537.36 (KHTML, like Gecko) Chrome/118.0.0.0 Safari/537.36","WebKit","Chrome","118.0.0.0","Windows","10.0","null","es-AR,es;q=0.9,en-US;q=0.8,en;q=0.7","true","11974","
  <h1> Muy bien </h1>
  <p> Ahora, en vez de ser presentados en dígitos, los números vendrán escritos en palabras. </p>
  <p> Por ejemplo, en vez de 44 te aparecerá ""cuarenta y cuatro"". </p>
  ","0","","","","","","","","","","",""
"","","","","","html-keyboard-response","37","271927","0.0-20.0-0.0","29","1","2023-10-31 21:00:38","a725c3012b74bf33a1020a98cb69c237","186.13.122.31","Mozilla/5.0 (Windows NT 10.0; Win64; x64) AppleWebKit/537.36 (KHTML, like Gecko) Chrome/118.0.0.0 Safari/537.36","WebKit","Chrome","118.0.0.0","Windows","10.0","null","es-AR,es;q=0.9,en-US;q=0.8,en;q=0.7","true","null","<div style=""font-size:100px;"">X</div>","null","","","fixation","","","","","","","",""
"","","","","","audio-keyboard-response","38","272792","0.0-20.0-1.0","29","1","2023-10-31 21:00:38","a725c3012b74bf33a1020a98cb69c237","186.13.122.31","Mozilla/5.0 (Windows NT 10.0; Win64; x64) AppleWebKit/537.36 (KHTML, like Gecko) Chrome/118.0.0.0 Safari/537.36","WebKit","Chrome","118.0.0.0","Windows","10.0","null","es-AR,es;q=0.9,en-US;q=0.8,en;q=0.7","true","859","tones/440hz_short.mp3","a","","","tone_number_task","1000","veintiocho","tones/440hz_short.mp3","1150","60","null","null",""
"","","","","","html-keyboard-response","39","272936","0.0-20.0-2.0-0.0","29","1","2023-10-31 21:00:38","a725c3012b74bf33a1020a98cb69c237","186.13.122.31","Mozilla/5.0 (Windows NT 10.0; Win64; x64) AppleWebKit/537.36 (KHTML, like Gecko) Chrome/118.0.0.0 Safari/537.36","WebKit","Chrome","118.0.0.0","Windows","10.0","null","es-AR,es;q=0.9,en-US;q=0.8,en;q=0.7","true","null","","null","","","delay_block","","","","","","null","null",""
"","","","","","html-keyboard-response","40","273089","0.0-20.0-2.0-1.0","29","1","2023-10-31 21:00:38","a725c3012b74bf33a1020a98cb69c237","186.13.122.31","Mozilla/5.0 (Windows NT 10.0; Win64; x64) AppleWebKit/537.36 (KHTML, like Gecko) Chrome/118.0.0.0 Safari/537.36","WebKit","Chrome","118.0.0.0","Windows","10.0","null","es-AR,es;q=0.9,en-US;q=0.8,en;q=0.7","true","null","<p id=""stimulus"" style=""font-size:60px;"">veintiocho</p>","null","","","tone_number_task_remaining_before_delay","","veintiocho","","291","60","null","null",""
"","","","","","html-keyboard-response","41","273953","0.0-20.0-5.0-0.0","29","1","2023-10-31 21:00:38","a725c3012b74bf33a1020a98cb69c237","186.13.122.31","Mozilla/5.0 (Windows NT 10.0; Win64; x64) AppleWebKit/537.36 (KHTML, like Gecko) Chrome/118.0.0.0 Safari/537.36","WebKit","Chrome","118.0.0.0","Windows","10.0","null","es-AR,es;q=0.9,en-US;q=0.8,en;q=0.7","true","862","<p id=""stimulus"" style=""font-size:60px;"">veintiocho</p>","j","","","empty_block","","veintiocho","","","","null","null",""
"","","","","","html-button-response","42","278456","0.0-22.0","29","1","2023-10-31 21:00:38","a725c3012b74bf33a1020a98cb69c237","186.13.122.31","Mozilla/5.0 (Windows NT 10.0; Win64; x64) AppleWebKit/537.36 (KHTML, like Gecko) Chrome/118.0.0.0 Safari/537.36","WebKit","Chrome","118.0.0.0","Windows","10.0","null","es-AR,es;q=0.9,en-US;q=0.8,en;q=0.7","true","4500","
  <h1> Fin del Entrenamiento </h1>
  <p> ¡Felicitaciones, terminaste el entrenamiento! Ahora vamos a comenzar con el experimento. </p>
  <p> Es importante tener en cuenta que consta de cuatro bloques.</p>
  <p> Podés aprovechar los momentos entre bloques para tomar un breve descanso o tomar agua entre cada uno</p>
  <p> Recordá que tenés que responder lo más rápido que puedas, pero sin equivocarte. </p>
  ","0","","","","","","","","","","",""
"","","","","","external-html","43","294260","0.0-23.0","29","1","2023-10-31 21:00:38","a725c3012b74bf33a1020a98cb69c237","186.13.122.31","Mozilla/5.0 (Windows NT 10.0; Win64; x64) AppleWebKit/537.36 (KHTML, like Gecko) Chrome/118.0.0.0 Safari/537.36","WebKit","Chrome","118.0.0.0","Windows","10.0","null","es-AR,es;q=0.9,en-US;q=0.8,en;q=0.7","true","15510","","","","instructions/instructions_words_first.html","","","","","","","","",""
"","","","","","call-function","44","294264","0.0-24.0","29","1","2023-10-31 21:00:38","a725c3012b74bf33a1020a98cb69c237","186.13.122.31","Mozilla/5.0 (Windows NT 10.0; Win64; x64) AppleWebKit/537.36 (KHTML, like Gecko) Chrome/118.0.0.0 Safari/537.36","WebKit","Chrome","118.0.0.0","Windows","10.0","null","es-AR,es;q=0.9,en-US;q=0.8,en;q=0.7","true","","","","","","","","","","","","","",""
"","","","","","html-keyboard-response","45","297174","0.0-25.0","29","1","2023-10-31 21:00:38","a725c3012b74bf33a1020a98cb69c237","186.13.122.31","Mozilla/5.0 (Windows NT 10.0; Win64; x64) AppleWebKit/537.36 (KHTML, like Gecko) Chrome/118.0.0.0 Safari/537.36","WebKit","Chrome","118.0.0.0","Windows","10.0","null","es-AR,es;q=0.9,en-US;q=0.8,en;q=0.7","true","null","<div style=""font-size:100px;"">X</div>","null","","","fixation","","","","","","","",""
"","","","","","audio-keyboard-response","46","298088","0.0-26.0","29","1","2023-10-31 21:00:38","a725c3012b74bf33a1020a98cb69c237","186.13.122.31","Mozilla/5.0 (Windows NT 10.0; Win64; x64) AppleWebKit/537.36 (KHTML, like Gecko) Chrome/118.0.0.0 Safari/537.36","WebKit","Chrome","118.0.0.0","Windows","10.0","null","es-AR,es;q=0.9,en-US;q=0.8,en;q=0.7","true","911","tones/440hz_short.mp3","a","","","tone_number_task","1025","treinta y tres","tones/440hz_short.mp3","1175","60","2","0",""
"","","","","","html-keyboard-response","47","298205","0.0-27.0-0.0","29","1","2023-10-31 21:00:38","a725c3012b74bf33a1020a98cb69c237","186.13.122.31","Mozilla/5.0 (Windows NT 10.0; Win64; x64) AppleWebKit/537.36 (KHTML, like Gecko) Chrome/118.0.0.0 Safari/537.36","WebKit","Chrome","118.0.0.0","Windows","10.0","null","es-AR,es;q=0.9,en-US;q=0.8,en;q=0.7","true","null","","null","","","delay_block","","","","","","2","0",""
"","","","","","html-keyboard-response","48","298358","0.0-27.0-1.0","29","1","2023-10-31 21:00:38","a725c3012b74bf33a1020a98cb69c237","186.13.122.31","Mozilla/5.0 (Windows NT 10.0; Win64; x64) AppleWebKit/537.36 (KHTML, like Gecko) Chrome/118.0.0.0 Safari/537.36","WebKit","Chrome","118.0.0.0","Windows","10.0","null","es-AR,es;q=0.9,en-US;q=0.8,en;q=0.7","true","null","<p id=""stimulus"" style=""font-size:60px;"">treinta y tres</p>","null","","","tone_number_task_remaining_before_delay","","treinta y tres","","264","60","2","0",""
"","","","","","html-keyboard-response","49","299161","0.0-30.0-0.0","29","1","2023-10-31 21:00:38","a725c3012b74bf33a1020a98cb69c237","186.13.122.31","Mozilla/5.0 (Windows NT 10.0; Win64; x64) AppleWebKit/537.36 (KHTML, like Gecko) Chrome/118.0.0.0 Safari/537.36","WebKit","Chrome","118.0.0.0","Windows","10.0","null","es-AR,es;q=0.9,en-US;q=0.8,en;q=0.7","true","802","<p id=""stimulus"" style=""font-size:60px;"">treinta y tres</p>","j","","","empty_block","","treinta y tres","","","","2","0",""
"","","","","","html-keyboard-response","50","302072","0.0-31.0","29","1","2023-10-31 21:00:38","a725c3012b74bf33a1020a98cb69c237","186.13.122.31","Mozilla/5.0 (Windows NT 10.0; Win64; x64) AppleWebKit/537.36 (KHTML, like Gecko) Chrome/118.0.0.0 Safari/537.36","WebKit","Chrome","118.0.0.0","Windows","10.0","null","es-AR,es;q=0.9,en-US;q=0.8,en;q=0.7","true","null","<div style=""font-size:100px;"">X</div>","null","","","fixation","","","","","","","",""
"","","","","","audio-keyboard-response","51","302328","0.0-32.0","29","1","2023-10-31 21:00:38","a725c3012b74bf33a1020a98cb69c237","186.13.122.31","Mozilla/5.0 (Windows NT 10.0; Win64; x64) AppleWebKit/537.36 (KHTML, like Gecko) Chrome/118.0.0.0 Safari/537.36","WebKit","Chrome","118.0.0.0","Windows","10.0","null","es-AR,es;q=0.9,en-US;q=0.8,en;q=0.7","true","null","tones/880hz_short.mp3","null","","","tone_number_task","102.5","cincuenta y siete","tones/880hz_short.mp3","252.5","60","2","1",""
"","","","","","html-keyboard-response","52","303531","0.0-35.0-0.0","29","1","2023-10-31 21:00:38","a725c3012b74bf33a1020a98cb69c237","186.13.122.31","Mozilla/5.0 (Windows NT 10.0; Win64; x64) AppleWebKit/537.36 (KHTML, like Gecko) Chrome/118.0.0.0 Safari/537.36","WebKit","Chrome","118.0.0.0","Windows","10.0","null","es-AR,es;q=0.9,en-US;q=0.8,en;q=0.7","true","null","tones/880hz_short.mp3","null","","","empty_block","","cincuenta y siete","","","","2","1",""
"","","","","","html-keyboard-response","53","304026","0.0-35.0-1.0","29","1","2023-10-31 21:00:38","a725c3012b74bf33a1020a98cb69c237","186.13.122.31","Mozilla/5.0 (Windows NT 10.0; Win64; x64) AppleWebKit/537.36 (KHTML, like Gecko) Chrome/118.0.0.0 Safari/537.36","WebKit","Chrome","118.0.0.0","Windows","10.0","null","es-AR,es;q=0.9,en-US;q=0.8,en;q=0.7","true","494","tones/880hz_short.mp3","s","","","empty_block","","cincuenta y siete","","","","2","1",""
"","","","","","html-keyboard-response","54","306937","0.0-37.0","29","1","2023-10-31 21:00:38","a725c3012b74bf33a1020a98cb69c237","186.13.122.31","Mozilla/5.0 (Windows NT 10.0; Win64; x64) AppleWebKit/537.36 (KHTML, like Gecko) Chrome/118.0.0.0 Safari/537.36","WebKit","Chrome","118.0.0.0","Windows","10.0","null","es-AR,es;q=0.9,en-US;q=0.8,en;q=0.7","true","null","<div style=""font-size:100px;"">X</div>","null","","","fixation","","","","","","","",""
"","","","","","audio-keyboard-response","55","307193","0.0-38.0","29","1","2023-10-31 21:00:38","a725c3012b74bf33a1020a98cb69c237","186.13.122.31","Mozilla/5.0 (Windows NT 10.0; Win64; x64) AppleWebKit/537.36 (KHTML, like Gecko) Chrome/118.0.0.0 Safari/537.36","WebKit","Chrome","118.0.0.0","Windows","10.0","null","es-AR,es;q=0.9,en-US;q=0.8,en;q=0.7","true","null","tones/880hz_short.mp3","null","","","tone_number_task","102.5","sesenta y dos","tones/880hz_short.mp3","252.5","60","2","2",""
"","","","","","html-keyboard-response","56","308395","0.0-41.0-0.0","29","1","2023-10-31 21:00:38","a725c3012b74bf33a1020a98cb69c237","186.13.122.31","Mozilla/5.0 (Windows NT 10.0; Win64; x64) AppleWebKit/537.36 (KHTML, like Gecko) Chrome/118.0.0.0 Safari/537.36","WebKit","Chrome","118.0.0.0","Windows","10.0","null","es-AR,es;q=0.9,en-US;q=0.8,en;q=0.7","true","null","tones/880hz_short.mp3","null","","","empty_block","","sesenta y dos","","","","2","2",""
"","","","","","html-keyboard-response","57","308513","0.0-41.0-1.0","29","1","2023-10-31 21:00:38","a725c3012b74bf33a1020a98cb69c237","186.13.122.31","Mozilla/5.0 (Windows NT 10.0; Win64; x64) AppleWebKit/537.36 (KHTML, like Gecko) Chrome/118.0.0.0 Safari/537.36","WebKit","Chrome","118.0.0.0","Windows","10.0","null","es-AR,es;q=0.9,en-US;q=0.8,en;q=0.7","true","116","tones/880hz_short.mp3","s","","","empty_block","","sesenta y dos","","","","2","2",""
"","","","","","html-keyboard-response","58","311424","0.0-43.0","29","1","2023-10-31 21:00:38","a725c3012b74bf33a1020a98cb69c237","186.13.122.31","Mozilla/5.0 (Windows NT 10.0; Win64; x64) AppleWebKit/537.36 (KHTML, like Gecko) Chrome/118.0.0.0 Safari/537.36","WebKit","Chrome","118.0.0.0","Windows","10.0","null","es-AR,es;q=0.9,en-US;q=0.8,en;q=0.7","true","null","<div style=""font-size:100px;"">X</div>","null","","","fixation","","","","","","","",""
"","","","","","audio-keyboard-response","59","312601","0.0-44.0","29","1","2023-10-31 21:00:38","a725c3012b74bf33a1020a98cb69c237","186.13.122.31","Mozilla/5.0 (Windows NT 10.0; Win64; x64) AppleWebKit/537.36 (KHTML, like Gecko) Chrome/118.0.0.0 Safari/537.36","WebKit","Chrome","118.0.0.0","Windows","10.0","null","es-AR,es;q=0.9,en-US;q=0.8,en;q=0.7","true","null","tones/880hz_short.mp3","null","","","tone_number_task","1025","sesenta y dos","tones/880hz_short.mp3","1175","60","2","3",""
"","","","","","html-keyboard-response","60","313057","0.0-47.0-0.0","29","1","2023-10-31 21:00:38","a725c3012b74bf33a1020a98cb69c237","186.13.122.31","Mozilla/5.0 (Windows NT 10.0; Win64; x64) AppleWebKit/537.36 (KHTML, like Gecko) Chrome/118.0.0.0 Safari/537.36","WebKit","Chrome","118.0.0.0","Windows","10.0","null","es-AR,es;q=0.9,en-US;q=0.8,en;q=0.7","true","454","tones/880hz_short.mp3","s","","","empty_block","","sesenta y dos","","","","2","3",""
"","","","","","html-keyboard-response","61","313322","0.0-47.0-1.0","29","1","2023-10-31 21:00:38","a725c3012b74bf33a1020a98cb69c237","186.13.122.31","Mozilla/5.0 (Windows NT 10.0; Win64; x64) AppleWebKit/537.36 (KHTML, like Gecko) Chrome/118.0.0.0 Safari/537.36","WebKit","Chrome","118.0.0.0","Windows","10.0","null","es-AR,es;q=0.9,en-US;q=0.8,en;q=0.7","true","262","tones/880hz_short.mp3","k","","","empty_block","","sesenta y dos","","","","2","3",""
"","","","","","html-keyboard-response","62","316232","0.0-49.0","29","1","2023-10-31 21:00:38","a725c3012b74bf33a1020a98cb69c237","186.13.122.31","Mozilla/5.0 (Windows NT 10.0; Win64; x64) AppleWebKit/537.36 (KHTML, like Gecko) Chrome/118.0.0.0 Safari/537.36","WebKit","Chrome","118.0.0.0","Windows","10.0","null","es-AR,es;q=0.9,en-US;q=0.8,en;q=0.7","true","null","<div style=""font-size:100px;"">X</div>","null","","","fixation","","","","","","","",""
"","","","","","audio-keyboard-response","63","316386","0.0-50.0","29","1","2023-10-31 21:00:38","a725c3012b74bf33a1020a98cb69c237","186.13.122.31","Mozilla/5.0 (Windows NT 10.0; Win64; x64) AppleWebKit/537.36 (KHTML, like Gecko) Chrome/118.0.0.0 Safari/537.36","WebKit","Chrome","118.0.0.0","Windows","10.0","null","es-AR,es;q=0.9,en-US;q=0.8,en;q=0.7","true","null","tones/440hz_short.mp3","null","","","tone_number_task","0","cincuenta y cinco","tones/440hz_short.mp3","150","60","2","4",""
"","","","","","html-keyboard-response","64","317378","0.0-53.0-0.0","29","1","2023-10-31 21:00:38","a725c3012b74bf33a1020a98cb69c237","186.13.122.31","Mozilla/5.0 (Windows NT 10.0; Win64; x64) AppleWebKit/537.36 (KHTML, like Gecko) Chrome/118.0.0.0 Safari/537.36","WebKit","Chrome","118.0.0.0","Windows","10.0","null","es-AR,es;q=0.9,en-US;q=0.8,en;q=0.7","true","990","tones/440hz_short.mp3","a","","","empty_block","","cincuenta y cinco","","","","2","4",""
"","","","","","html-keyboard-response","65","318580","0.0-53.0-1.0","29","1","2023-10-31 21:00:38","a725c3012b74bf33a1020a98cb69c237","186.13.122.31","Mozilla/5.0 (Windows NT 10.0; Win64; x64) AppleWebKit/537.36 (KHTML, like Gecko) Chrome/118.0.0.0 Safari/537.36","WebKit","Chrome","118.0.0.0","Windows","10.0","null","es-AR,es;q=0.9,en-US;q=0.8,en;q=0.7","true","null","tones/440hz_short.mp3","null","","","empty_block","","cincuenta y cinco","","","","2","4",""
"","","","","","html-keyboard-response","66","321492","0.0-55.0","29","1","2023-10-31 21:00:38","a725c3012b74bf33a1020a98cb69c237","186.13.122.31","Mozilla/5.0 (Windows NT 10.0; Win64; x64) AppleWebKit/537.36 (KHTML, like Gecko) Chrome/118.0.0.0 Safari/537.36","WebKit","Chrome","118.0.0.0","Windows","10.0","null","es-AR,es;q=0.9,en-US;q=0.8,en;q=0.7","true","null","<div style=""font-size:100px;"">X</div>","null","","","fixation","","","","","","","",""
"","","","","","audio-keyboard-response","67","322638","0.0-56.0","29","1","2023-10-31 21:00:38","a725c3012b74bf33a1020a98cb69c237","186.13.122.31","Mozilla/5.0 (Windows NT 10.0; Win64; x64) AppleWebKit/537.36 (KHTML, like Gecko) Chrome/118.0.0.0 Safari/537.36","WebKit","Chrome","118.0.0.0","Windows","10.0","null","es-AR,es;q=0.9,en-US;q=0.8,en;q=0.7","true","null","tones/440hz_short.mp3","null","","","tone_number_task","992.5","cincuenta y nueve","tones/440hz_short.mp3","1142.5","60","2","5",""
"","","","","","html-keyboard-response","68","323170","0.0-59.0-0.0","29","1","2023-10-31 21:00:38","a725c3012b74bf33a1020a98cb69c237","186.13.122.31","Mozilla/5.0 (Windows NT 10.0; Win64; x64) AppleWebKit/537.36 (KHTML, like Gecko) Chrome/118.0.0.0 Safari/537.36","WebKit","Chrome","118.0.0.0","Windows","10.0","null","es-AR,es;q=0.9,en-US;q=0.8,en;q=0.7","true","528","tones/440hz_short.mp3","a","","","empty_block","","cincuenta y nueve","","","","2","5",""
"","","","","","html-keyboard-response","69","323538","0.0-59.0-1.0","29","1","2023-10-31 21:00:38","a725c3012b74bf33a1020a98cb69c237","186.13.122.31","Mozilla/5.0 (Windows NT 10.0; Win64; x64) AppleWebKit/537.36 (KHTML, like Gecko) Chrome/118.0.0.0 Safari/537.36","WebKit","Chrome","118.0.0.0","Windows","10.0","null","es-AR,es;q=0.9,en-US;q=0.8,en;q=0.7","true","367","tones/440hz_short.mp3","k","","","empty_block","","cincuenta y nueve","","","","2","5",""
"","","","","","html-keyboard-response","70","326448","0.0-61.0","29","1","2023-10-31 21:00:38","a725c3012b74bf33a1020a98cb69c237","186.13.122.31","Mozilla/5.0 (Windows NT 10.0; Win64; x64) AppleWebKit/537.36 (KHTML, like Gecko) Chrome/118.0.0.0 Safari/537.36","WebKit","Chrome","118.0.0.0","Windows","10.0","null","es-AR,es;q=0.9,en-US;q=0.8,en;q=0.7","true","null","<div style=""font-size:100px;"">X</div>","null","","","fixation","","","","","","","",""
"","","","","","audio-keyboard-response","71","327626","0.0-62.0","29","1","2023-10-31 21:00:38","a725c3012b74bf33a1020a98cb69c237","186.13.122.31","Mozilla/5.0 (Windows NT 10.0; Win64; x64) AppleWebKit/537.36 (KHTML, like Gecko) Chrome/118.0.0.0 Safari/537.36","WebKit","Chrome","118.0.0.0","Windows","10.0","null","es-AR,es;q=0.9,en-US;q=0.8,en;q=0.7","true","null","tones/440hz_short.mp3","null","","","tone_number_task","1025","cuarenta y seis","tones/440hz_short.mp3","1175","60","2","6",""
"","","","","","html-keyboard-response","72","328194","0.0-65.0-0.0","29","1","2023-10-31 21:00:38","a725c3012b74bf33a1020a98cb69c237","186.13.122.31","Mozilla/5.0 (Windows NT 10.0; Win64; x64) AppleWebKit/537.36 (KHTML, like Gecko) Chrome/118.0.0.0 Safari/537.36","WebKit","Chrome","118.0.0.0","Windows","10.0","null","es-AR,es;q=0.9,en-US;q=0.8,en;q=0.7","true","565","tones/440hz_short.mp3","a","","","empty_block","","cuarenta y seis","","","","2","6",""
"","","","","","html-keyboard-response","73","328898","0.0-65.0-1.0","29","1","2023-10-31 21:00:38","a725c3012b74bf33a1020a98cb69c237","186.13.122.31","Mozilla/5.0 (Windows NT 10.0; Win64; x64) AppleWebKit/537.36 (KHTML, like Gecko) Chrome/118.0.0.0 Safari/537.36","WebKit","Chrome","118.0.0.0","Windows","10.0","null","es-AR,es;q=0.9,en-US;q=0.8,en;q=0.7","true","702","tones/440hz_short.mp3","k","","","empty_block","","cuarenta y seis","","","","2","6",""
"","","","","","html-keyboard-response","74","331809","0.0-67.0","29","1","2023-10-31 21:00:38","a725c3012b74bf33a1020a98cb69c237","186.13.122.31","Mozilla/5.0 (Windows NT 10.0; Win64; x64) AppleWebKit/537.36 (KHTML, like Gecko) Chrome/118.0.0.0 Safari/537.36","WebKit","Chrome","118.0.0.0","Windows","10.0","null","es-AR,es;q=0.9,en-US;q=0.8,en;q=0.7","true","null","<div style=""font-size:100px;"">X</div>","null","","","fixation","","","","","","","",""
"","","","","","audio-keyboard-response","75","332987","0.0-68.0","29","1","2023-10-31 21:00:38","a725c3012b74bf33a1020a98cb69c237","186.13.122.31","Mozilla/5.0 (Windows NT 10.0; Win64; x64) AppleWebKit/537.36 (KHTML, like Gecko) Chrome/118.0.0.0 Safari/537.36","WebKit","Chrome","118.0.0.0","Windows","10.0","null","es-AR,es;q=0.9,en-US;q=0.8,en;q=0.7","true","null","tones/440hz_short.mp3","null","","","tone_number_task","1025","treinta y seis","tones/440hz_short.mp3","1175","60","2","7",""
"","","","","","html-keyboard-response","76","333578","0.0-71.0-0.0","29","1","2023-10-31 21:00:38","a725c3012b74bf33a1020a98cb69c237","186.13.122.31","Mozilla/5.0 (Windows NT 10.0; Win64; x64) AppleWebKit/537.36 (KHTML, like Gecko) Chrome/118.0.0.0 Safari/537.36","WebKit","Chrome","118.0.0.0","Windows","10.0","null","es-AR,es;q=0.9,en-US;q=0.8,en;q=0.7","true","588","tones/440hz_short.mp3","a","","","empty_block","","treinta y seis","","","","2","7",""
"","","","","","html-keyboard-response","77","333842","0.0-71.0-1.0","29","1","2023-10-31 21:00:38","a725c3012b74bf33a1020a98cb69c237","186.13.122.31","Mozilla/5.0 (Windows NT 10.0; Win64; x64) AppleWebKit/537.36 (KHTML, like Gecko) Chrome/118.0.0.0 Safari/537.36","WebKit","Chrome","118.0.0.0","Windows","10.0","null","es-AR,es;q=0.9,en-US;q=0.8,en;q=0.7","true","262","tones/440hz_short.mp3","j","","","empty_block","","treinta y seis","","","","2","7",""
"","","","","","html-keyboard-response","78","336753","0.0-73.0","29","1","2023-10-31 21:00:38","a725c3012b74bf33a1020a98cb69c237","186.13.122.31","Mozilla/5.0 (Windows NT 10.0; Win64; x64) AppleWebKit/537.36 (KHTML, like Gecko) Chrome/118.0.0.0 Safari/537.36","WebKit","Chrome","118.0.0.0","Windows","10.0","null","es-AR,es;q=0.9,en-US;q=0.8,en;q=0.7","true","null","<div style=""font-size:100px;"">X</div>","null","","","fixation","","","","","","","",""
"","","","","","audio-keyboard-response","79","337898","0.0-74.0","29","1","2023-10-31 21:00:38","a725c3012b74bf33a1020a98cb69c237","186.13.122.31","Mozilla/5.0 (Windows NT 10.0; Win64; x64) AppleWebKit/537.36 (KHTML, like Gecko) Chrome/118.0.0.0 Safari/537.36","WebKit","Chrome","118.0.0.0","Windows","10.0","null","es-AR,es;q=0.9,en-US;q=0.8,en;q=0.7","true","null","tones/440hz_short.mp3","null","","","tone_number_task","992.5","cuarenta y siete","tones/440hz_short.mp3","1142.5","60","2","8",""
"","","","","","html-keyboard-response","80","338738","0.0-77.0-0.0","29","1","2023-10-31 21:00:38","a725c3012b74bf33a1020a98cb69c237","186.13.122.31","Mozilla/5.0 (Windows NT 10.0; Win64; x64) AppleWebKit/537.36 (KHTML, like Gecko) Chrome/118.0.0.0 Safari/537.36","WebKit","Chrome","118.0.0.0","Windows","10.0","null","es-AR,es;q=0.9,en-US;q=0.8,en;q=0.7","true","838","tones/440hz_short.mp3","a","","","empty_block","","cuarenta y siete","","","","2","8",""
"","","","","","html-keyboard-response","81","339130","0.0-77.0-1.0","29","1","2023-10-31 21:00:38","a725c3012b74bf33a1020a98cb69c237","186.13.122.31","Mozilla/5.0 (Windows NT 10.0; Win64; x64) AppleWebKit/537.36 (KHTML, like Gecko) Chrome/118.0.0.0 Safari/537.36","WebKit","Chrome","118.0.0.0","Windows","10.0","null","es-AR,es;q=0.9,en-US;q=0.8,en;q=0.7","true","390","tones/440hz_short.mp3","k","","","empty_block","","cuarenta y siete","","","","2","8",""
"","","","","","html-keyboard-response","82","342042","0.0-79.0","29","1","2023-10-31 21:00:38","a725c3012b74bf33a1020a98cb69c237","186.13.122.31","Mozilla/5.0 (Windows NT 10.0; Win64; x64) AppleWebKit/537.36 (KHTML, like Gecko) Chrome/118.0.0.0 Safari/537.36","WebKit","Chrome","118.0.0.0","Windows","10.0","null","es-AR,es;q=0.9,en-US;q=0.8,en;q=0.7","true","null","<div style=""font-size:100px;"">X</div>","null","","","fixation","","","","","","","",""
"","","","","","audio-keyboard-response","83","343187","0.0-80.0","29","1","2023-10-31 21:00:38","a725c3012b74bf33a1020a98cb69c237","186.13.122.31","Mozilla/5.0 (Windows NT 10.0; Win64; x64) AppleWebKit/537.36 (KHTML, like Gecko) Chrome/118.0.0.0 Safari/537.36","WebKit","Chrome","118.0.0.0","Windows","10.0","null","es-AR,es;q=0.9,en-US;q=0.8,en;q=0.7","true","null","tones/880hz_short.mp3","null","","","tone_number_task","992.5","cuarenta y dos","tones/880hz_short.mp3","1142.5","60","2","9",""
"","","","","","html-keyboard-response","84","343954","0.0-83.0-0.0","29","1","2023-10-31 21:00:38","a725c3012b74bf33a1020a98cb69c237","186.13.122.31","Mozilla/5.0 (Windows NT 10.0; Win64; x64) AppleWebKit/537.36 (KHTML, like Gecko) Chrome/118.0.0.0 Safari/537.36","WebKit","Chrome","118.0.0.0","Windows","10.0","null","es-AR,es;q=0.9,en-US;q=0.8,en;q=0.7","true","765","tones/880hz_short.mp3","s","","","empty_block","","cuarenta y dos","","","","2","9",""
"","","","","","html-keyboard-response","85","344770","0.0-83.0-1.0","29","1","2023-10-31 21:00:38","a725c3012b74bf33a1020a98cb69c237","186.13.122.31","Mozilla/5.0 (Windows NT 10.0; Win64; x64) AppleWebKit/537.36 (KHTML, like Gecko) Chrome/118.0.0.0 Safari/537.36","WebKit","Chrome","118.0.0.0","Windows","10.0","null","es-AR,es;q=0.9,en-US;q=0.8,en;q=0.7","true","814","tones/880hz_short.mp3","j","","","empty_block","","cuarenta y dos","","","","2","9",""
"","","","","","html-keyboard-response","86","347682","0.0-85.0","29","1","2023-10-31 21:00:38","a725c3012b74bf33a1020a98cb69c237","186.13.122.31","Mozilla/5.0 (Windows NT 10.0; Win64; x64) AppleWebKit/537.36 (KHTML, like Gecko) Chrome/118.0.0.0 Safari/537.36","WebKit","Chrome","118.0.0.0","Windows","10.0","null","es-AR,es;q=0.9,en-US;q=0.8,en;q=0.7","true","null","<div style=""font-size:100px;"">X</div>","null","","","fixation","","","","","","","",""
"","","","","","audio-keyboard-response","87","348828","0.0-86.0","29","1","2023-10-31 21:00:38","a725c3012b74bf33a1020a98cb69c237","186.13.122.31","Mozilla/5.0 (Windows NT 10.0; Win64; x64) AppleWebKit/537.36 (KHTML, like Gecko) Chrome/118.0.0.0 Safari/537.36","WebKit","Chrome","118.0.0.0","Windows","10.0","null","es-AR,es;q=0.9,en-US;q=0.8,en;q=0.7","true","null","tones/880hz_short.mp3","null","","","tone_number_task","992.5","sesenta y dos","tones/880hz_short.mp3","1142.5","60","2","10",""
"","","","","","html-keyboard-response","88","349339","0.0-89.0-0.0","29","1","2023-10-31 21:00:38","a725c3012b74bf33a1020a98cb69c237","186.13.122.31","Mozilla/5.0 (Windows NT 10.0; Win64; x64) AppleWebKit/537.36 (KHTML, like Gecko) Chrome/118.0.0.0 Safari/537.36","WebKit","Chrome","118.0.0.0","Windows","10.0","null","es-AR,es;q=0.9,en-US;q=0.8,en;q=0.7","true","509","tones/880hz_short.mp3","s","","","empty_block","","sesenta y dos","","","","2","10",""
"","","","","","html-keyboard-response","89","349667","0.0-89.0-1.0","29","1","2023-10-31 21:00:38","a725c3012b74bf33a1020a98cb69c237","186.13.122.31","Mozilla/5.0 (Windows NT 10.0; Win64; x64) AppleWebKit/537.36 (KHTML, like Gecko) Chrome/118.0.0.0 Safari/537.36","WebKit","Chrome","118.0.0.0","Windows","10.0","null","es-AR,es;q=0.9,en-US;q=0.8,en;q=0.7","true","326","tones/880hz_short.mp3","k","","","empty_block","","sesenta y dos","","","","2","10",""
"","","","","","html-keyboard-response","90","352578","0.0-91.0","29","1","2023-10-31 21:00:38","a725c3012b74bf33a1020a98cb69c237","186.13.122.31","Mozilla/5.0 (Windows NT 10.0; Win64; x64) AppleWebKit/537.36 (KHTML, like Gecko) Chrome/118.0.0.0 Safari/537.36","WebKit","Chrome","118.0.0.0","Windows","10.0","null","es-AR,es;q=0.9,en-US;q=0.8,en;q=0.7","true","null","<div style=""font-size:100px;"">X</div>","null","","","fixation","","","","","","","",""
"","","","","","audio-keyboard-response","91","353723","0.0-92.0","29","1","2023-10-31 21:00:38","a725c3012b74bf33a1020a98cb69c237","186.13.122.31","Mozilla/5.0 (Windows NT 10.0; Win64; x64) AppleWebKit/537.36 (KHTML, like Gecko) Chrome/118.0.0.0 Safari/537.36","WebKit","Chrome","118.0.0.0","Windows","10.0","null","es-AR,es;q=0.9,en-US;q=0.8,en;q=0.7","true","null","tones/880hz_short.mp3","null","","","tone_number_task","992.5","veintinueve","tones/880hz_short.mp3","1142.5","60","2","11",""
"","","","","","html-keyboard-response","92","354395","0.0-95.0-0.0","29","1","2023-10-31 21:00:38","a725c3012b74bf33a1020a98cb69c237","186.13.122.31","Mozilla/5.0 (Windows NT 10.0; Win64; x64) AppleWebKit/537.36 (KHTML, like Gecko) Chrome/118.0.0.0 Safari/537.36","WebKit","Chrome","118.0.0.0","Windows","10.0","null","es-AR,es;q=0.9,en-US;q=0.8,en;q=0.7","true","669","tones/880hz_short.mp3","s","","","empty_block","","veintinueve","","","","2","11",""
"","","","","","html-keyboard-response","93","354771","0.0-95.0-1.0","29","1","2023-10-31 21:00:38","a725c3012b74bf33a1020a98cb69c237","186.13.122.31","Mozilla/5.0 (Windows NT 10.0; Win64; x64) AppleWebKit/537.36 (KHTML, like Gecko) Chrome/118.0.0.0 Safari/537.36","WebKit","Chrome","118.0.0.0","Windows","10.0","null","es-AR,es;q=0.9,en-US;q=0.8,en;q=0.7","true","374","tones/880hz_short.mp3","j","","","empty_block","","veintinueve","","","","2","11",""
"","","","","","html-keyboard-response","94","357683","0.0-97.0","29","1","2023-10-31 21:00:38","a725c3012b74bf33a1020a98cb69c237","186.13.122.31","Mozilla/5.0 (Windows NT 10.0; Win64; x64) AppleWebKit/537.36 (KHTML, like Gecko) Chrome/118.0.0.0 Safari/537.36","WebKit","Chrome","118.0.0.0","Windows","10.0","null","es-AR,es;q=0.9,en-US;q=0.8,en;q=0.7","true","null","<div style=""font-size:100px;"">X</div>","null","","","fixation","","","","","","","",""
"","","","","","audio-keyboard-response","95","358833","0.0-98.0","29","1","2023-10-31 21:00:38","a725c3012b74bf33a1020a98cb69c237","186.13.122.31","Mozilla/5.0 (Windows NT 10.0; Win64; x64) AppleWebKit/537.36 (KHTML, like Gecko) Chrome/118.0.0.0 Safari/537.36","WebKit","Chrome","118.0.0.0","Windows","10.0","null","es-AR,es;q=0.9,en-US;q=0.8,en;q=0.7","true","null","tones/880hz_short.mp3","null","","","tone_number_task","992.5","treinta y dos","tones/880hz_short.mp3","1142.5","60","2","12",""
"","","","","","html-keyboard-response","96","359187","0.0-101.0-0.0","29","1","2023-10-31 21:00:38","a725c3012b74bf33a1020a98cb69c237","186.13.122.31","Mozilla/5.0 (Windows NT 10.0; Win64; x64) AppleWebKit/537.36 (KHTML, like Gecko) Chrome/118.0.0.0 Safari/537.36","WebKit","Chrome","118.0.0.0","Windows","10.0","null","es-AR,es;q=0.9,en-US;q=0.8,en;q=0.7","true","351","tones/880hz_short.mp3","s","","","empty_block","","treinta y dos","","","","2","12",""
"","","","","","html-keyboard-response","97","359539","0.0-101.0-1.0","29","1","2023-10-31 21:00:38","a725c3012b74bf33a1020a98cb69c237","186.13.122.31","Mozilla/5.0 (Windows NT 10.0; Win64; x64) AppleWebKit/537.36 (KHTML, like Gecko) Chrome/118.0.0.0 Safari/537.36","WebKit","Chrome","118.0.0.0","Windows","10.0","null","es-AR,es;q=0.9,en-US;q=0.8,en;q=0.7","true","350","tones/880hz_short.mp3","j","","","empty_block","","treinta y dos","","","","2","12",""
"","","","","","html-keyboard-response","98","362449","0.0-103.0","29","1","2023-10-31 21:00:38","a725c3012b74bf33a1020a98cb69c237","186.13.122.31","Mozilla/5.0 (Windows NT 10.0; Win64; x64) AppleWebKit/537.36 (KHTML, like Gecko) Chrome/118.0.0.0 Safari/537.36","WebKit","Chrome","118.0.0.0","Windows","10.0","null","es-AR,es;q=0.9,en-US;q=0.8,en;q=0.7","true","null","<div style=""font-size:100px;"">X</div>","null","","","fixation","","","","","","","",""
"","","","","","audio-keyboard-response","99","362705","0.0-104.0","29","1","2023-10-31 21:00:38","a725c3012b74bf33a1020a98cb69c237","186.13.122.31","Mozilla/5.0 (Windows NT 10.0; Win64; x64) AppleWebKit/537.36 (KHTML, like Gecko) Chrome/118.0.0.0 Safari/537.36","WebKit","Chrome","118.0.0.0","Windows","10.0","null","es-AR,es;q=0.9,en-US;q=0.8,en;q=0.7","true","null","tones/880hz_short.mp3","null","","","tone_number_task","102.5","cincuenta y seis","tones/880hz_short.mp3","252.5","60","2","13",""
"","","","","","html-keyboard-response","100","363444","0.0-107.0-0.0","29","1","2023-10-31 21:00:38","a725c3012b74bf33a1020a98cb69c237","186.13.122.31","Mozilla/5.0 (Windows NT 10.0; Win64; x64) AppleWebKit/537.36 (KHTML, like Gecko) Chrome/118.0.0.0 Safari/537.36","WebKit","Chrome","118.0.0.0","Windows","10.0","null","es-AR,es;q=0.9,en-US;q=0.8,en;q=0.7","true","736","tones/880hz_short.mp3","s","","","empty_block","","cincuenta y seis","","","","2","13",""
"","","","","","html-keyboard-response","101","363891","0.0-107.0-1.0","29","1","2023-10-31 21:00:38","a725c3012b74bf33a1020a98cb69c237","186.13.122.31","Mozilla/5.0 (Windows NT 10.0; Win64; x64) AppleWebKit/537.36 (KHTML, like Gecko) Chrome/118.0.0.0 Safari/537.36","WebKit","Chrome","118.0.0.0","Windows","10.0","null","es-AR,es;q=0.9,en-US;q=0.8,en;q=0.7","true","445","tones/880hz_short.mp3","k","","","empty_block","","cincuenta y seis","","","","2","13",""
"","","","","","html-keyboard-response","102","366803","0.0-109.0","29","1","2023-10-31 21:00:38","a725c3012b74bf33a1020a98cb69c237","186.13.122.31","Mozilla/5.0 (Windows NT 10.0; Win64; x64) AppleWebKit/537.36 (KHTML, like Gecko) Chrome/118.0.0.0 Safari/537.36","WebKit","Chrome","118.0.0.0","Windows","10.0","null","es-AR,es;q=0.9,en-US;q=0.8,en;q=0.7","true","null","<div style=""font-size:100px;"">X</div>","null","","","fixation","","","","","","","",""
"","","","","","audio-keyboard-response","103","367059","0.0-110.0","29","1","2023-10-31 21:00:38","a725c3012b74bf33a1020a98cb69c237","186.13.122.31","Mozilla/5.0 (Windows NT 10.0; Win64; x64) AppleWebKit/537.36 (KHTML, like Gecko) Chrome/118.0.0.0 Safari/537.36","WebKit","Chrome","118.0.0.0","Windows","10.0","null","es-AR,es;q=0.9,en-US;q=0.8,en;q=0.7","true","null","tones/880hz_short.mp3","null","","","tone_number_task","102.5","cuarenta y dos","tones/880hz_short.mp3","252.5","60","2","14",""
"","","","","","html-keyboard-response","104","367803","0.0-113.0-0.0","29","1","2023-10-31 21:00:38","a725c3012b74bf33a1020a98cb69c237","186.13.122.31","Mozilla/5.0 (Windows NT 10.0; Win64; x64) AppleWebKit/537.36 (KHTML, like Gecko) Chrome/118.0.0.0 Safari/537.36","WebKit","Chrome","118.0.0.0","Windows","10.0","null","es-AR,es;q=0.9,en-US;q=0.8,en;q=0.7","true","741","tones/880hz_short.mp3","s","","","empty_block","","cuarenta y dos","","","","2","14",""
"","","","","","html-keyboard-response","105","368155","0.0-113.0-1.0","29","1","2023-10-31 21:00:38","a725c3012b74bf33a1020a98cb69c237","186.13.122.31","Mozilla/5.0 (Windows NT 10.0; Win64; x64) AppleWebKit/537.36 (KHTML, like Gecko) Chrome/118.0.0.0 Safari/537.36","WebKit","Chrome","118.0.0.0","Windows","10.0","null","es-AR,es;q=0.9,en-US;q=0.8,en;q=0.7","true","349","tones/880hz_short.mp3","k","","","empty_block","","cuarenta y dos","","","","2","14",""
"","","","","","html-keyboard-response","106","371066","0.0-115.0","29","1","2023-10-31 21:00:38","a725c3012b74bf33a1020a98cb69c237","186.13.122.31","Mozilla/5.0 (Windows NT 10.0; Win64; x64) AppleWebKit/537.36 (KHTML, like Gecko) Chrome/118.0.0.0 Safari/537.36","WebKit","Chrome","118.0.0.0","Windows","10.0","null","es-AR,es;q=0.9,en-US;q=0.8,en;q=0.7","true","null","<div style=""font-size:100px;"">X</div>","null","","","fixation","","","","","","","",""
"","","","","","audio-keyboard-response","107","372244","0.0-116.0","29","1","2023-10-31 21:00:38","a725c3012b74bf33a1020a98cb69c237","186.13.122.31","Mozilla/5.0 (Windows NT 10.0; Win64; x64) AppleWebKit/537.36 (KHTML, like Gecko) Chrome/118.0.0.0 Safari/537.36","WebKit","Chrome","118.0.0.0","Windows","10.0","null","es-AR,es;q=0.9,en-US;q=0.8,en;q=0.7","true","null","tones/880hz_short.mp3","null","","","tone_number_task","1025","cincuenta y cuatro","tones/880hz_short.mp3","1175","60","2","15",""
"","","","","","html-keyboard-response","108","372731","0.0-119.0-0.0","29","1","2023-10-31 21:00:38","a725c3012b74bf33a1020a98cb69c237","186.13.122.31","Mozilla/5.0 (Windows NT 10.0; Win64; x64) AppleWebKit/537.36 (KHTML, like Gecko) Chrome/118.0.0.0 Safari/537.36","WebKit","Chrome","118.0.0.0","Windows","10.0","null","es-AR,es;q=0.9,en-US;q=0.8,en;q=0.7","true","485","tones/880hz_short.mp3","s","","","empty_block","","cincuenta y cuatro","","","","2","15",""
"","","","","","html-keyboard-response","109","373058","0.0-119.0-1.0","29","1","2023-10-31 21:00:38","a725c3012b74bf33a1020a98cb69c237","186.13.122.31","Mozilla/5.0 (Windows NT 10.0; Win64; x64) AppleWebKit/537.36 (KHTML, like Gecko) Chrome/118.0.0.0 Safari/537.36","WebKit","Chrome","118.0.0.0","Windows","10.0","null","es-AR,es;q=0.9,en-US;q=0.8,en;q=0.7","true","325","tones/880hz_short.mp3","k","","","empty_block","","cincuenta y cuatro","","","","2","15",""
"","","","","","html-keyboard-response","110","375970","0.0-121.0","29","1","2023-10-31 21:00:38","a725c3012b74bf33a1020a98cb69c237","186.13.122.31","Mozilla/5.0 (Windows NT 10.0; Win64; x64) AppleWebKit/537.36 (KHTML, like Gecko) Chrome/118.0.0.0 Safari/537.36","WebKit","Chrome","118.0.0.0","Windows","10.0","null","es-AR,es;q=0.9,en-US;q=0.8,en;q=0.7","true","null","<div style=""font-size:100px;"">X</div>","null","","","fixation","","","","","","","",""
"","","","","","audio-keyboard-response","111","376124","0.0-122.0","29","1","2023-10-31 21:00:38","a725c3012b74bf33a1020a98cb69c237","186.13.122.31","Mozilla/5.0 (Windows NT 10.0; Win64; x64) AppleWebKit/537.36 (KHTML, like Gecko) Chrome/118.0.0.0 Safari/537.36","WebKit","Chrome","118.0.0.0","Windows","10.0","null","es-AR,es;q=0.9,en-US;q=0.8,en;q=0.7","true","null","tones/880hz_short.mp3","null","","","tone_number_task","0","sesenta","tones/880hz_short.mp3","150","60","2","16",""
"","","","","","html-keyboard-response","112","377099","0.0-125.0-0.0","29","1","2023-10-31 21:00:38","a725c3012b74bf33a1020a98cb69c237","186.13.122.31","Mozilla/5.0 (Windows NT 10.0; Win64; x64) AppleWebKit/537.36 (KHTML, like Gecko) Chrome/118.0.0.0 Safari/537.36","WebKit","Chrome","118.0.0.0","Windows","10.0","null","es-AR,es;q=0.9,en-US;q=0.8,en;q=0.7","true","972","tones/880hz_short.mp3","s","","","empty_block","","sesenta","","","","2","16",""
"","","","","","html-keyboard-response","113","377395","0.0-125.0-1.0","29","1","2023-10-31 21:00:38","a725c3012b74bf33a1020a98cb69c237","186.13.122.31","Mozilla/5.0 (Windows NT 10.0; Win64; x64) AppleWebKit/537.36 (KHTML, like Gecko) Chrome/118.0.0.0 Safari/537.36","WebKit","Chrome","118.0.0.0","Windows","10.0","null","es-AR,es;q=0.9,en-US;q=0.8,en;q=0.7","true","293","tones/880hz_short.mp3","k","","","empty_block","","sesenta","","","","2","16",""
"","","","","","html-keyboard-response","114","380306","0.0-127.0","29","1","2023-10-31 21:00:38","a725c3012b74bf33a1020a98cb69c237","186.13.122.31","Mozilla/5.0 (Windows NT 10.0; Win64; x64) AppleWebKit/537.36 (KHTML, like Gecko) Chrome/118.0.0.0 Safari/537.36","WebKit","Chrome","118.0.0.0","Windows","10.0","null","es-AR,es;q=0.9,en-US;q=0.8,en;q=0.7","true","null","<div style=""font-size:100px;"">X</div>","null","","","fixation","","","","","","","",""
"","","","","","audio-keyboard-response","115","380562","0.0-128.0","29","1","2023-10-31 21:00:38","a725c3012b74bf33a1020a98cb69c237","186.13.122.31","Mozilla/5.0 (Windows NT 10.0; Win64; x64) AppleWebKit/537.36 (KHTML, like Gecko) Chrome/118.0.0.0 Safari/537.36","WebKit","Chrome","118.0.0.0","Windows","10.0","null","es-AR,es;q=0.9,en-US;q=0.8,en;q=0.7","true","null","tones/440hz_short.mp3","null","","","tone_number_task","102.5","cuarenta y ocho","tones/440hz_short.mp3","252.5","60","2","17",""
"","","","","","html-keyboard-response","116","381766","0.0-131.0-0.0","29","1","2023-10-31 21:00:38","a725c3012b74bf33a1020a98cb69c237","186.13.122.31","Mozilla/5.0 (Windows NT 10.0; Win64; x64) AppleWebKit/537.36 (KHTML, like Gecko) Chrome/118.0.0.0 Safari/537.36","WebKit","Chrome","118.0.0.0","Windows","10.0","null","es-AR,es;q=0.9,en-US;q=0.8,en;q=0.7","true","null","tones/440hz_short.mp3","null","","","empty_block","","cuarenta y ocho","","","","2","17",""
"","","","","","html-keyboard-response","117","382243","0.0-131.0-1.0","29","1","2023-10-31 21:00:38","a725c3012b74bf33a1020a98cb69c237","186.13.122.31","Mozilla/5.0 (Windows NT 10.0; Win64; x64) AppleWebKit/537.36 (KHTML, like Gecko) Chrome/118.0.0.0 Safari/537.36","WebKit","Chrome","118.0.0.0","Windows","10.0","null","es-AR,es;q=0.9,en-US;q=0.8,en;q=0.7","true","474","tones/440hz_short.mp3","s","","","empty_block","","cuarenta y ocho","","","","2","17",""
"","","","","","html-keyboard-response","118","385155","0.0-133.0","29","1","2023-10-31 21:00:38","a725c3012b74bf33a1020a98cb69c237","186.13.122.31","Mozilla/5.0 (Windows NT 10.0; Win64; x64) AppleWebKit/537.36 (KHTML, like Gecko) Chrome/118.0.0.0 Safari/537.36","WebKit","Chrome","118.0.0.0","Windows","10.0","null","es-AR,es;q=0.9,en-US;q=0.8,en;q=0.7","true","null","<div style=""font-size:100px;"">X</div>","null","","","fixation","","","","","","","",""
"","","","","","audio-keyboard-response","119","386334","0.0-134.0","29","1","2023-10-31 21:00:38","a725c3012b74bf33a1020a98cb69c237","186.13.122.31","Mozilla/5.0 (Windows NT 10.0; Win64; x64) AppleWebKit/537.36 (KHTML, like Gecko) Chrome/118.0.0.0 Safari/537.36","WebKit","Chrome","118.0.0.0","Windows","10.0","null","es-AR,es;q=0.9,en-US;q=0.8,en;q=0.7","true","null","tones/440hz_short.mp3","null","","","tone_number_task","1025","veinticinco","tones/440hz_short.mp3","1175","60","2","18",""
"","","","","","html-keyboard-response","120","386652","0.0-137.0-0.0","29","1","2023-10-31 21:00:38","a725c3012b74bf33a1020a98cb69c237","186.13.122.31","Mozilla/5.0 (Windows NT 10.0; Win64; x64) AppleWebKit/537.36 (KHTML, like Gecko) Chrome/118.0.0.0 Safari/537.36","WebKit","Chrome","118.0.0.0","Windows","10.0","null","es-AR,es;q=0.9,en-US;q=0.8,en;q=0.7","true","315","tones/440hz_short.mp3","a","","","empty_block","","veinticinco","","","","2","18",""
"","","","","","html-keyboard-response","121","387076","0.0-137.0-1.0","29","1","2023-10-31 21:00:38","a725c3012b74bf33a1020a98cb69c237","186.13.122.31","Mozilla/5.0 (Windows NT 10.0; Win64; x64) AppleWebKit/537.36 (KHTML, like Gecko) Chrome/118.0.0.0 Safari/537.36","WebKit","Chrome","118.0.0.0","Windows","10.0","null","es-AR,es;q=0.9,en-US;q=0.8,en;q=0.7","true","421","tones/440hz_short.mp3","j","","","empty_block","","veinticinco","","","","2","18",""
"","","","","","html-keyboard-response","122","389986","0.0-139.0","29","1","2023-10-31 21:00:38","a725c3012b74bf33a1020a98cb69c237","186.13.122.31","Mozilla/5.0 (Windows NT 10.0; Win64; x64) AppleWebKit/537.36 (KHTML, like Gecko) Chrome/118.0.0.0 Safari/537.36","WebKit","Chrome","118.0.0.0","Windows","10.0","null","es-AR,es;q=0.9,en-US;q=0.8,en;q=0.7","true","null","<div style=""font-size:100px;"">X</div>","null","","","fixation","","","","","","","",""
"","","","","","audio-keyboard-response","123","391166","0.0-140.0","29","1","2023-10-31 21:00:38","a725c3012b74bf33a1020a98cb69c237","186.13.122.31","Mozilla/5.0 (Windows NT 10.0; Win64; x64) AppleWebKit/537.36 (KHTML, like Gecko) Chrome/118.0.0.0 Safari/537.36","WebKit","Chrome","118.0.0.0","Windows","10.0","null","es-AR,es;q=0.9,en-US;q=0.8,en;q=0.7","true","null","tones/440hz_short.mp3","null","","","tone_number_task","1025","sesenta y ocho","tones/440hz_short.mp3","1175","60","2","19",""
"","","","","","html-keyboard-response","124","391659","0.0-143.0-0.0","29","1","2023-10-31 21:00:38","a725c3012b74bf33a1020a98cb69c237","186.13.122.31","Mozilla/5.0 (Windows NT 10.0; Win64; x64) AppleWebKit/537.36 (KHTML, like Gecko) Chrome/118.0.0.0 Safari/537.36","WebKit","Chrome","118.0.0.0","Windows","10.0","null","es-AR,es;q=0.9,en-US;q=0.8,en;q=0.7","true","491","tones/440hz_short.mp3","a","","","empty_block","","sesenta y ocho","","","","2","19",""
"","","","","","html-keyboard-response","125","392004","0.0-143.0-1.0","29","1","2023-10-31 21:00:38","a725c3012b74bf33a1020a98cb69c237","186.13.122.31","Mozilla/5.0 (Windows NT 10.0; Win64; x64) AppleWebKit/537.36 (KHTML, like Gecko) Chrome/118.0.0.0 Safari/537.36","WebKit","Chrome","118.0.0.0","Windows","10.0","null","es-AR,es;q=0.9,en-US;q=0.8,en;q=0.7","true","341","tones/440hz_short.mp3","k","","","empty_block","","sesenta y ocho","","","","2","19",""
"","","","","","html-keyboard-response","126","394915","0.0-145.0","29","1","2023-10-31 21:00:38","a725c3012b74bf33a1020a98cb69c237","186.13.122.31","Mozilla/5.0 (Windows NT 10.0; Win64; x64) AppleWebKit/537.36 (KHTML, like Gecko) Chrome/118.0.0.0 Safari/537.36","WebKit","Chrome","118.0.0.0","Windows","10.0","null","es-AR,es;q=0.9,en-US;q=0.8,en;q=0.7","true","null","<div style=""font-size:100px;"">X</div>","null","","","fixation","","","","","","","",""
"","","","","","audio-keyboard-response","127","396062","0.0-146.0","29","1","2023-10-31 21:00:38","a725c3012b74bf33a1020a98cb69c237","186.13.122.31","Mozilla/5.0 (Windows NT 10.0; Win64; x64) AppleWebKit/537.36 (KHTML, like Gecko) Chrome/118.0.0.0 Safari/537.36","WebKit","Chrome","118.0.0.0","Windows","10.0","null","es-AR,es;q=0.9,en-US;q=0.8,en;q=0.7","true","null","tones/440hz_short.mp3","null","","","tone_number_task","992.5","treinta y ocho","tones/440hz_short.mp3","1142.5","60","2","20",""
"","","","","","html-keyboard-response","128","396652","0.0-149.0-0.0","29","1","2023-10-31 21:00:38","a725c3012b74bf33a1020a98cb69c237","186.13.122.31","Mozilla/5.0 (Windows NT 10.0; Win64; x64) AppleWebKit/537.36 (KHTML, like Gecko) Chrome/118.0.0.0 Safari/537.36","WebKit","Chrome","118.0.0.0","Windows","10.0","null","es-AR,es;q=0.9,en-US;q=0.8,en;q=0.7","true","587","tones/440hz_short.mp3","a","","","empty_block","","treinta y ocho","","","","2","20",""
"","","","","","html-keyboard-response","129","397027","0.0-149.0-1.0","29","1","2023-10-31 21:00:38","a725c3012b74bf33a1020a98cb69c237","186.13.122.31","Mozilla/5.0 (Windows NT 10.0; Win64; x64) AppleWebKit/537.36 (KHTML, like Gecko) Chrome/118.0.0.0 Safari/537.36","WebKit","Chrome","118.0.0.0","Windows","10.0","null","es-AR,es;q=0.9,en-US;q=0.8,en;q=0.7","true","372","tones/440hz_short.mp3","j","","","empty_block","","treinta y ocho","","","","2","20",""
"","","","","","html-keyboard-response","130","399938","0.0-151.0","29","1","2023-10-31 21:00:38","a725c3012b74bf33a1020a98cb69c237","186.13.122.31","Mozilla/5.0 (Windows NT 10.0; Win64; x64) AppleWebKit/537.36 (KHTML, like Gecko) Chrome/118.0.0.0 Safari/537.36","WebKit","Chrome","118.0.0.0","Windows","10.0","null","es-AR,es;q=0.9,en-US;q=0.8,en;q=0.7","true","null","<div style=""font-size:100px;"">X</div>","null","","","fixation","","","","","","","",""
"","","","","","audio-keyboard-response","131","400092","0.0-152.0","29","1","2023-10-31 21:00:38","a725c3012b74bf33a1020a98cb69c237","186.13.122.31","Mozilla/5.0 (Windows NT 10.0; Win64; x64) AppleWebKit/537.36 (KHTML, like Gecko) Chrome/118.0.0.0 Safari/537.36","WebKit","Chrome","118.0.0.0","Windows","10.0","null","es-AR,es;q=0.9,en-US;q=0.8,en;q=0.7","true","null","tones/880hz_short.mp3","null","","","tone_number_task","0","cuarenta y siete","tones/880hz_short.mp3","150","60","2","21",""
"","","","","","html-keyboard-response","132","400988","0.0-155.0-0.0","29","1","2023-10-31 21:00:38","a725c3012b74bf33a1020a98cb69c237","186.13.122.31","Mozilla/5.0 (Windows NT 10.0; Win64; x64) AppleWebKit/537.36 (KHTML, like Gecko) Chrome/118.0.0.0 Safari/537.36","WebKit","Chrome","118.0.0.0","Windows","10.0","null","es-AR,es;q=0.9,en-US;q=0.8,en;q=0.7","true","894","tones/880hz_short.mp3","a","","","empty_block","","cuarenta y siete","","","","2","21",""
"","","","","","html-keyboard-response","133","401900","0.0-155.0-1.0","29","1","2023-10-31 21:00:38","a725c3012b74bf33a1020a98cb69c237","186.13.122.31","Mozilla/5.0 (Windows NT 10.0; Win64; x64) AppleWebKit/537.36 (KHTML, like Gecko) Chrome/118.0.0.0 Safari/537.36","WebKit","Chrome","118.0.0.0","Windows","10.0","null","es-AR,es;q=0.9,en-US;q=0.8,en;q=0.7","true","909","tones/880hz_short.mp3","k","","","empty_block","","cuarenta y siete","","","","2","21",""
"","","","","","html-keyboard-response","134","404813","0.0-157.0","29","1","2023-10-31 21:00:38","a725c3012b74bf33a1020a98cb69c237","186.13.122.31","Mozilla/5.0 (Windows NT 10.0; Win64; x64) AppleWebKit/537.36 (KHTML, like Gecko) Chrome/118.0.0.0 Safari/537.36","WebKit","Chrome","118.0.0.0","Windows","10.0","null","es-AR,es;q=0.9,en-US;q=0.8,en;q=0.7","true","null","<div style=""font-size:100px;"">X</div>","null","","","fixation","","","","","","","",""
"","","","","","audio-keyboard-response","135","405958","0.0-158.0","29","1","2023-10-31 21:00:38","a725c3012b74bf33a1020a98cb69c237","186.13.122.31","Mozilla/5.0 (Windows NT 10.0; Win64; x64) AppleWebKit/537.36 (KHTML, like Gecko) Chrome/118.0.0.0 Safari/537.36","WebKit","Chrome","118.0.0.0","Windows","10.0","null","es-AR,es;q=0.9,en-US;q=0.8,en;q=0.7","true","null","tones/880hz_short.mp3","null","","","tone_number_task","992.5","treinta y cinco","tones/880hz_short.mp3","1142.5","60","2","22",""
"","","","","","html-keyboard-response","136","406500","0.0-161.0-0.0","29","1","2023-10-31 21:00:38","a725c3012b74bf33a1020a98cb69c237","186.13.122.31","Mozilla/5.0 (Windows NT 10.0; Win64; x64) AppleWebKit/537.36 (KHTML, like Gecko) Chrome/118.0.0.0 Safari/537.36","WebKit","Chrome","118.0.0.0","Windows","10.0","null","es-AR,es;q=0.9,en-US;q=0.8,en;q=0.7","true","538","tones/880hz_short.mp3","s","","","empty_block","","treinta y cinco","","","","2","22",""
"","","","","","html-keyboard-response","137","406836","0.0-161.0-1.0","29","1","2023-10-31 21:00:38","a725c3012b74bf33a1020a98cb69c237","186.13.122.31","Mozilla/5.0 (Windows NT 10.0; Win64; x64) AppleWebKit/537.36 (KHTML, like Gecko) Chrome/118.0.0.0 Safari/537.36","WebKit","Chrome","118.0.0.0","Windows","10.0","null","es-AR,es;q=0.9,en-US;q=0.8,en;q=0.7","true","333","tones/880hz_short.mp3","j","","","empty_block","","treinta y cinco","","","","2","22",""
"","","","","","html-keyboard-response","138","409748","0.0-163.0","29","1","2023-10-31 21:00:38","a725c3012b74bf33a1020a98cb69c237","186.13.122.31","Mozilla/5.0 (Windows NT 10.0; Win64; x64) AppleWebKit/537.36 (KHTML, like Gecko) Chrome/118.0.0.0 Safari/537.36","WebKit","Chrome","118.0.0.0","Windows","10.0","null","es-AR,es;q=0.9,en-US;q=0.8,en;q=0.7","true","null","<div style=""font-size:100px;"">X</div>","null","","","fixation","","","","","","","",""
"","","","","","audio-keyboard-response","139","409903","0.0-164.0","29","1","2023-10-31 21:00:38","a725c3012b74bf33a1020a98cb69c237","186.13.122.31","Mozilla/5.0 (Windows NT 10.0; Win64; x64) AppleWebKit/537.36 (KHTML, like Gecko) Chrome/118.0.0.0 Safari/537.36","WebKit","Chrome","118.0.0.0","Windows","10.0","null","es-AR,es;q=0.9,en-US;q=0.8,en;q=0.7","true","null","tones/880hz_short.mp3","null","","","tone_number_task","0","treinta y ocho","tones/880hz_short.mp3","150","60","2","23",""
"","","","","","html-keyboard-response","140","410757","0.0-167.0-0.0","29","1","2023-10-31 21:00:38","a725c3012b74bf33a1020a98cb69c237","186.13.122.31","Mozilla/5.0 (Windows NT 10.0; Win64; x64) AppleWebKit/537.36 (KHTML, like Gecko) Chrome/118.0.0.0 Safari/537.36","WebKit","Chrome","118.0.0.0","Windows","10.0","null","es-AR,es;q=0.9,en-US;q=0.8,en;q=0.7","true","850","tones/880hz_short.mp3","s","","","empty_block","","treinta y ocho","","","","2","23",""
"","","","","","html-keyboard-response","141","411212","0.0-167.0-1.0","29","1","2023-10-31 21:00:38","a725c3012b74bf33a1020a98cb69c237","186.13.122.31","Mozilla/5.0 (Windows NT 10.0; Win64; x64) AppleWebKit/537.36 (KHTML, like Gecko) Chrome/118.0.0.0 Safari/537.36","WebKit","Chrome","118.0.0.0","Windows","10.0","null","es-AR,es;q=0.9,en-US;q=0.8,en;q=0.7","true","452","tones/880hz_short.mp3","j","","","empty_block","","treinta y ocho","","","","2","23",""
"","","","","","html-keyboard-response","142","414124","0.0-169.0","29","1","2023-10-31 21:00:38","a725c3012b74bf33a1020a98cb69c237","186.13.122.31","Mozilla/5.0 (Windows NT 10.0; Win64; x64) AppleWebKit/537.36 (KHTML, like Gecko) Chrome/118.0.0.0 Safari/537.36","WebKit","Chrome","118.0.0.0","Windows","10.0","null","es-AR,es;q=0.9,en-US;q=0.8,en;q=0.7","true","null","<div style=""font-size:100px;"">X</div>","null","","","fixation","","","","","","","",""
"","","","","","audio-keyboard-response","143","414279","0.0-170.0","29","1","2023-10-31 21:00:38","a725c3012b74bf33a1020a98cb69c237","186.13.122.31","Mozilla/5.0 (Windows NT 10.0; Win64; x64) AppleWebKit/537.36 (KHTML, like Gecko) Chrome/118.0.0.0 Safari/537.36","WebKit","Chrome","118.0.0.0","Windows","10.0","null","es-AR,es;q=0.9,en-US;q=0.8,en;q=0.7","true","null","tones/880hz_short.mp3","null","","","tone_number_task","0","cincuenta y cuatro","tones/880hz_short.mp3","150","60","2","24",""
"","","","","","html-keyboard-response","144","415484","0.0-173.0-0.0","29","1","2023-10-31 21:00:38","a725c3012b74bf33a1020a98cb69c237","186.13.122.31","Mozilla/5.0 (Windows NT 10.0; Win64; x64) AppleWebKit/537.36 (KHTML, like Gecko) Chrome/118.0.0.0 Safari/537.36","WebKit","Chrome","118.0.0.0","Windows","10.0","null","es-AR,es;q=0.9,en-US;q=0.8,en;q=0.7","true","null","tones/880hz_short.mp3","null","","","empty_block","","cincuenta y cuatro","","","","2","24",""
"","","","","","html-keyboard-response","145","415629","0.0-173.0-1.0","29","1","2023-10-31 21:00:38","a725c3012b74bf33a1020a98cb69c237","186.13.122.31","Mozilla/5.0 (Windows NT 10.0; Win64; x64) AppleWebKit/537.36 (KHTML, like Gecko) Chrome/118.0.0.0 Safari/537.36","WebKit","Chrome","118.0.0.0","Windows","10.0","null","es-AR,es;q=0.9,en-US;q=0.8,en;q=0.7","true","141","tones/880hz_short.mp3","s","","","empty_block","","cincuenta y cuatro","","","","2","24",""
"","","","","","html-keyboard-response","146","418541","0.0-175.0","29","1","2023-10-31 21:00:38","a725c3012b74bf33a1020a98cb69c237","186.13.122.31","Mozilla/5.0 (Windows NT 10.0; Win64; x64) AppleWebKit/537.36 (KHTML, like Gecko) Chrome/118.0.0.0 Safari/537.36","WebKit","Chrome","118.0.0.0","Windows","10.0","null","es-AR,es;q=0.9,en-US;q=0.8,en;q=0.7","true","null","<div style=""font-size:100px;"">X</div>","null","","","fixation","","","","","","","",""
"","","","","","audio-keyboard-response","147","418796","0.0-176.0","29","1","2023-10-31 21:00:38","a725c3012b74bf33a1020a98cb69c237","186.13.122.31","Mozilla/5.0 (Windows NT 10.0; Win64; x64) AppleWebKit/537.36 (KHTML, like Gecko) Chrome/118.0.0.0 Safari/537.36","WebKit","Chrome","118.0.0.0","Windows","10.0","null","es-AR,es;q=0.9,en-US;q=0.8,en;q=0.7","true","null","tones/880hz_short.mp3","null","","","tone_number_task","102.5","veintiseis","tones/880hz_short.mp3","252.5","60","2","25",""
"","","","","","html-keyboard-response","148","419999","0.0-179.0-0.0","29","1","2023-10-31 21:00:38","a725c3012b74bf33a1020a98cb69c237","186.13.122.31","Mozilla/5.0 (Windows NT 10.0; Win64; x64) AppleWebKit/537.36 (KHTML, like Gecko) Chrome/118.0.0.0 Safari/537.36","WebKit","Chrome","118.0.0.0","Windows","10.0","null","es-AR,es;q=0.9,en-US;q=0.8,en;q=0.7","true","null","tones/880hz_short.mp3","null","","","empty_block","","veintiseis","","","","2","25",""
"","","","","","html-keyboard-response","149","420462","0.0-179.0-1.0","29","1","2023-10-31 21:00:38","a725c3012b74bf33a1020a98cb69c237","186.13.122.31","Mozilla/5.0 (Windows NT 10.0; Win64; x64) AppleWebKit/537.36 (KHTML, like Gecko) Chrome/118.0.0.0 Safari/537.36","WebKit","Chrome","118.0.0.0","Windows","10.0","null","es-AR,es;q=0.9,en-US;q=0.8,en;q=0.7","true","459","tones/880hz_short.mp3","s","","","empty_block","","veintiseis","","","","2","25",""
"","","","","","html-keyboard-response","150","423373","0.0-181.0","29","1","2023-10-31 21:00:38","a725c3012b74bf33a1020a98cb69c237","186.13.122.31","Mozilla/5.0 (Windows NT 10.0; Win64; x64) AppleWebKit/537.36 (KHTML, like Gecko) Chrome/118.0.0.0 Safari/537.36","WebKit","Chrome","118.0.0.0","Windows","10.0","null","es-AR,es;q=0.9,en-US;q=0.8,en;q=0.7","true","null","<div style=""font-size:100px;"">X</div>","null","","","fixation","","","","","","","",""
"","","","","","audio-keyboard-response","151","424554","0.0-182.0","29","1","2023-10-31 21:00:38","a725c3012b74bf33a1020a98cb69c237","186.13.122.31","Mozilla/5.0 (Windows NT 10.0; Win64; x64) AppleWebKit/537.36 (KHTML, like Gecko) Chrome/118.0.0.0 Safari/537.36","WebKit","Chrome","118.0.0.0","Windows","10.0","null","es-AR,es;q=0.9,en-US;q=0.8,en;q=0.7","true","null","tones/880hz_short.mp3","null","","","tone_number_task","1025","sesenta","tones/880hz_short.mp3","1175","60","2","26",""
"","","","","","html-keyboard-response","152","424869","0.0-185.0-0.0","29","1","2023-10-31 21:00:38","a725c3012b74bf33a1020a98cb69c237","186.13.122.31","Mozilla/5.0 (Windows NT 10.0; Win64; x64) AppleWebKit/537.36 (KHTML, like Gecko) Chrome/118.0.0.0 Safari/537.36","WebKit","Chrome","118.0.0.0","Windows","10.0","null","es-AR,es;q=0.9,en-US;q=0.8,en;q=0.7","true","312","tones/880hz_short.mp3","s","","","empty_block","","sesenta","","","","2","26",""
"","","","","","html-keyboard-response","153","425284","0.0-185.0-1.0","29","1","2023-10-31 21:00:38","a725c3012b74bf33a1020a98cb69c237","186.13.122.31","Mozilla/5.0 (Windows NT 10.0; Win64; x64) AppleWebKit/537.36 (KHTML, like Gecko) Chrome/118.0.0.0 Safari/537.36","WebKit","Chrome","118.0.0.0","Windows","10.0","null","es-AR,es;q=0.9,en-US;q=0.8,en;q=0.7","true","413","tones/880hz_short.mp3","k","","","empty_block","","sesenta","","","","2","26",""
"","","","","","html-keyboard-response","154","428196","0.0-187.0","29","1","2023-10-31 21:00:38","a725c3012b74bf33a1020a98cb69c237","186.13.122.31","Mozilla/5.0 (Windows NT 10.0; Win64; x64) AppleWebKit/537.36 (KHTML, like Gecko) Chrome/118.0.0.0 Safari/537.36","WebKit","Chrome","118.0.0.0","Windows","10.0","null","es-AR,es;q=0.9,en-US;q=0.8,en;q=0.7","true","null","<div style=""font-size:100px;"">X</div>","null","","","fixation","","","","","","","",""
"","","","","","audio-keyboard-response","155","428453","0.0-188.0","29","1","2023-10-31 21:00:38","a725c3012b74bf33a1020a98cb69c237","186.13.122.31","Mozilla/5.0 (Windows NT 10.0; Win64; x64) AppleWebKit/537.36 (KHTML, like Gecko) Chrome/118.0.0.0 Safari/537.36","WebKit","Chrome","118.0.0.0","Windows","10.0","null","es-AR,es;q=0.9,en-US;q=0.8,en;q=0.7","true","null","tones/440hz_short.mp3","null","","","tone_number_task","102.5","cincuenta","tones/440hz_short.mp3","252.5","60","2","27",""
"","","","","","html-keyboard-response","156","429094","0.0-191.0-0.0","29","1","2023-10-31 21:00:38","a725c3012b74bf33a1020a98cb69c237","186.13.122.31","Mozilla/5.0 (Windows NT 10.0; Win64; x64) AppleWebKit/537.36 (KHTML, like Gecko) Chrome/118.0.0.0 Safari/537.36","WebKit","Chrome","118.0.0.0","Windows","10.0","null","es-AR,es;q=0.9,en-US;q=0.8,en;q=0.7","true","637","tones/440hz_short.mp3","a","","","empty_block","","cincuenta","","","","2","27",""
"","","","","","html-keyboard-response","157","429429","0.0-191.0-1.0","29","1","2023-10-31 21:00:38","a725c3012b74bf33a1020a98cb69c237","186.13.122.31","Mozilla/5.0 (Windows NT 10.0; Win64; x64) AppleWebKit/537.36 (KHTML, like Gecko) Chrome/118.0.0.0 Safari/537.36","WebKit","Chrome","118.0.0.0","Windows","10.0","null","es-AR,es;q=0.9,en-US;q=0.8,en;q=0.7","true","332","tones/440hz_short.mp3","k","","","empty_block","","cincuenta","","","","2","27",""
"","","","","","html-keyboard-response","158","432341","0.0-193.0","29","1","2023-10-31 21:00:38","a725c3012b74bf33a1020a98cb69c237","186.13.122.31","Mozilla/5.0 (Windows NT 10.0; Win64; x64) AppleWebKit/537.36 (KHTML, like Gecko) Chrome/118.0.0.0 Safari/537.36","WebKit","Chrome","118.0.0.0","Windows","10.0","null","es-AR,es;q=0.9,en-US;q=0.8,en;q=0.7","true","null","<div style=""font-size:100px;"">X</div>","null","","","fixation","","","","","","","",""
"","","","","","audio-keyboard-response","159","432495","0.0-194.0","29","1","2023-10-31 21:00:38","a725c3012b74bf33a1020a98cb69c237","186.13.122.31","Mozilla/5.0 (Windows NT 10.0; Win64; x64) AppleWebKit/537.36 (KHTML, like Gecko) Chrome/118.0.0.0 Safari/537.36","WebKit","Chrome","118.0.0.0","Windows","10.0","null","es-AR,es;q=0.9,en-US;q=0.8,en;q=0.7","true","null","tones/440hz_short.mp3","null","","","tone_number_task","0","treinta","tones/440hz_short.mp3","150","60","2","28",""
"","","","","","html-keyboard-response","160","433157","0.0-197.0-0.0","29","1","2023-10-31 21:00:38","a725c3012b74bf33a1020a98cb69c237","186.13.122.31","Mozilla/5.0 (Windows NT 10.0; Win64; x64) AppleWebKit/537.36 (KHTML, like Gecko) Chrome/118.0.0.0 Safari/537.36","WebKit","Chrome","118.0.0.0","Windows","10.0","null","es-AR,es;q=0.9,en-US;q=0.8,en;q=0.7","true","658","tones/440hz_short.mp3","a","","","empty_block","","treinta","","","","2","28",""
"","","","","","html-keyboard-response","161","433453","0.0-197.0-1.0","29","1","2023-10-31 21:00:38","a725c3012b74bf33a1020a98cb69c237","186.13.122.31","Mozilla/5.0 (Windows NT 10.0; Win64; x64) AppleWebKit/537.36 (KHTML, like Gecko) Chrome/118.0.0.0 Safari/537.36","WebKit","Chrome","118.0.0.0","Windows","10.0","null","es-AR,es;q=0.9,en-US;q=0.8,en;q=0.7","true","293","tones/440hz_short.mp3","j","","","empty_block","","treinta","","","","2","28",""
"","","","","","html-keyboard-response","162","436366","0.0-199.0","29","1","2023-10-31 21:00:38","a725c3012b74bf33a1020a98cb69c237","186.13.122.31","Mozilla/5.0 (Windows NT 10.0; Win64; x64) AppleWebKit/537.36 (KHTML, like Gecko) Chrome/118.0.0.0 Safari/537.36","WebKit","Chrome","118.0.0.0","Windows","10.0","null","es-AR,es;q=0.9,en-US;q=0.8,en;q=0.7","true","null","<div style=""font-size:100px;"">X</div>","null","","","fixation","","","","","","","",""
"","","","","","audio-keyboard-response","163","436520","0.0-200.0","29","1","2023-10-31 21:00:38","a725c3012b74bf33a1020a98cb69c237","186.13.122.31","Mozilla/5.0 (Windows NT 10.0; Win64; x64) AppleWebKit/537.36 (KHTML, like Gecko) Chrome/118.0.0.0 Safari/537.36","WebKit","Chrome","118.0.0.0","Windows","10.0","null","es-AR,es;q=0.9,en-US;q=0.8,en;q=0.7","true","null","tones/440hz_short.mp3","null","","","tone_number_task","0","sesenta y tres","tones/440hz_short.mp3","150","60","2","29",""
"","","","","","html-keyboard-response","164","437182","0.0-203.0-0.0","29","1","2023-10-31 21:00:38","a725c3012b74bf33a1020a98cb69c237","186.13.122.31","Mozilla/5.0 (Windows NT 10.0; Win64; x64) AppleWebKit/537.36 (KHTML, like Gecko) Chrome/118.0.0.0 Safari/537.36","WebKit","Chrome","118.0.0.0","Windows","10.0","null","es-AR,es;q=0.9,en-US;q=0.8,en;q=0.7","true","658","tones/440hz_short.mp3","a","","","empty_block","","sesenta y tres","","","","2","29",""
"","","","","","html-keyboard-response","165","437461","0.0-203.0-1.0","29","1","2023-10-31 21:00:38","a725c3012b74bf33a1020a98cb69c237","186.13.122.31","Mozilla/5.0 (Windows NT 10.0; Win64; x64) AppleWebKit/537.36 (KHTML, like Gecko) Chrome/118.0.0.0 Safari/537.36","WebKit","Chrome","118.0.0.0","Windows","10.0","null","es-AR,es;q=0.9,en-US;q=0.8,en;q=0.7","true","277","tones/440hz_short.mp3","k","","","empty_block","","sesenta y tres","","","","2","29",""
"","","","","","html-keyboard-response","166","440374","0.0-205.0","29","1","2023-10-31 21:00:38","a725c3012b74bf33a1020a98cb69c237","186.13.122.31","Mozilla/5.0 (Windows NT 10.0; Win64; x64) AppleWebKit/537.36 (KHTML, like Gecko) Chrome/118.0.0.0 Safari/537.36","WebKit","Chrome","118.0.0.0","Windows","10.0","null","es-AR,es;q=0.9,en-US;q=0.8,en;q=0.7","true","null","<div style=""font-size:100px;"">X</div>","null","","","fixation","","","","","","","",""
"","","","","","audio-keyboard-response","167","441521","0.0-206.0","29","1","2023-10-31 21:00:38","a725c3012b74bf33a1020a98cb69c237","186.13.122.31","Mozilla/5.0 (Windows NT 10.0; Win64; x64) AppleWebKit/537.36 (KHTML, like Gecko) Chrome/118.0.0.0 Safari/537.36","WebKit","Chrome","118.0.0.0","Windows","10.0","null","es-AR,es;q=0.9,en-US;q=0.8,en;q=0.7","true","null","tones/880hz_short.mp3","null","","","tone_number_task","992.5","treinta y siete","tones/880hz_short.mp3","1142.5","60","2","30",""
"","","","","","html-keyboard-response","168","441782","0.0-209.0-0.0","29","1","2023-10-31 21:00:38","a725c3012b74bf33a1020a98cb69c237","186.13.122.31","Mozilla/5.0 (Windows NT 10.0; Win64; x64) AppleWebKit/537.36 (KHTML, like Gecko) Chrome/118.0.0.0 Safari/537.36","WebKit","Chrome","118.0.0.0","Windows","10.0","null","es-AR,es;q=0.9,en-US;q=0.8,en;q=0.7","true","257","tones/880hz_short.mp3","s","","","empty_block","","treinta y siete","","","","2","30",""
"","","","","","html-keyboard-response","169","442093","0.0-209.0-1.0","29","1","2023-10-31 21:00:38","a725c3012b74bf33a1020a98cb69c237","186.13.122.31","Mozilla/5.0 (Windows NT 10.0; Win64; x64) AppleWebKit/537.36 (KHTML, like Gecko) Chrome/118.0.0.0 Safari/537.36","WebKit","Chrome","118.0.0.0","Windows","10.0","null","es-AR,es;q=0.9,en-US;q=0.8,en;q=0.7","true","308","tones/880hz_short.mp3","j","","","empty_block","","treinta y siete","","","","2","30",""
"","","","","","html-keyboard-response","170","445005","0.0-211.0","29","1","2023-10-31 21:00:38","a725c3012b74bf33a1020a98cb69c237","186.13.122.31","Mozilla/5.0 (Windows NT 10.0; Win64; x64) AppleWebKit/537.36 (KHTML, like Gecko) Chrome/118.0.0.0 Safari/537.36","WebKit","Chrome","118.0.0.0","Windows","10.0","null","es-AR,es;q=0.9,en-US;q=0.8,en;q=0.7","true","null","<div style=""font-size:100px;"">X</div>","null","","","fixation","","","","","","","",""
"","","","","","audio-keyboard-response","171","445159","0.0-212.0","29","1","2023-10-31 21:00:38","a725c3012b74bf33a1020a98cb69c237","186.13.122.31","Mozilla/5.0 (Windows NT 10.0; Win64; x64) AppleWebKit/537.36 (KHTML, like Gecko) Chrome/118.0.0.0 Safari/537.36","WebKit","Chrome","118.0.0.0","Windows","10.0","null","es-AR,es;q=0.9,en-US;q=0.8,en;q=0.7","true","null","tones/440hz_short.mp3","null","","","tone_number_task","0","sesenta y uno","tones/440hz_short.mp3","150","60","2","31",""
"","","","","","html-keyboard-response","172","445822","0.0-215.0-0.0","29","1","2023-10-31 21:00:38","a725c3012b74bf33a1020a98cb69c237","186.13.122.31","Mozilla/5.0 (Windows NT 10.0; Win64; x64) AppleWebKit/537.36 (KHTML, like Gecko) Chrome/118.0.0.0 Safari/537.36","WebKit","Chrome","118.0.0.0","Windows","10.0","null","es-AR,es;q=0.9,en-US;q=0.8,en;q=0.7","true","659","tones/440hz_short.mp3","s","","","empty_block","","sesenta y uno","","","","2","31",""
"","","","","","html-keyboard-response","173","446077","0.0-215.0-1.0","29","1","2023-10-31 21:00:38","a725c3012b74bf33a1020a98cb69c237","186.13.122.31","Mozilla/5.0 (Windows NT 10.0; Win64; x64) AppleWebKit/537.36 (KHTML, like Gecko) Chrome/118.0.0.0 Safari/537.36","WebKit","Chrome","118.0.0.0","Windows","10.0","null","es-AR,es;q=0.9,en-US;q=0.8,en;q=0.7","true","252","tones/440hz_short.mp3","k","","","empty_block","","sesenta y uno","","","","2","31",""
"","","","","","html-keyboard-response","174","448990","0.0-217.0","29","1","2023-10-31 21:00:38","a725c3012b74bf33a1020a98cb69c237","186.13.122.31","Mozilla/5.0 (Windows NT 10.0; Win64; x64) AppleWebKit/537.36 (KHTML, like Gecko) Chrome/118.0.0.0 Safari/537.36","WebKit","Chrome","118.0.0.0","Windows","10.0","null","es-AR,es;q=0.9,en-US;q=0.8,en;q=0.7","true","null","<div style=""font-size:100px;"">X</div>","null","","","fixation","","","","","","","",""
"","","","","","audio-keyboard-response","175","450169","0.0-218.0","29","1","2023-10-31 21:00:38","a725c3012b74bf33a1020a98cb69c237","186.13.122.31","Mozilla/5.0 (Windows NT 10.0; Win64; x64) AppleWebKit/537.36 (KHTML, like Gecko) Chrome/118.0.0.0 Safari/537.36","WebKit","Chrome","118.0.0.0","Windows","10.0","null","es-AR,es;q=0.9,en-US;q=0.8,en;q=0.7","true","null","tones/880hz_short.mp3","null","","","tone_number_task","1025","treinta y cinco","tones/880hz_short.mp3","1175","60","2","32",""
"","","","","","html-keyboard-response","176","450837","0.0-221.0-0.0","29","1","2023-10-31 21:00:38","a725c3012b74bf33a1020a98cb69c237","186.13.122.31","Mozilla/5.0 (Windows NT 10.0; Win64; x64) AppleWebKit/537.36 (KHTML, like Gecko) Chrome/118.0.0.0 Safari/537.36","WebKit","Chrome","118.0.0.0","Windows","10.0","null","es-AR,es;q=0.9,en-US;q=0.8,en;q=0.7","true","664","tones/880hz_short.mp3","s","","","empty_block","","treinta y cinco","","","","2","32",""
"","","","","","html-keyboard-response","177","451317","0.0-221.0-1.0","29","1","2023-10-31 21:00:38","a725c3012b74bf33a1020a98cb69c237","186.13.122.31","Mozilla/5.0 (Windows NT 10.0; Win64; x64) AppleWebKit/537.36 (KHTML, like Gecko) Chrome/118.0.0.0 Safari/537.36","WebKit","Chrome","118.0.0.0","Windows","10.0","null","es-AR,es;q=0.9,en-US;q=0.8,en;q=0.7","true","477","tones/880hz_short.mp3","j","","","empty_block","","treinta y cinco","","","","2","32",""
"","","","","","html-keyboard-response","178","454229","0.0-223.0","29","1","2023-10-31 21:00:38","a725c3012b74bf33a1020a98cb69c237","186.13.122.31","Mozilla/5.0 (Windows NT 10.0; Win64; x64) AppleWebKit/537.36 (KHTML, like Gecko) Chrome/118.0.0.0 Safari/537.36","WebKit","Chrome","118.0.0.0","Windows","10.0","null","es-AR,es;q=0.9,en-US;q=0.8,en;q=0.7","true","null","<div style=""font-size:100px;"">X</div>","null","","","fixation","","","","","","","",""
"","","","","","audio-keyboard-response","179","455408","0.0-224.0","29","1","2023-10-31 21:00:38","a725c3012b74bf33a1020a98cb69c237","186.13.122.31","Mozilla/5.0 (Windows NT 10.0; Win64; x64) AppleWebKit/537.36 (KHTML, like Gecko) Chrome/118.0.0.0 Safari/537.36","WebKit","Chrome","118.0.0.0","Windows","10.0","null","es-AR,es;q=0.9,en-US;q=0.8,en;q=0.7","true","null","tones/440hz_short.mp3","null","","","tone_number_task","1025","cincuenta y seis","tones/440hz_short.mp3","1175","60","2","33",""
"","","","","","html-keyboard-response","180","455773","0.0-227.0-0.0","29","1","2023-10-31 21:00:38","a725c3012b74bf33a1020a98cb69c237","186.13.122.31","Mozilla/5.0 (Windows NT 10.0; Win64; x64) AppleWebKit/537.36 (KHTML, like Gecko) Chrome/118.0.0.0 Safari/537.36","WebKit","Chrome","118.0.0.0","Windows","10.0","null","es-AR,es;q=0.9,en-US;q=0.8,en;q=0.7","true","362","tones/440hz_short.mp3","a","","","empty_block","","cincuenta y seis","","","","2","33",""
"","","","","","html-keyboard-response","181","456822","0.0-227.0-1.0","29","1","2023-10-31 21:00:38","a725c3012b74bf33a1020a98cb69c237","186.13.122.31","Mozilla/5.0 (Windows NT 10.0; Win64; x64) AppleWebKit/537.36 (KHTML, like Gecko) Chrome/118.0.0.0 Safari/537.36","WebKit","Chrome","118.0.0.0","Windows","10.0","null","es-AR,es;q=0.9,en-US;q=0.8,en;q=0.7","true","1045","tones/440hz_short.mp3","k","","","empty_block","","cincuenta y seis","","","","2","33",""
"","","","","","html-keyboard-response","182","459735","0.0-229.0","29","1","2023-10-31 21:00:38","a725c3012b74bf33a1020a98cb69c237","186.13.122.31","Mozilla/5.0 (Windows NT 10.0; Win64; x64) AppleWebKit/537.36 (KHTML, like Gecko) Chrome/118.0.0.0 Safari/537.36","WebKit","Chrome","118.0.0.0","Windows","10.0","null","es-AR,es;q=0.9,en-US;q=0.8,en;q=0.7","true","null","<div style=""font-size:100px;"">X</div>","null","","","fixation","","","","","","","",""
"","","","","","audio-keyboard-response","183","459991","0.0-230.0","29","1","2023-10-31 21:00:38","a725c3012b74bf33a1020a98cb69c237","186.13.122.31","Mozilla/5.0 (Windows NT 10.0; Win64; x64) AppleWebKit/537.36 (KHTML, like Gecko) Chrome/118.0.0.0 Safari/537.36","WebKit","Chrome","118.0.0.0","Windows","10.0","null","es-AR,es;q=0.9,en-US;q=0.8,en;q=0.7","true","null","tones/440hz_short.mp3","null","","","tone_number_task","102.5","cuarenta y siete","tones/440hz_short.mp3","252.5","60","2","34",""
"","","","","","html-keyboard-response","184","461196","0.0-233.0-0.0","29","1","2023-10-31 21:00:38","a725c3012b74bf33a1020a98cb69c237","186.13.122.31","Mozilla/5.0 (Windows NT 10.0; Win64; x64) AppleWebKit/537.36 (KHTML, like Gecko) Chrome/118.0.0.0 Safari/537.36","WebKit","Chrome","118.0.0.0","Windows","10.0","null","es-AR,es;q=0.9,en-US;q=0.8,en;q=0.7","true","null","tones/440hz_short.mp3","null","","","empty_block","","cuarenta y siete","","","","2","34",""
"","","","","","html-keyboard-response","185","462053","0.0-233.0-1.0","29","1","2023-10-31 21:00:38","a725c3012b74bf33a1020a98cb69c237","186.13.122.31","Mozilla/5.0 (Windows NT 10.0; Win64; x64) AppleWebKit/537.36 (KHTML, like Gecko) Chrome/118.0.0.0 Safari/537.36","WebKit","Chrome","118.0.0.0","Windows","10.0","null","es-AR,es;q=0.9,en-US;q=0.8,en;q=0.7","true","853","tones/440hz_short.mp3","a","","","empty_block","","cuarenta y siete","","","","2","34",""
"","","","","","html-keyboard-response","186","464966","0.0-235.0","29","1","2023-10-31 21:00:38","a725c3012b74bf33a1020a98cb69c237","186.13.122.31","Mozilla/5.0 (Windows NT 10.0; Win64; x64) AppleWebKit/537.36 (KHTML, like Gecko) Chrome/118.0.0.0 Safari/537.36","WebKit","Chrome","118.0.0.0","Windows","10.0","null","es-AR,es;q=0.9,en-US;q=0.8,en;q=0.7","true","null","<div style=""font-size:100px;"">X</div>","null","","","fixation","","","","","","","",""
"","","","","","audio-keyboard-response","187","465120","0.0-236.0","29","1","2023-10-31 21:00:38","a725c3012b74bf33a1020a98cb69c237","186.13.122.31","Mozilla/5.0 (Windows NT 10.0; Win64; x64) AppleWebKit/537.36 (KHTML, like Gecko) Chrome/118.0.0.0 Safari/537.36","WebKit","Chrome","118.0.0.0","Windows","10.0","null","es-AR,es;q=0.9,en-US;q=0.8,en;q=0.7","true","null","tones/880hz_short.mp3","null","","","tone_number_task","0","treinta y cinco","tones/880hz_short.mp3","150","60","2","35",""
"","","","","","html-keyboard-response","188","466335","0.0-239.0-0.0","29","1","2023-10-31 21:00:38","a725c3012b74bf33a1020a98cb69c237","186.13.122.31","Mozilla/5.0 (Windows NT 10.0; Win64; x64) AppleWebKit/537.36 (KHTML, like Gecko) Chrome/118.0.0.0 Safari/537.36","WebKit","Chrome","118.0.0.0","Windows","10.0","null","es-AR,es;q=0.9,en-US;q=0.8,en;q=0.7","true","null","tones/880hz_short.mp3","null","","","empty_block","","treinta y cinco","","","","2","35",""
"","","","","","html-keyboard-response","189","466517","0.0-239.0-1.0","29","1","2023-10-31 21:00:38","a725c3012b74bf33a1020a98cb69c237","186.13.122.31","Mozilla/5.0 (Windows NT 10.0; Win64; x64) AppleWebKit/537.36 (KHTML, like Gecko) Chrome/118.0.0.0 Safari/537.36","WebKit","Chrome","118.0.0.0","Windows","10.0","null","es-AR,es;q=0.9,en-US;q=0.8,en;q=0.7","true","178","tones/880hz_short.mp3","s","","","empty_block","","treinta y cinco","","","","2","35",""
"","","","","","html-keyboard-response","190","469430","0.0-241.0","29","1","2023-10-31 21:00:38","a725c3012b74bf33a1020a98cb69c237","186.13.122.31","Mozilla/5.0 (Windows NT 10.0; Win64; x64) AppleWebKit/537.36 (KHTML, like Gecko) Chrome/118.0.0.0 Safari/537.36","WebKit","Chrome","118.0.0.0","Windows","10.0","null","es-AR,es;q=0.9,en-US;q=0.8,en;q=0.7","true","null","<div style=""font-size:100px;"">X</div>","null","","","fixation","","","","","","","",""
"","","","","","audio-keyboard-response","191","469686","0.0-242.0","29","1","2023-10-31 21:00:38","a725c3012b74bf33a1020a98cb69c237","186.13.122.31","Mozilla/5.0 (Windows NT 10.0; Win64; x64) AppleWebKit/537.36 (KHTML, like Gecko) Chrome/118.0.0.0 Safari/537.36","WebKit","Chrome","118.0.0.0","Windows","10.0","null","es-AR,es;q=0.9,en-US;q=0.8,en;q=0.7","true","null","tones/880hz_short.mp3","null","","","tone_number_task","102.5","cincuenta y seis","tones/880hz_short.mp3","252.5","60","2","36",""
"","","","","","html-keyboard-response","192","470414","0.0-245.0-0.0","29","1","2023-10-31 21:00:38","a725c3012b74bf33a1020a98cb69c237","186.13.122.31","Mozilla/5.0 (Windows NT 10.0; Win64; x64) AppleWebKit/537.36 (KHTML, like Gecko) Chrome/118.0.0.0 Safari/537.36","WebKit","Chrome","118.0.0.0","Windows","10.0","null","es-AR,es;q=0.9,en-US;q=0.8,en;q=0.7","true","724","tones/880hz_short.mp3","s","","","empty_block","","cincuenta y seis","","","","2","36",""
"","","","","","html-keyboard-response","193","470614","0.0-245.0-1.0","29","1","2023-10-31 21:00:38","a725c3012b74bf33a1020a98cb69c237","186.13.122.31","Mozilla/5.0 (Windows NT 10.0; Win64; x64) AppleWebKit/537.36 (KHTML, like Gecko) Chrome/118.0.0.0 Safari/537.36","WebKit","Chrome","118.0.0.0","Windows","10.0","null","es-AR,es;q=0.9,en-US;q=0.8,en;q=0.7","true","196","tones/880hz_short.mp3","k","","","empty_block","","cincuenta y seis","","","","2","36",""
"","","","","","html-keyboard-response","194","473526","0.0-247.0","29","1","2023-10-31 21:00:38","a725c3012b74bf33a1020a98cb69c237","186.13.122.31","Mozilla/5.0 (Windows NT 10.0; Win64; x64) AppleWebKit/537.36 (KHTML, like Gecko) Chrome/118.0.0.0 Safari/537.36","WebKit","Chrome","118.0.0.0","Windows","10.0","null","es-AR,es;q=0.9,en-US;q=0.8,en;q=0.7","true","null","<div style=""font-size:100px;"">X</div>","null","","","fixation","","","","","","","",""
"","","","","","audio-keyboard-response","195","474358","0.0-248.0","29","1","2023-10-31 21:00:38","a725c3012b74bf33a1020a98cb69c237","186.13.122.31","Mozilla/5.0 (Windows NT 10.0; Win64; x64) AppleWebKit/537.36 (KHTML, like Gecko) Chrome/118.0.0.0 Safari/537.36","WebKit","Chrome","118.0.0.0","Windows","10.0","null","es-AR,es;q=0.9,en-US;q=0.8,en;q=0.7","true","830","tones/880hz_short.mp3","s","","","tone_number_task","992.5","cuarenta y tres","tones/880hz_short.mp3","1142.5","60","2","37",""
"","","","","","html-keyboard-response","196","474525","0.0-249.0-0.0","29","1","2023-10-31 21:00:38","a725c3012b74bf33a1020a98cb69c237","186.13.122.31","Mozilla/5.0 (Windows NT 10.0; Win64; x64) AppleWebKit/537.36 (KHTML, like Gecko) Chrome/118.0.0.0 Safari/537.36","WebKit","Chrome","118.0.0.0","Windows","10.0","null","es-AR,es;q=0.9,en-US;q=0.8,en;q=0.7","true","null","","null","","","delay_block","","","","","","2","37",""
"","","","","","html-keyboard-response","197","474682","0.0-249.0-1.0","29","1","2023-10-31 21:00:38","a725c3012b74bf33a1020a98cb69c237","186.13.122.31","Mozilla/5.0 (Windows NT 10.0; Win64; x64) AppleWebKit/537.36 (KHTML, like Gecko) Chrome/118.0.0.0 Safari/537.36","WebKit","Chrome","118.0.0.0","Windows","10.0","null","es-AR,es;q=0.9,en-US;q=0.8,en;q=0.7","true","null","<p id=""stimulus"" style=""font-size:60px;"">cuarenta y tres</p>","null","","","tone_number_task_remaining_before_delay","","cuarenta y tres","","312.5","60","2","37",""
"","","","","","html-keyboard-response","198","475326","0.0-252.0-0.0","29","1","2023-10-31 21:00:38","a725c3012b74bf33a1020a98cb69c237","186.13.122.31","Mozilla/5.0 (Windows NT 10.0; Win64; x64) AppleWebKit/537.36 (KHTML, like Gecko) Chrome/118.0.0.0 Safari/537.36","WebKit","Chrome","118.0.0.0","Windows","10.0","null","es-AR,es;q=0.9,en-US;q=0.8,en;q=0.7","true","641","<p id=""stimulus"" style=""font-size:60px;"">cuarenta y tres</p>","k","","","empty_block","","cuarenta y tres","","","","2","37",""
"","","","","","html-keyboard-response","199","478239","0.0-253.0","29","1","2023-10-31 21:00:38","a725c3012b74bf33a1020a98cb69c237","186.13.122.31","Mozilla/5.0 (Windows NT 10.0; Win64; x64) AppleWebKit/537.36 (KHTML, like Gecko) Chrome/118.0.0.0 Safari/537.36","WebKit","Chrome","118.0.0.0","Windows","10.0","null","es-AR,es;q=0.9,en-US;q=0.8,en;q=0.7","true","null","<div style=""font-size:100px;"">X</div>","null","","","fixation","","","","","","","",""
"","","","","","audio-keyboard-response","200","478496","0.0-254.0","29","1","2023-10-31 21:00:38","a725c3012b74bf33a1020a98cb69c237","186.13.122.31","Mozilla/5.0 (Windows NT 10.0; Win64; x64) AppleWebKit/537.36 (KHTML, like Gecko) Chrome/118.0.0.0 Safari/537.36","WebKit","Chrome","118.0.0.0","Windows","10.0","null","es-AR,es;q=0.9,en-US;q=0.8,en;q=0.7","true","null","tones/880hz_short.mp3","null","","","tone_number_task","102.5","treinta y dos","tones/880hz_short.mp3","252.5","60","2","38",""
"","","","","","html-keyboard-response","201","479543","0.0-257.0-0.0","29","1","2023-10-31 21:00:38","a725c3012b74bf33a1020a98cb69c237","186.13.122.31","Mozilla/5.0 (Windows NT 10.0; Win64; x64) AppleWebKit/537.36 (KHTML, like Gecko) Chrome/118.0.0.0 Safari/537.36","WebKit","Chrome","118.0.0.0","Windows","10.0","null","es-AR,es;q=0.9,en-US;q=0.8,en;q=0.7","true","1043","tones/880hz_short.mp3","s","","","empty_block","","treinta y dos","","","","2","38",""
"","","","","","html-keyboard-response","202","479830","0.0-257.0-1.0","29","1","2023-10-31 21:00:38","a725c3012b74bf33a1020a98cb69c237","186.13.122.31","Mozilla/5.0 (Windows NT 10.0; Win64; x64) AppleWebKit/537.36 (KHTML, like Gecko) Chrome/118.0.0.0 Safari/537.36","WebKit","Chrome","118.0.0.0","Windows","10.0","null","es-AR,es;q=0.9,en-US;q=0.8,en;q=0.7","true","284","tones/880hz_short.mp3","j","","","empty_block","","treinta y dos","","","","2","38",""
"","","","","","html-keyboard-response","203","482744","0.0-259.0","29","1","2023-10-31 21:00:38","a725c3012b74bf33a1020a98cb69c237","186.13.122.31","Mozilla/5.0 (Windows NT 10.0; Win64; x64) AppleWebKit/537.36 (KHTML, like Gecko) Chrome/118.0.0.0 Safari/537.36","WebKit","Chrome","118.0.0.0","Windows","10.0","null","es-AR,es;q=0.9,en-US;q=0.8,en;q=0.7","true","null","<div style=""font-size:100px;"">X</div>","null","","","fixation","","","","","","","",""
"","","","","","audio-keyboard-response","204","482898","0.0-260.0","29","1","2023-10-31 21:00:38","a725c3012b74bf33a1020a98cb69c237","186.13.122.31","Mozilla/5.0 (Windows NT 10.0; Win64; x64) AppleWebKit/537.36 (KHTML, like Gecko) Chrome/118.0.0.0 Safari/537.36","WebKit","Chrome","118.0.0.0","Windows","10.0","null","es-AR,es;q=0.9,en-US;q=0.8,en;q=0.7","true","null","tones/440hz_short.mp3","null","","","tone_number_task","0","veintinueve","tones/440hz_short.mp3","150","60","2","39",""
"","","","","","html-keyboard-response","205","484103","0.0-263.0-0.0","29","1","2023-10-31 21:00:38","a725c3012b74bf33a1020a98cb69c237","186.13.122.31","Mozilla/5.0 (Windows NT 10.0; Win64; x64) AppleWebKit/537.36 (KHTML, like Gecko) Chrome/118.0.0.0 Safari/537.36","WebKit","Chrome","118.0.0.0","Windows","10.0","null","es-AR,es;q=0.9,en-US;q=0.8,en;q=0.7","true","null","tones/440hz_short.mp3","null","","","empty_block","","veintinueve","","","","2","39",""
"","","","","","html-keyboard-response","206","484470","0.0-263.0-1.0","29","1","2023-10-31 21:00:38","a725c3012b74bf33a1020a98cb69c237","186.13.122.31","Mozilla/5.0 (Windows NT 10.0; Win64; x64) AppleWebKit/537.36 (KHTML, like Gecko) Chrome/118.0.0.0 Safari/537.36","WebKit","Chrome","118.0.0.0","Windows","10.0","null","es-AR,es;q=0.9,en-US;q=0.8,en;q=0.7","true","364","tones/440hz_short.mp3","a","","","empty_block","","veintinueve","","","","2","39",""
"","","","","","call-function","207","484475","0.0-265.0","29","1","2023-10-31 21:00:38","a725c3012b74bf33a1020a98cb69c237","186.13.122.31","Mozilla/5.0 (Windows NT 10.0; Win64; x64) AppleWebKit/537.36 (KHTML, like Gecko) Chrome/118.0.0.0 Safari/537.36","WebKit","Chrome","118.0.0.0","Windows","10.0","null","es-AR,es;q=0.9,en-US;q=0.8,en;q=0.7","true","","","","","","","","","","","","","",""
"","","","","","external-html","208","499210","0.0-266.0","29","1","2023-10-31 21:00:38","a725c3012b74bf33a1020a98cb69c237","186.13.122.31","Mozilla/5.0 (Windows NT 10.0; Win64; x64) AppleWebKit/537.36 (KHTML, like Gecko) Chrome/118.0.0.0 Safari/537.36","WebKit","Chrome","118.0.0.0","Windows","10.0","null","es-AR,es;q=0.9,en-US;q=0.8,en;q=0.7","true","14401","","","","instructions/instructions_words_last.html","","","","","","","","",""
"","","","","","call-function","209","499216","0.0-267.0","29","1","2023-10-31 21:00:38","a725c3012b74bf33a1020a98cb69c237","186.13.122.31","Mozilla/5.0 (Windows NT 10.0; Win64; x64) AppleWebKit/537.36 (KHTML, like Gecko) Chrome/118.0.0.0 Safari/537.36","WebKit","Chrome","118.0.0.0","Windows","10.0","null","es-AR,es;q=0.9,en-US;q=0.8,en;q=0.7","true","","","","","","","","","","","","","",""
"","","","","","html-keyboard-response","210","502128","0.0-268.0","29","1","2023-10-31 21:00:38","a725c3012b74bf33a1020a98cb69c237","186.13.122.31","Mozilla/5.0 (Windows NT 10.0; Win64; x64) AppleWebKit/537.36 (KHTML, like Gecko) Chrome/118.0.0.0 Safari/537.36","WebKit","Chrome","118.0.0.0","Windows","10.0","null","es-AR,es;q=0.9,en-US;q=0.8,en;q=0.7","true","null","<div style=""font-size:100px;"">X</div>","null","","","fixation","","","","","","","",""
