block,round,task,trial_duration,delay,audioFile,number,stimulus,type,response_1,rt_1,response_2,rt_2
0.0,0.0,tone_number_task,252.5,102.5,tones/440hz_short.mp3,66,tones/440hz_short.mp3,tone_number_task+empty_block+empty_block,a,500.5,k,1162.0
0.0,1.0,tone_number_task,252.5,102.5,tones/440hz_short.mp3,37,tones/440hz_short.mp3,tone_number_task+empty_block+empty_block,a,619.5,j,917.0
0.0,2.0,tone_number_task,150.0,0.0,tones/440hz_short.mp3,55,tones/440hz_short.mp3,tone_number_task+empty_block+empty_block,a,670.0,k,1250.0
0.0,3.0,tone_number_task,1175.0,1025.0,tones/440hz_short.mp3,27,tones/440hz_short.mp3,tone_number_task+delay_block+tone_number_task_remaining_before_delay+empty_block,a,819.0,j,759.0
0.0,4.0,tone_number_task,252.5,102.5,tones/880hz_short.mp3,43,tones/880hz_short.mp3,tone_number_task+empty_block+empty_block,s,599.5,j,1014.0
0.0,5.0,tone_number_task,252.5,102.5,tones/440hz_short.mp3,23,tones/440hz_short.mp3,tone_number_task+empty_block+empty_block,a,886.5,j,1108.0
0.0,6.0,tone_number_task,150.0,0.0,tones/440hz_short.mp3,67,tones/440hz_short.mp3,tone_number_task+empty_block+empty_block,a,630.0,k,974.0
0.0,7.0,tone_number_task,1142.5,992.5,tones/440hz_short.mp3,66,tones/440hz_short.mp3,tone_number_task+delay_block+tone_number_task_remaining_before_delay+empty_block,a,608.0,k,747.0
0.0,8.0,tone_number_task,1175.0,1025.0,tones/880hz_short.mp3,65,tones/880hz_short.mp3,tone_number_task+delay_block+tone_number_task_remaining_before_delay+empty_block,s,709.0,k,670.0
0.0,9.0,tone_number_task,1142.5,992.5,tones/440hz_short.mp3,52,tones/440hz_short.mp3,tone_number_task+tone_number_task_remaining_after_delay+empty_block,a,1040.0,k,688.0
0.0,10.0,tone_number_task,1142.5,992.5,tones/440hz_short.mp3,34,tones/440hz_short.mp3,tone_number_task+delay_block+tone_number_task_remaining_before_delay+empty_block,a,560.0,j,503.0
0.0,11.0,tone_number_task,150.0,0.0,tones/440hz_short.mp3,64,tones/440hz_short.mp3,tone_number_task+empty_block+empty_block,a,925.0,k,1507.0
0.0,12.0,tone_number_task,150.0,0.0,tones/880hz_short.mp3,44,tones/880hz_short.mp3,tone_number_task+empty_block+empty_block,s,749.0,j,1346.0
0.0,13.0,tone_number_task,1142.5,992.5,tones/440hz_short.mp3,68,tones/440hz_short.mp3,tone_number_task+delay_block+tone_number_task_remaining_before_delay+empty_block,a,589.0,k,457.0
0.0,14.0,tone_number_task,1142.5,992.5,tones/440hz_short.mp3,68,tones/440hz_short.mp3,tone_number_task+delay_block+tone_number_task_remaining_before_delay+empty_block,a,669.0,k,462.0
0.0,15.0,tone_number_task,150.0,0.0,tones/880hz_short.mp3,55,tones/880hz_short.mp3,tone_number_task+empty_block+empty_block,s,642.0,j,1014.0
0.0,16.0,tone_number_task,1175.0,1025.0,tones/440hz_short.mp3,41,tones/440hz_short.mp3,tone_number_task+tone_number_task_remaining_after_delay+empty_block,a,1080.0,j,582.0
0.0,17.0,tone_number_task,1175.0,1025.0,tones/880hz_short.mp3,26,tones/880hz_short.mp3,tone_number_task+tone_number_task_remaining_after_delay+empty_block,s,1109.0,j,612.0
0.0,18.0,tone_number_task,1142.5,992.5,tones/440hz_short.mp3,55,tones/440hz_short.mp3,tone_number_task+delay_block+tone_number_task_remaining_before_delay+empty_block,a,989.0,k,549.0
0.0,20.0,tone_number_task,252.5,102.5,tones/880hz_short.mp3,54,tones/880hz_short.mp3,tone_number_task+empty_block+empty_block,s,835.5,k,1698.0
0.0,21.0,tone_number_task,252.5,102.5,tones/880hz_short.mp3,27,tones/880hz_short.mp3,tone_number_task+empty_block+empty_block,s,563.5,j,749.0
0.0,22.0,tone_number_task,252.5,102.5,tones/440hz_short.mp3,64,tones/440hz_short.mp3,tone_number_task+empty_block+empty_block,a,934.5,k,1583.0
0.0,23.0,tone_number_task,1175.0,1025.0,tones/440hz_short.mp3,68,tones/440hz_short.mp3,tone_number_task+delay_block+tone_number_task_remaining_before_delay+empty_block,a,771.0,k,449.0
0.0,24.0,tone_number_task,252.5,102.5,tones/880hz_short.mp3,30,tones/880hz_short.mp3,tone_number_task+empty_block+empty_block,s,651.5,j,988.0
0.0,25.0,tone_number_task,1142.5,992.5,tones/880hz_short.mp3,46,tones/880hz_short.mp3,tone_number_task+delay_block+tone_number_task_remaining_before_delay+empty_block,s,589.0,k,817.0
0.0,26.0,tone_number_task,252.5,102.5,tones/880hz_short.mp3,22,tones/880hz_short.mp3,tone_number_task+empty_block+empty_block,s,585.5,j,770.0
0.0,27.0,tone_number_task,1142.5,992.5,tones/440hz_short.mp3,26,tones/440hz_short.mp3,tone_number_task+empty_block+empty_block,a,1173.5,j,624.0
0.0,28.0,tone_number_task,1175.0,1025.0,tones/880hz_short.mp3,32,tones/880hz_short.mp3,tone_number_task+delay_block+tone_number_task_remaining_before_delay+empty_block,s,749.0,j,683.0
0.0,29.0,tone_number_task,1142.5,992.5,tones/440hz_short.mp3,49,tones/440hz_short.mp3,tone_number_task+empty_block+empty_block,a,1196.5,k,897.0
0.0,30.0,tone_number_task,1142.5,992.5,tones/880hz_short.mp3,30,tones/880hz_short.mp3,tone_number_task+empty_block+empty_block,s,1568.5,j,1600.0
0.0,31.0,tone_number_task,150.0,0.0,tones/880hz_short.mp3,31,tones/880hz_short.mp3,tone_number_task+empty_block+empty_block,s,850.0,j,1190.0
0.0,32.0,tone_number_task,1175.0,1025.0,tones/880hz_short.mp3,48,tones/880hz_short.mp3,tone_number_task+delay_block+tone_number_task_remaining_before_delay+empty_block,s,701.0,k,542.0
0.0,33.0,tone_number_task,150.0,0.0,tones/880hz_short.mp3,22,tones/880hz_short.mp3,tone_number_task+empty_block+empty_block,s,648.0,j,994.0
0.0,34.0,tone_number_task,150.0,0.0,tones/440hz_short.mp3,44,tones/440hz_short.mp3,tone_number_task+empty_block+empty_block,a,1083.0,j,1704.0
0.0,35.0,tone_number_task,252.5,102.5,tones/880hz_short.mp3,39,tones/880hz_short.mp3,tone_number_task+empty_block+empty_block,s,1220.5,j,1419.0
0.0,36.0,tone_number_task,1175.0,1025.0,tones/880hz_short.mp3,62,tones/880hz_short.mp3,tone_number_task+empty_block+empty_block,s,1230.0,k,702.0
0.0,37.0,tone_number_task,150.0,0.0,tones/880hz_short.mp3,56,tones/880hz_short.mp3,tone_number_task+empty_block+empty_block,s,516.0,k,842.0
0.0,38.0,tone_number_task,1175.0,1025.0,tones/880hz_short.mp3,35,tones/880hz_short.mp3,tone_number_task+delay_block+tone_number_task_remaining_before_delay+empty_block,s,520.0,j,482.0
0.0,39.0,tone_number_task,1175.0,1025.0,tones/880hz_short.mp3,66,tones/880hz_short.mp3,tone_number_task+delay_block+tone_number_task_remaining_before_delay+empty_block,s,851.0,k,496.0
1.0,0.0,tone_number_task,252.5,102.5,tones/880hz_short.mp3,49,tones/880hz_short.mp3,tone_number_task+empty_block+empty_block,s,989.5,k,1275.0
1.0,1.0,tone_number_task,1142.5,992.5,tones/880hz_short.mp3,35,tones/880hz_short.mp3,tone_number_task+delay_block+tone_number_task_remaining_before_delay+empty_block,s,629.0,j,450.0
1.0,2.0,tone_number_task,1175.0,1025.0,tones/880hz_short.mp3,58,tones/880hz_short.mp3,tone_number_task+delay_block+tone_number_task_remaining_before_delay+empty_block,s,571.0,k,651.0
1.0,3.0,tone_number_task,150.0,0.0,tones/440hz_short.mp3,31,tones/440hz_short.mp3,tone_number_task+empty_block+empty_block,a,721.0,j,1106.0
1.0,4.0,tone_number_task,1142.5,992.5,tones/880hz_short.mp3,48,tones/880hz_short.mp3,tone_number_task+delay_block+tone_number_task_remaining_before_delay+empty_block,s,709.0,k,479.0
1.0,5.0,tone_number_task,252.5,102.5,tones/440hz_short.mp3,69,tones/440hz_short.mp3,tone_number_task+empty_block+empty_block,a,979.5,k,1336.0
1.0,6.0,tone_number_task,252.5,102.5,tones/880hz_short.mp3,60,tones/880hz_short.mp3,tone_number_task+empty_block+empty_block,s,575.5,k,774.0
1.0,7.0,tone_number_task,1142.5,992.5,tones/880hz_short.mp3,38,tones/880hz_short.mp3,tone_number_task+tone_number_task_remaining_after_delay+empty_block,s,1000.0,j,638.0
1.0,8.0,tone_number_task,150.0,0.0,tones/880hz_short.mp3,49,tones/880hz_short.mp3,tone_number_task+empty_block+empty_block,s,717.0,k,1268.0
1.0,9.0,tone_number_task,150.0,0.0,tones/440hz_short.mp3,60,tones/440hz_short.mp3,tone_number_task+empty_block+empty_block,a,859.0,k,1299.0
1.0,10.0,tone_number_task,1175.0,1025.0,tones/880hz_short.mp3,48,tones/880hz_short.mp3,tone_number_task+delay_block+tone_number_task_remaining_before_delay+empty_block,s,901.0,j,511.0
1.0,11.0,tone_number_task,252.5,102.5,tones/880hz_short.mp3,23,tones/880hz_short.mp3,tone_number_task+empty_block+empty_block,s,1239.5,j,1404.0
1.0,12.0,tone_number_task,1175.0,1025.0,tones/440hz_short.mp3,54,tones/440hz_short.mp3,tone_number_task+tone_number_task_remaining_after_delay+empty_block,a,1069.0,k,998.0
1.0,13.0,tone_number_task,1175.0,1025.0,tones/880hz_short.mp3,53,tones/880hz_short.mp3,tone_number_task+delay_block+tone_number_task_remaining_before_delay+empty_block,s,960.0,k,793.0
1.0,14.0,tone_number_task,1175.0,1025.0,tones/880hz_short.mp3,60,tones/880hz_short.mp3,tone_number_task+delay_block+tone_number_task_remaining_before_delay+empty_block,s,789.0,k,860.0
1.0,15.0,tone_number_task,1142.5,992.5,tones/440hz_short.mp3,30,tones/440hz_short.mp3,tone_number_task+delay_block+tone_number_task_remaining_before_delay+empty_block,a,819.0,j,665.0
1.0,16.0,tone_number_task,252.5,102.5,tones/880hz_short.mp3,62,tones/880hz_short.mp3,tone_number_task+empty_block+empty_block,s,972.5,k,1221.0
1.0,17.0,tone_number_task,252.5,102.5,tones/880hz_short.mp3,23,tones/880hz_short.mp3,tone_number_task+empty_block+empty_block,s,1041.5,j,1179.0
1.0,18.0,tone_number_task,1175.0,1025.0,tones/880hz_short.mp3,46,tones/880hz_short.mp3,tone_number_task+delay_block+tone_number_task_remaining_before_delay+empty_block,s,829.0,k,712.0
1.0,19.0,tone_number_task,1142.5,992.5,tones/440hz_short.mp3,23,tones/440hz_short.mp3,tone_number_task+delay_block+tone_number_task_remaining_before_delay+empty_block,a,971.0,j,559.0
1.0,20.0,tone_number_task,1175.0,1025.0,tones/880hz_short.mp3,68,tones/880hz_short.mp3,tone_number_task+delay_block+tone_number_task_remaining_before_delay+empty_block,s,648.0,k,441.0
1.0,21.0,tone_number_task,1175.0,1025.0,tones/880hz_short.mp3,57,tones/880hz_short.mp3,tone_number_task+delay_block+tone_number_task_remaining_before_delay+empty_block,s,808.0,k,528.0
1.0,22.0,tone_number_task,150.0,0.0,tones/440hz_short.mp3,51,tones/440hz_short.mp3,tone_number_task+empty_block+empty_block,a,902.0,k,1834.0
1.0,23.0,tone_number_task,1142.5,992.5,tones/880hz_short.mp3,37,tones/880hz_short.mp3,tone_number_task+delay_block+tone_number_task_remaining_before_delay+empty_block,s,960.0,j,914.0
1.0,24.0,tone_number_task,252.5,102.5,tones/880hz_short.mp3,65,tones/880hz_short.mp3,tone_number_task+empty_block+empty_block,s,1067.5,k,1252.0
1.0,25.0,tone_number_task,1175.0,1025.0,tones/440hz_short.mp3,46,tones/440hz_short.mp3,tone_number_task+delay_block+tone_number_task_remaining_before_delay+empty_block,a,760.0,k,621.0
1.0,26.0,tone_number_task,252.5,102.5,tones/440hz_short.mp3,63,tones/440hz_short.mp3,tone_number_task+empty_block+empty_block,a,1062.5,k,1294.0
1.0,27.0,tone_number_task,252.5,102.5,tones/440hz_short.mp3,40,tones/440hz_short.mp3,tone_number_task+empty_block+empty_block,a,592.5,j,1069.0
1.0,28.0,tone_number_task,1142.5,992.5,tones/440hz_short.mp3,28,tones/440hz_short.mp3,tone_number_task+delay_block+tone_number_task_remaining_before_delay+empty_block,a,859.0,j,265.0
1.0,29.0,tone_number_task,1142.5,992.5,tones/440hz_short.mp3,48,tones/440hz_short.mp3,tone_number_task+delay_block+tone_number_task_remaining_before_delay+empty_block,a,691.0,k,431.0
1.0,30.0,tone_number_task,150.0,0.0,tones/440hz_short.mp3,39,tones/440hz_short.mp3,tone_number_task+empty_block+empty_block,a,659.0,j,1281.0
1.0,31.0,tone_number_task,150.0,0.0,tones/880hz_short.mp3,50,tones/880hz_short.mp3,tone_number_task+empty_block+empty_block,s,537.0,k,1224.0
1.0,32.0,tone_number_task,150.0,0.0,tones/440hz_short.mp3,27,tones/440hz_short.mp3,tone_number_task+empty_block+empty_block,a,705.0,j,1223.0
1.0,33.0,tone_number_task,1175.0,1025.0,tones/440hz_short.mp3,53,tones/440hz_short.mp3,tone_number_task+delay_block+tone_number_task_remaining_before_delay+empty_block,a,712.0,k,548.0
1.0,34.0,tone_number_task,150.0,0.0,tones/440hz_short.mp3,27,tones/440hz_short.mp3,tone_number_task+empty_block+empty_block,a,873.0,j,1309.0
1.0,35.0,tone_number_task,1142.5,992.5,tones/440hz_short.mp3,64,tones/440hz_short.mp3,tone_number_task+delay_block+tone_number_task_remaining_before_delay+empty_block,a,549.0,k,492.0
1.0,36.0,tone_number_task,150.0,0.0,tones/880hz_short.mp3,40,tones/880hz_short.mp3,tone_number_task+empty_block+empty_block,s,916.0,j,1274.0
1.0,37.0,tone_number_task,150.0,0.0,tones/440hz_short.mp3,23,tones/440hz_short.mp3,tone_number_task+empty_block+empty_block,a,679.0,j,1008.0
1.0,38.0,tone_number_task,1142.5,992.5,tones/880hz_short.mp3,28,tones/880hz_short.mp3,tone_number_task+delay_block+tone_number_task_remaining_before_delay+empty_block,s,651.0,j,656.0
1.0,39.0,tone_number_task,252.5,102.5,tones/440hz_short.mp3,58,tones/440hz_short.mp3,tone_number_task+empty_block+empty_block,a,1208.5,k,1793.0
2.0,0.0,tone_number_task,1175.0,1025.0,tones/440hz_short.mp3,sesenta y ocho,tones/440hz_short.mp3,tone_number_task+delay_block+tone_number_task_remaining_before_delay+empty_block,a,941.0,k,1131.0
2.0,1.0,tone_number_task,252.5,102.5,tones/440hz_short.mp3,veintitres,tones/440hz_short.mp3,tone_number_task+empty_block+empty_block,a,1241.5,j,1492.0
2.0,2.0,tone_number_task,252.5,102.5,tones/880hz_short.mp3,veintisiete,tones/880hz_short.mp3,tone_number_task+empty_block+empty_block,s,570.5,j,839.0
2.0,3.0,tone_number_task,150.0,0.0,tones/880hz_short.mp3,veintinueve,tones/880hz_short.mp3,tone_number_task+empty_block+empty_block,s,602.0,j,963.0
2.0,4.0,tone_number_task,252.5,102.5,tones/440hz_short.mp3,veintidós,tones/440hz_short.mp3,tone_number_task+empty_block+empty_block,a,995.5,j,1128.0
2.0,5.0,tone_number_task,252.5,102.5,tones/880hz_short.mp3,treinta y cinco,tones/880hz_short.mp3,tone_number_task+empty_block+empty_block,s,563.5,j,973.0
2.0,6.0,tone_number_task,1142.5,992.5,tones/880hz_short.mp3,sesenta,tones/880hz_short.mp3,tone_number_task+tone_number_task_remaining_after_delay+empty_block,s,1109.0,k,1270.0
2.0,7.0,tone_number_task,1175.0,1025.0,tones/440hz_short.mp3,cincuenta y uno,tones/440hz_short.mp3,tone_number_task+delay_block+tone_number_task_remaining_before_delay+empty_block,a,800.0,k,842.0
2.0,9.0,tone_number_task,252.5,102.5,tones/880hz_short.mp3,cincuenta y cuatro,tones/880hz_short.mp3,tone_number_task+empty_block+empty_block,s,864.5,k,1237.0
2.0,10.0,tone_number_task,1142.5,992.5,tones/440hz_short.mp3,veintidós,tones/440hz_short.mp3,tone_number_task+delay_block+tone_number_task_remaining_before_delay+empty_block,a,608.0,j,558.0
2.0,11.0,tone_number_task,252.5,102.5,tones/880hz_short.mp3,sesenta y nueve,tones/880hz_short.mp3,tone_number_task+empty_block+empty_block,s,1119.5,k,1305.0
2.0,13.0,tone_number_task,1142.5,992.5,tones/880hz_short.mp3,treinta y siete,tones/880hz_short.mp3,tone_number_task+delay_block+tone_number_task_remaining_before_delay+empty_block,s,661.0,j,895.0
2.0,15.0,tone_number_task,1175.0,1025.0,tones/440hz_short.mp3,veintidós,tones/440hz_short.mp3,tone_number_task+delay_block+tone_number_task_remaining_before_delay+empty_block,a,528.0,j,584.0
2.0,16.0,tone_number_task,252.5,102.5,tones/880hz_short.mp3,treinta y nueve,tones/880hz_short.mp3,tone_number_task+empty_block+empty_block,s,1224.5,j,1347.0
2.0,17.0,tone_number_task,1175.0,1025.0,tones/440hz_short.mp3,cuarenta y seis,tones/440hz_short.mp3,tone_number_task+delay_block+tone_number_task_remaining_before_delay+empty_block,a,680.0,k,783.0
2.0,19.0,tone_number_task,1142.5,992.5,tones/440hz_short.mp3,sesenta y siete,tones/440hz_short.mp3,tone_number_task+delay_block+tone_number_task_remaining_before_delay+empty_block,a,869.0,k,905.0
2.0,20.0,tone_number_task,1142.5,992.5,tones/880hz_short.mp3,treinta,tones/880hz_short.mp3,tone_number_task+delay_block+tone_number_task_remaining_before_delay+empty_block,s,669.0,j,706.0
2.0,21.0,tone_number_task,1175.0,1025.0,tones/880hz_short.mp3,cuarenta y siete,tones/880hz_short.mp3,tone_number_task+delay_block+tone_number_task_remaining_before_delay+empty_block,s,840.0,k,937.0
2.0,22.0,tone_number_task,150.0,0.0,tones/440hz_short.mp3,sesenta y tres,tones/440hz_short.mp3,tone_number_task+empty_block+empty_block,a,1036.0,k,1788.0
2.0,23.0,tone_number_task,150.0,0.0,tones/440hz_short.mp3,cincuenta y seis,tones/440hz_short.mp3,tone_number_task+empty_block+empty_block,a,1201.0,k,1525.0
2.0,24.0,tone_number_task,1142.5,992.5,tones/440hz_short.mp3,treinta y dos,tones/440hz_short.mp3,tone_number_task+delay_block+tone_number_task_remaining_before_delay+empty_block,a,560.0,j,524.0
2.0,25.0,tone_number_task,252.5,102.5,tones/440hz_short.mp3,veintisiete,tones/440hz_short.mp3,tone_number_task+empty_block+empty_block,a,1050.5,j,1310.0
2.0,26.0,tone_number_task,1175.0,1025.0,tones/440hz_short.mp3,cuarenta y nueve,tones/440hz_short.mp3,tone_number_task+delay_block+tone_number_task_remaining_before_delay+empty_block,a,512.0,k,663.0
2.0,27.0,tone_number_task,1142.5,992.5,tones/440hz_short.mp3,sesenta y dos,tones/440hz_short.mp3,tone_number_task+delay_block+tone_number_task_remaining_before_delay+empty_block,a,429.0,k,626.0
2.0,28.0,tone_number_task,1175.0,1025.0,tones/440hz_short.mp3,cuarenta y uno,tones/440hz_short.mp3,tone_number_task+delay_block+tone_number_task_remaining_before_delay+empty_block,a,960.0,j,633.0
2.0,29.0,tone_number_task,1142.5,992.5,tones/440hz_short.mp3,treinta,tones/440hz_short.mp3,tone_number_task+delay_block+tone_number_task_remaining_before_delay+empty_block,a,621.0,j,618.0
2.0,30.0,tone_number_task,1175.0,1025.0,tones/440hz_short.mp3,cuarenta y nueve,tones/440hz_short.mp3,tone_number_task+delay_block+tone_number_task_remaining_before_delay+empty_block,a,880.0,k,673.0
2.0,31.0,tone_number_task,150.0,0.0,tones/880hz_short.mp3,cuarenta y siete,tones/880hz_short.mp3,tone_number_task+empty_block+empty_block,s,912.0,k,1538.0
2.0,32.0,tone_number_task,1142.5,992.5,tones/880hz_short.mp3,cincuenta y seis,tones/880hz_short.mp3,tone_number_task+delay_block+tone_number_task_remaining_before_delay+empty_block,s,501.0,k,666.0
2.0,33.0,tone_number_task,1175.0,1025.0,tones/880hz_short.mp3,cincuenta y siete,tones/880hz_short.mp3,tone_number_task+delay_block+tone_number_task_remaining_before_delay+empty_block,s,469.0,k,664.0
2.0,34.0,tone_number_task,150.0,0.0,tones/440hz_short.mp3,cincuenta y nueve,tones/440hz_short.mp3,tone_number_task+empty_block+empty_block,a,1302.0,k,1925.0
2.0,36.0,tone_number_task,252.5,102.5,tones/440hz_short.mp3,sesenta y dos,tones/440hz_short.mp3,tone_number_task+empty_block+empty_block,a,614.5,k,977.0
2.0,37.0,tone_number_task,1175.0,1025.0,tones/880hz_short.mp3,cuarenta,tones/880hz_short.mp3,tone_number_task+delay_block+tone_number_task_remaining_before_delay+empty_block,s,712.0,j,819.0
2.0,38.0,tone_number_task,252.5,102.5,tones/880hz_short.mp3,sesenta y tres,tones/880hz_short.mp3,tone_number_task+empty_block+empty_block,s,897.5,k,1138.0
2.0,39.0,tone_number_task,1142.5,992.5,tones/440hz_short.mp3,cuarenta y dos,tones/440hz_short.mp3,tone_number_task+delay_block+tone_number_task_remaining_before_delay+empty_block,a,739.0,j,780.0
3.0,0.0,tone_number_task,1142.5,992.5,tones/440hz_short.mp3,cuarenta y siete,tones/440hz_short.mp3,tone_number_task+delay_block+tone_number_task_remaining_before_delay+empty_block,a,768.0,k,1057.0
3.0,2.0,tone_number_task,1175.0,1025.0,tones/440hz_short.mp3,treinta y seis,tones/440hz_short.mp3,tone_number_task+delay_block+tone_number_task_remaining_before_delay+empty_block,a,600.0,j,553.0
3.0,3.0,tone_number_task,1142.5,992.5,tones/440hz_short.mp3,cincuenta y nueve,tones/440hz_short.mp3,tone_number_task+delay_block+tone_number_task_remaining_before_delay+empty_block,a,771.0,k,738.0
3.0,4.0,tone_number_task,150.0,0.0,tones/440hz_short.mp3,veinticuatro,tones/440hz_short.mp3,tone_number_task+empty_block+empty_block,a,788.0,j,1053.0
3.0,5.0,tone_number_task,1142.5,992.5,tones/880hz_short.mp3,veintisiete,tones/880hz_short.mp3,tone_number_task+delay_block+tone_number_task_remaining_before_delay+empty_block,s,589.0,j,741.0
3.0,6.0,tone_number_task,150.0,0.0,tones/440hz_short.mp3,treinta,tones/440hz_short.mp3,tone_number_task+empty_block+empty_block,a,1184.0,j,1666.0
3.0,7.0,tone_number_task,252.5,102.5,tones/880hz_short.mp3,veintinueve,tones/880hz_short.mp3,tone_number_task+empty_block+empty_block,s,1157.5,j,1306.0
3.0,8.0,tone_number_task,150.0,0.0,tones/880hz_short.mp3,treinta y siete,tones/880hz_short.mp3,tone_number_task+empty_block+empty_block,s,968.0,j,1265.0
3.0,9.0,tone_number_task,1175.0,1025.0,tones/440hz_short.mp3,treinta y cinco,tones/440hz_short.mp3,tone_number_task+delay_block+tone_number_task_remaining_before_delay+empty_block,a,680.0,j,669.0
3.0,10.0,tone_number_task,1175.0,1025.0,tones/440hz_short.mp3,veintiuno,tones/440hz_short.mp3,tone_number_task+delay_block+tone_number_task_remaining_before_delay+empty_block,a,651.0,j,614.0
3.0,11.0,tone_number_task,1175.0,1025.0,tones/880hz_short.mp3,cuarenta y ocho,tones/880hz_short.mp3,tone_number_task+delay_block+tone_number_task_remaining_before_delay+empty_block,s,669.0,k,601.0
3.0,12.0,tone_number_task,150.0,0.0,tones/880hz_short.mp3,cuarenta y ocho,tones/880hz_short.mp3,tone_number_task+empty_block+empty_block,s,1067.0,k,1347.0
3.0,13.0,tone_number_task,1175.0,1025.0,tones/880hz_short.mp3,cincuenta y siete,tones/880hz_short.mp3,tone_number_task+delay_block+tone_number_task_remaining_before_delay+empty_block,s,659.0,k,649.0
3.0,14.0,tone_number_task,1142.5,992.5,tones/440hz_short.mp3,treinta y ocho,tones/440hz_short.mp3,tone_number_task+delay_block+tone_number_task_remaining_before_delay+empty_block,a,989.0,j,625.0
3.0,15.0,tone_number_task,1142.5,992.5,tones/440hz_short.mp3,cuarenta y uno,tones/440hz_short.mp3,tone_number_task+delay_block+tone_number_task_remaining_before_delay+empty_block,a,411.0,j,841.0
3.0,16.0,tone_number_task,1175.0,1025.0,tones/880hz_short.mp3,cincuenta y uno,tones/880hz_short.mp3,tone_number_task+delay_block+tone_number_task_remaining_before_delay+empty_block,s,949.0,k,578.0
3.0,17.0,tone_number_task,1175.0,1025.0,tones/440hz_short.mp3,treinta y seis,tones/440hz_short.mp3,tone_number_task+delay_block+tone_number_task_remaining_before_delay+empty_block,a,840.0,j,1161.0
3.0,18.0,tone_number_task,1142.5,992.5,tones/880hz_short.mp3,treinta,tones/880hz_short.mp3,tone_number_task+delay_block+tone_number_task_remaining_before_delay+empty_block,s,971.0,j,698.0
3.0,20.0,tone_number_task,252.5,102.5,tones/880hz_short.mp3,sesenta y cinco,tones/880hz_short.mp3,tone_number_task+empty_block+empty_block,s,992.5,k,1717.0
3.0,21.0,tone_number_task,1142.5,992.5,tones/880hz_short.mp3,treinta y dos,tones/880hz_short.mp3,tone_number_task+delay_block+tone_number_task_remaining_before_delay+empty_block,s,811.0,j,437.0
3.0,22.0,tone_number_task,1175.0,1025.0,tones/440hz_short.mp3,veintiocho,tones/440hz_short.mp3,tone_number_task+tone_number_task_remaining_after_delay+empty_block,a,1029.0,j,751.0
3.0,24.0,tone_number_task,150.0,0.0,tones/440hz_short.mp3,sesenta y ocho,tones/440hz_short.mp3,tone_number_task+empty_block+empty_block,a,1030.0,k,1378.0
3.0,26.0,tone_number_task,1142.5,992.5,tones/440hz_short.mp3,cincuenta,tones/440hz_short.mp3,tone_number_task+delay_block+tone_number_task_remaining_before_delay+empty_block,a,651.0,k,919.0
3.0,27.0,tone_number_task,150.0,0.0,tones/440hz_short.mp3,veinticuatro,tones/440hz_short.mp3,tone_number_task+empty_block+empty_block,a,1217.0,j,1522.0
3.0,28.0,tone_number_task,1142.5,992.5,tones/880hz_short.mp3,cincuenta y siete,tones/880hz_short.mp3,tone_number_task+delay_block+tone_number_task_remaining_before_delay+empty_block,s,701.0,k,577.0
3.0,29.0,tone_number_task,1175.0,1025.0,tones/880hz_short.mp3,sesenta y siete,tones/880hz_short.mp3,tone_number_task+empty_block+empty_block,s,1333.0,k,719.0
3.0,30.0,tone_number_task,150.0,0.0,tones/440hz_short.mp3,cuarenta,tones/440hz_short.mp3,tone_number_task+empty_block+empty_block,a,950.0,j,1713.0
3.0,31.0,tone_number_task,252.5,102.5,tones/440hz_short.mp3,cuarenta y cuatro,tones/440hz_short.mp3,tone_number_task+empty_block+empty_block,a,1128.5,j,1264.0
3.0,32.0,tone_number_task,252.5,102.5,tones/440hz_short.mp3,veintitres,tones/440hz_short.mp3,tone_number_task+empty_block+empty_block,a,731.5,j,902.0
3.0,33.0,tone_number_task,252.5,102.5,tones/440hz_short.mp3,cuarenta y cuatro,tones/440hz_short.mp3,tone_number_task+empty_block+empty_block,a,555.5,k,968.0
3.0,34.0,tone_number_task,1142.5,992.5,tones/880hz_short.mp3,cuarenta y siete,tones/880hz_short.mp3,tone_number_task+delay_block+tone_number_task_remaining_before_delay+empty_block,s,912.0,k,952.0
3.0,35.0,tone_number_task,252.5,102.5,tones/440hz_short.mp3,cincuenta y uno,tones/440hz_short.mp3,tone_number_task+empty_block+empty_block,a,1293.5,k,1502.0
3.0,36.0,tone_number_task,252.5,102.5,tones/880hz_short.mp3,sesenta y seis,tones/880hz_short.mp3,tone_number_task+empty_block+empty_block,s,980.5,k,1341.0
3.0,37.0,tone_number_task,1175.0,1025.0,tones/440hz_short.mp3,cincuenta y tres,tones/440hz_short.mp3,tone_number_task+delay_block+tone_number_task_remaining_before_delay+empty_block,a,771.0,k,687.0
3.0,38.0,tone_number_task,252.5,102.5,tones/880hz_short.mp3,treinta y seis,tones/880hz_short.mp3,tone_number_task+empty_block+empty_block,s,1308.5,j,1368.0
3.0,39.0,tone_number_task,150.0,0.0,tones/440hz_short.mp3,treinta y uno,tones/440hz_short.mp3,tone_number_task+empty_block+empty_block,a,1030.0,j,1372.0
