block,round,task,trial_duration,delay,audioFile,number,stimulus,type,response_1,rt_1,response_2,rt_2
0.0,0.0,tone_number_task,1142.5,992.5,tones/440hz_short.mp3,21,tones/440hz_short.mp3,tone_number_task+delay_block+tone_number_task_remaining_before_delay+empty_block,s,829.0,j,713.0
0.0,2.0,tone_number_task,150.0,0.0,tones/880hz_short.mp3,29,tones/880hz_short.mp3,tone_number_task+empty_block+empty_block,s,1327.0,j,1469.0
0.0,3.0,tone_number_task,252.5,102.5,tones/880hz_short.mp3,51,tones/880hz_short.mp3,tone_number_task+empty_block+empty_block,s,1064.5,k,1068.0
0.0,4.0,tone_number_task,252.5,102.5,tones/440hz_short.mp3,56,tones/440hz_short.mp3,tone_number_task+empty_block+empty_block,a,1064.5,k,1063.0
0.0,5.0,tone_number_task,252.5,102.5,tones/880hz_short.mp3,40,tones/880hz_short.mp3,tone_number_task+empty_block+empty_block,s,1356.5,j,1410.0
0.0,7.0,tone_number_task,1175.0,1025.0,tones/440hz_short.mp3,51,tones/440hz_short.mp3,tone_number_task+empty_block+empty_block,a,1241.0,k,759.0
0.0,8.0,tone_number_task,1142.5,992.5,tones/880hz_short.mp3,53,tones/880hz_short.mp3,tone_number_task+tone_number_task_remaining_after_delay+empty_block,s,1000.0,k,1261.0
0.0,9.0,tone_number_task,150.0,0.0,tones/440hz_short.mp3,29,tones/440hz_short.mp3,tone_number_task+empty_block+empty_block,a,1070.0,j,1241.0
0.0,10.0,tone_number_task,1175.0,1025.0,tones/440hz_short.mp3,65,tones/440hz_short.mp3,tone_number_task+delay_block+tone_number_task_remaining_before_delay+empty_block,a,941.0,k,444.0
0.0,11.0,tone_number_task,1175.0,1025.0,tones/440hz_short.mp3,37,tones/440hz_short.mp3,tone_number_task+delay_block+tone_number_task_remaining_before_delay+empty_block,a,1011.0,j,554.0
0.0,12.0,tone_number_task,1175.0,1025.0,tones/440hz_short.mp3,30,tones/440hz_short.mp3,tone_number_task+delay_block+tone_number_task_remaining_before_delay+empty_block,a,819.0,j,394.0
0.0,13.0,tone_number_task,150.0,0.0,tones/440hz_short.mp3,53,tones/440hz_short.mp3,tone_number_task+empty_block+empty_block,a,747.0,k,1000.0
0.0,14.0,tone_number_task,1175.0,1025.0,tones/880hz_short.mp3,29,tones/880hz_short.mp3,tone_number_task+delay_block+tone_number_task_remaining_before_delay+empty_block,s,821.0,j,418.0
0.0,15.0,tone_number_task,1142.5,992.5,tones/880hz_short.mp3,58,tones/880hz_short.mp3,tone_number_task+tone_number_task_remaining_after_delay+empty_block,s,1088.0,k,534.0
0.0,16.0,tone_number_task,150.0,0.0,tones/880hz_short.mp3,67,tones/880hz_short.mp3,tone_number_task+empty_block+empty_block,s,786.0,k,1109.0
0.0,17.0,tone_number_task,1142.5,992.5,tones/440hz_short.mp3,43,tones/440hz_short.mp3,tone_number_task+tone_number_task_remaining_after_delay+empty_block,a,1080.0,j,644.0
0.0,18.0,tone_number_task,1175.0,1025.0,tones/880hz_short.mp3,53,tones/880hz_short.mp3,tone_number_task+delay_block+tone_number_task_remaining_before_delay+empty_block,s,771.0,k,485.0
0.0,19.0,tone_number_task,1142.5,992.5,tones/880hz_short.mp3,35,tones/880hz_short.mp3,tone_number_task+delay_block+tone_number_task_remaining_before_delay+empty_block,s,819.0,j,403.0
0.0,20.0,tone_number_task,150.0,0.0,tones/440hz_short.mp3,30,tones/440hz_short.mp3,tone_number_task+empty_block+empty_block,a,816.0,j,1004.0
0.0,21.0,tone_number_task,252.5,102.5,tones/880hz_short.mp3,48,tones/880hz_short.mp3,tone_number_task+empty_block+empty_block,s,1003.5,k,1029.0
0.0,22.0,tone_number_task,1175.0,1025.0,tones/440hz_short.mp3,59,tones/440hz_short.mp3,tone_number_task+delay_block+tone_number_task_remaining_before_delay+empty_block,a,880.0,k,457.0
0.0,23.0,tone_number_task,1175.0,1025.0,tones/880hz_short.mp3,58,tones/880hz_short.mp3,tone_number_task+delay_block+tone_number_task_remaining_before_delay+empty_block,s,731.0,k,441.0
0.0,24.0,tone_number_task,252.5,102.5,tones/880hz_short.mp3,30,tones/880hz_short.mp3,tone_number_task+empty_block+empty_block,s,989.5,j,1036.0
0.0,25.0,tone_number_task,252.5,102.5,tones/440hz_short.mp3,57,tones/440hz_short.mp3,tone_number_task+empty_block+empty_block,a,1072.5,k,1148.0
0.0,26.0,tone_number_task,1142.5,992.5,tones/440hz_short.mp3,47,tones/440hz_short.mp3,tone_number_task+tone_number_task_remaining_after_delay+empty_block,a,1021.0,k,778.0
0.0,27.0,tone_number_task,1142.5,992.5,tones/440hz_short.mp3,46,tones/440hz_short.mp3,tone_number_task+delay_block+tone_number_task_remaining_before_delay+empty_block,a,739.0,k,778.0
0.0,28.0,tone_number_task,150.0,0.0,tones/880hz_short.mp3,56,tones/880hz_short.mp3,tone_number_task+empty_block+empty_block,s,820.0,k,1038.0
0.0,29.0,tone_number_task,1142.5,992.5,tones/880hz_short.mp3,69,tones/880hz_short.mp3,tone_number_task+delay_block+tone_number_task_remaining_before_delay+empty_block,s,691.0,k,472.0
0.0,30.0,tone_number_task,150.0,0.0,tones/440hz_short.mp3,64,tones/440hz_short.mp3,tone_number_task+empty_block+empty_block,a,868.0,k,1314.0
0.0,31.0,tone_number_task,1175.0,1025.0,tones/880hz_short.mp3,38,tones/880hz_short.mp3,tone_number_task+tone_number_task_remaining_after_delay+empty_block,s,1091.0,j,400.0
0.0,32.0,tone_number_task,150.0,0.0,tones/440hz_short.mp3,68,tones/440hz_short.mp3,tone_number_task+empty_block+empty_block,a,1125.0,k,1587.0
0.0,33.0,tone_number_task,252.5,102.5,tones/880hz_short.mp3,58,tones/880hz_short.mp3,tone_number_task+empty_block+empty_block,s,1024.5,k,996.0
0.0,34.0,tone_number_task,252.5,102.5,tones/880hz_short.mp3,27,tones/880hz_short.mp3,tone_number_task+empty_block+empty_block,s,1246.5,j,1346.0
0.0,35.0,tone_number_task,150.0,0.0,tones/880hz_short.mp3,63,tones/880hz_short.mp3,tone_number_task+empty_block+empty_block,s,1070.0,k,1222.0
0.0,36.0,tone_number_task,1142.5,992.5,tones/440hz_short.mp3,42,tones/440hz_short.mp3,tone_number_task+delay_block+tone_number_task_remaining_before_delay+empty_block,a,651.0,j,831.0
0.0,37.0,tone_number_task,150.0,0.0,tones/440hz_short.mp3,46,tones/440hz_short.mp3,tone_number_task+empty_block+empty_block,a,882.0,k,1054.0
0.0,38.0,tone_number_task,1175.0,1025.0,tones/880hz_short.mp3,53,tones/880hz_short.mp3,tone_number_task+delay_block+tone_number_task_remaining_before_delay+empty_block,s,771.0,k,418.0
0.0,39.0,tone_number_task,1142.5,992.5,tones/880hz_short.mp3,25,tones/880hz_short.mp3,tone_number_task+delay_block+tone_number_task_remaining_before_delay+empty_block,s,779.0,j,333.0
1.0,0.0,tone_number_task,252.5,102.5,tones/880hz_short.mp3,23,tones/880hz_short.mp3,tone_number_task+empty_block+empty_block,s,1023.5,j,1014.0
1.0,1.0,tone_number_task,252.5,102.5,tones/880hz_short.mp3,47,tones/880hz_short.mp3,tone_number_task+empty_block+empty_block,s,859.5,k,843.0
1.0,2.0,tone_number_task,1175.0,1025.0,tones/440hz_short.mp3,22,tones/440hz_short.mp3,tone_number_task+delay_block+tone_number_task_remaining_before_delay+empty_block,a,691.0,j,381.0
1.0,3.0,tone_number_task,1175.0,1025.0,tones/440hz_short.mp3,40,tones/440hz_short.mp3,tone_number_task+delay_block+tone_number_task_remaining_before_delay+empty_block,a,909.0,j,668.0
1.0,4.0,tone_number_task,1175.0,1025.0,tones/880hz_short.mp3,22,tones/880hz_short.mp3,tone_number_task+delay_block+tone_number_task_remaining_before_delay+empty_block,s,949.0,j,366.0
1.0,5.0,tone_number_task,150.0,0.0,tones/440hz_short.mp3,34,tones/440hz_short.mp3,tone_number_task+empty_block+empty_block,a,870.0,j,1248.0
1.0,6.0,tone_number_task,252.5,102.5,tones/440hz_short.mp3,60,tones/440hz_short.mp3,tone_number_task+empty_block+empty_block,a,908.5,k,920.0
1.0,7.0,tone_number_task,1175.0,1025.0,tones/880hz_short.mp3,30,tones/880hz_short.mp3,tone_number_task+delay_block+tone_number_task_remaining_before_delay+empty_block,s,672.0,j,975.0
1.0,8.0,tone_number_task,1175.0,1025.0,tones/440hz_short.mp3,36,tones/440hz_short.mp3,tone_number_task+delay_block+tone_number_task_remaining_before_delay+empty_block,a,968.0,j,734.0
1.0,9.0,tone_number_task,1142.5,992.5,tones/440hz_short.mp3,39,tones/440hz_short.mp3,tone_number_task+delay_block+tone_number_task_remaining_before_delay+empty_block,a,640.0,j,812.0
1.0,10.0,tone_number_task,150.0,0.0,tones/440hz_short.mp3,42,tones/440hz_short.mp3,tone_number_task+empty_block+empty_block,a,634.0,j,785.0
1.0,11.0,tone_number_task,252.5,102.5,tones/440hz_short.mp3,52,tones/440hz_short.mp3,tone_number_task+empty_block+empty_block,a,1225.5,k,1215.0
1.0,12.0,tone_number_task,1142.5,992.5,tones/440hz_short.mp3,48,tones/440hz_short.mp3,tone_number_task+delay_block+tone_number_task_remaining_before_delay+empty_block,a,672.0,j,466.0
1.0,13.0,tone_number_task,1142.5,992.5,tones/880hz_short.mp3,69,tones/880hz_short.mp3,tone_number_task+delay_block+tone_number_task_remaining_before_delay+empty_block,s,771.0,k,486.0
1.0,15.0,tone_number_task,252.5,102.5,tones/880hz_short.mp3,57,tones/880hz_short.mp3,tone_number_task+empty_block+empty_block,s,849.5,k,874.0
1.0,16.0,tone_number_task,1175.0,1025.0,tones/880hz_short.mp3,58,tones/880hz_short.mp3,tone_number_task+delay_block+tone_number_task_remaining_before_delay+empty_block,s,709.0,k,443.0
1.0,17.0,tone_number_task,150.0,0.0,tones/440hz_short.mp3,22,tones/440hz_short.mp3,tone_number_task+empty_block+empty_block,a,827.0,j,958.0
1.0,18.0,tone_number_task,1175.0,1025.0,tones/880hz_short.mp3,52,tones/880hz_short.mp3,tone_number_task+delay_block+tone_number_task_remaining_before_delay+empty_block,s,709.0,k,423.0
1.0,19.0,tone_number_task,1142.5,992.5,tones/440hz_short.mp3,43,tones/440hz_short.mp3,tone_number_task+delay_block+tone_number_task_remaining_before_delay+empty_block,a,859.0,j,1078.0
1.0,20.0,tone_number_task,150.0,0.0,tones/880hz_short.mp3,65,tones/880hz_short.mp3,tone_number_task+empty_block+empty_block,s,1040.0,k,1180.0
1.0,21.0,tone_number_task,1175.0,1025.0,tones/880hz_short.mp3,44,tones/880hz_short.mp3,tone_number_task+tone_number_task_remaining_after_delay+empty_block,s,1160.0,k,253.0
1.0,22.0,tone_number_task,1175.0,1025.0,tones/440hz_short.mp3,35,tones/440hz_short.mp3,tone_number_task+delay_block+tone_number_task_remaining_before_delay+empty_block,a,829.0,j,433.0
1.0,23.0,tone_number_task,150.0,0.0,tones/440hz_short.mp3,40,tones/440hz_short.mp3,tone_number_task+empty_block+empty_block,a,880.0,j,1036.0
1.0,24.0,tone_number_task,1175.0,1025.0,tones/880hz_short.mp3,37,tones/880hz_short.mp3,tone_number_task+delay_block+tone_number_task_remaining_before_delay+empty_block,s,760.0,j,365.0
1.0,25.0,tone_number_task,1142.5,992.5,tones/880hz_short.mp3,28,tones/880hz_short.mp3,tone_number_task+delay_block+tone_number_task_remaining_before_delay+empty_block,s,768.0,j,392.0
1.0,26.0,tone_number_task,150.0,0.0,tones/440hz_short.mp3,22,tones/440hz_short.mp3,tone_number_task+empty_block+empty_block,a,1160.0,j,1477.0
1.0,27.0,tone_number_task,1142.5,992.5,tones/440hz_short.mp3,49,tones/440hz_short.mp3,tone_number_task+delay_block+tone_number_task_remaining_before_delay+empty_block,s,968.0,k,812.0
1.0,28.0,tone_number_task,252.5,102.5,tones/880hz_short.mp3,23,tones/880hz_short.mp3,tone_number_task+empty_block+empty_block,a,1341.5,,
1.0,29.0,tone_number_task,1142.5,992.5,tones/880hz_short.mp3,64,tones/880hz_short.mp3,tone_number_task+delay_block+tone_number_task_remaining_before_delay+empty_block,s,781.0,k,480.0
1.0,30.0,tone_number_task,252.5,102.5,tones/440hz_short.mp3,28,tones/440hz_short.mp3,tone_number_task+empty_block+empty_block,a,1082.5,j,1321.0
1.0,31.0,tone_number_task,1142.5,992.5,tones/880hz_short.mp3,57,tones/880hz_short.mp3,tone_number_task+delay_block+tone_number_task_remaining_before_delay+empty_block,s,760.0,k,481.0
1.0,32.0,tone_number_task,252.5,102.5,tones/880hz_short.mp3,59,tones/880hz_short.mp3,tone_number_task+empty_block+empty_block,s,1016.5,k,1018.0
1.0,33.0,tone_number_task,252.5,102.5,tones/440hz_short.mp3,35,tones/440hz_short.mp3,tone_number_task+empty_block+empty_block,a,916.5,j,901.0
1.0,34.0,tone_number_task,1142.5,992.5,tones/880hz_short.mp3,32,tones/880hz_short.mp3,tone_number_task+empty_block+empty_block,s,1391.5,j,562.0
1.0,35.0,tone_number_task,150.0,0.0,tones/440hz_short.mp3,54,tones/440hz_short.mp3,tone_number_task+empty_block+empty_block,a,752.0,k,1040.0
1.0,36.0,tone_number_task,252.5,102.5,tones/880hz_short.mp3,25,tones/880hz_short.mp3,tone_number_task+empty_block+empty_block,s,835.5,j,844.0
1.0,37.0,tone_number_task,150.0,0.0,tones/440hz_short.mp3,29,tones/440hz_short.mp3,tone_number_task+empty_block+empty_block,a,1332.0,j,1532.0
1.0,38.0,tone_number_task,1142.5,992.5,tones/880hz_short.mp3,33,tones/880hz_short.mp3,tone_number_task+empty_block+empty_block,s,1906.5,j,1180.0
1.0,39.0,tone_number_task,150.0,0.0,tones/440hz_short.mp3,54,tones/440hz_short.mp3,tone_number_task+empty_block+empty_block,a,891.0,k,1049.0
2.0,0.0,tone_number_task,150.0,0.0,tones/880hz_short.mp3,cincuenta y dos,tones/880hz_short.mp3,tone_number_task+empty_block+empty_block,s,1172.0,,
2.0,1.0,tone_number_task,1142.5,992.5,tones/440hz_short.mp3,sesenta y ocho,tones/440hz_short.mp3,tone_number_task+empty_block+empty_block,,,k,
2.0,3.0,tone_number_task,150.0,0.0,tones/440hz_short.mp3,veintitres,tones/440hz_short.mp3,tone_number_task+empty_block+empty_block,a,978.0,j,1235.0
2.0,4.0,tone_number_task,252.5,102.5,tones/440hz_short.mp3,treinta y cinco,tones/440hz_short.mp3,tone_number_task+empty_block+empty_block,a,894.5,j,927.0
2.0,5.0,tone_number_task,1175.0,1025.0,tones/880hz_short.mp3,sesenta y nueve,tones/880hz_short.mp3,tone_number_task+tone_number_task_remaining_after_delay+empty_block,s,1029.0,k,665.0
2.0,6.0,tone_number_task,150.0,0.0,tones/880hz_short.mp3,sesenta y nueve,tones/880hz_short.mp3,tone_number_task+empty_block+empty_block,s,758.0,k,889.0
2.0,7.0,tone_number_task,1142.5,992.5,tones/880hz_short.mp3,treinta y tres,tones/880hz_short.mp3,tone_number_task+delay_block+tone_number_task_remaining_before_delay+empty_block,s,720.0,j,555.0
2.0,8.0,tone_number_task,150.0,0.0,tones/880hz_short.mp3,cincuenta y uno,tones/880hz_short.mp3,tone_number_task+empty_block+empty_block,s,702.0,k,953.0
2.0,10.0,tone_number_task,252.5,102.5,tones/440hz_short.mp3,treinta y tres,tones/440hz_short.mp3,tone_number_task+empty_block+empty_block,a,826.5,j,795.0
2.0,11.0,tone_number_task,1175.0,1025.0,tones/880hz_short.mp3,treinta y dos,tones/880hz_short.mp3,tone_number_task+delay_block+tone_number_task_remaining_before_delay+empty_block,s,720.0,j,510.0
2.0,12.0,tone_number_task,252.5,102.5,tones/880hz_short.mp3,cuarenta y ocho,tones/880hz_short.mp3,tone_number_task+empty_block+empty_block,s,968.5,k,1384.0
2.0,13.0,tone_number_task,1175.0,1025.0,tones/440hz_short.mp3,cuarenta y seis,tones/440hz_short.mp3,tone_number_task+delay_block+tone_number_task_remaining_before_delay+empty_block,a,848.0,k,1159.0
2.0,14.0,tone_number_task,150.0,0.0,tones/440hz_short.mp3,cuarenta y seis,tones/440hz_short.mp3,tone_number_task+empty_block+empty_block,a,1264.0,k,1390.0
2.0,15.0,tone_number_task,1142.5,992.5,tones/440hz_short.mp3,cuarenta y dos,tones/440hz_short.mp3,tone_number_task+empty_block+empty_block,a,2099.5,j,1251.0
2.0,16.0,tone_number_task,1142.5,992.5,tones/880hz_short.mp3,sesenta y nueve,tones/880hz_short.mp3,tone_number_task+delay_block+tone_number_task_remaining_before_delay+empty_block,s,800.0,k,581.0
2.0,17.0,tone_number_task,1175.0,1025.0,tones/440hz_short.mp3,sesenta y cinco,tones/440hz_short.mp3,tone_number_task+empty_block+empty_block,a,1216.0,,
2.0,18.0,tone_number_task,1142.5,992.5,tones/440hz_short.mp3,cuarenta y nueve,tones/440hz_short.mp3,tone_number_task+tone_number_task_remaining_after_delay+empty_block,a,1021.0,k,996.0
2.0,19.0,tone_number_task,150.0,0.0,tones/880hz_short.mp3,treinta y cuatro,tones/880hz_short.mp3,tone_number_task+empty_block+empty_block,s,848.0,j,1148.0
2.0,20.0,tone_number_task,1175.0,1025.0,tones/880hz_short.mp3,sesenta y tres,tones/880hz_short.mp3,tone_number_task+delay_block+tone_number_task_remaining_before_delay+empty_block,s,771.0,k,447.0
2.0,21.0,tone_number_task,1175.0,1025.0,tones/440hz_short.mp3,cincuenta y ocho,tones/440hz_short.mp3,tone_number_task+delay_block+tone_number_task_remaining_before_delay+empty_block,a,869.0,k,1263.0
2.0,22.0,tone_number_task,252.5,102.5,tones/880hz_short.mp3,veintisiete,tones/880hz_short.mp3,tone_number_task+empty_block+empty_block,s,880.5,j,1376.0
2.0,23.0,tone_number_task,1175.0,1025.0,tones/880hz_short.mp3,treinta y nueve,tones/880hz_short.mp3,tone_number_task+delay_block+tone_number_task_remaining_before_delay+empty_block,s,760.0,j,614.0
2.0,24.0,tone_number_task,1175.0,1025.0,tones/440hz_short.mp3,cuarenta y siete,tones/440hz_short.mp3,tone_number_task+delay_block+tone_number_task_remaining_before_delay+empty_block,a,979.0,k,998.0
2.0,25.0,tone_number_task,1142.5,992.5,tones/440hz_short.mp3,veinticinco,tones/440hz_short.mp3,tone_number_task+delay_block+tone_number_task_remaining_before_delay+empty_block,a,829.0,j,662.0
2.0,26.0,tone_number_task,1175.0,1025.0,tones/440hz_short.mp3,cincuenta y dos,tones/440hz_short.mp3,tone_number_task+delay_block+tone_number_task_remaining_before_delay+empty_block,a,869.0,k,773.0
2.0,28.0,tone_number_task,1142.5,992.5,tones/440hz_short.mp3,sesenta y tres,tones/440hz_short.mp3,tone_number_task+tone_number_task_remaining_after_delay+empty_block,a,1048.0,k,548.0
2.0,29.0,tone_number_task,1142.5,992.5,tones/880hz_short.mp3,cuarenta y nueve,tones/880hz_short.mp3,tone_number_task+delay_block+tone_number_task_remaining_before_delay+empty_block,s,949.0,k,789.0
2.0,31.0,tone_number_task,252.5,102.5,tones/440hz_short.mp3,cincuenta y dos,tones/440hz_short.mp3,tone_number_task+empty_block+empty_block,a,1338.5,k,1395.0
2.0,32.0,tone_number_task,150.0,0.0,tones/880hz_short.mp3,cincuenta y dos,tones/880hz_short.mp3,tone_number_task+empty_block+empty_block,s,1308.0,k,1979.0
2.0,33.0,tone_number_task,150.0,0.0,tones/880hz_short.mp3,cincuenta,tones/880hz_short.mp3,tone_number_task+empty_block+empty_block,s,900.0,k,1056.0
2.0,34.0,tone_number_task,150.0,0.0,tones/880hz_short.mp3,treinta y ocho,tones/880hz_short.mp3,tone_number_task+empty_block+empty_block,s,1230.0,j,1323.0
2.0,35.0,tone_number_task,252.5,102.5,tones/880hz_short.mp3,cincuenta,tones/880hz_short.mp3,tone_number_task+empty_block+empty_block,s,1034.5,k,1061.0
2.0,36.0,tone_number_task,252.5,102.5,tones/440hz_short.mp3,veinticinco,tones/440hz_short.mp3,tone_number_task+empty_block+empty_block,a,1226.5,j,1264.0
2.0,37.0,tone_number_task,1142.5,992.5,tones/440hz_short.mp3,sesenta y ocho,tones/440hz_short.mp3,tone_number_task+delay_block+tone_number_task_remaining_before_delay+empty_block,a,872.0,k,481.0
2.0,38.0,tone_number_task,1175.0,1025.0,tones/880hz_short.mp3,sesenta y nueve,tones/880hz_short.mp3,tone_number_task+empty_block+empty_block,s,1477.0,k,709.0
3.0,1.0,tone_number_task,252.5,102.5,tones/880hz_short.mp3,treinta y ocho,tones/880hz_short.mp3,tone_number_task+empty_block+empty_block,s,1463.5,j,1478.0
3.0,2.0,tone_number_task,150.0,0.0,tones/440hz_short.mp3,sesenta y siete,tones/440hz_short.mp3,tone_number_task+empty_block+empty_block,a,972.0,k,1230.0
3.0,3.0,tone_number_task,1142.5,992.5,tones/440hz_short.mp3,sesenta y tres,tones/440hz_short.mp3,tone_number_task+empty_block+empty_block,a,1371.5,k,650.0
3.0,4.0,tone_number_task,1175.0,1025.0,tones/880hz_short.mp3,cuarenta y tres,tones/880hz_short.mp3,tone_number_task+delay_block+tone_number_task_remaining_before_delay+empty_block,s,709.0,j,510.0
3.0,6.0,tone_number_task,1142.5,992.5,tones/440hz_short.mp3,cuarenta y nueve,tones/440hz_short.mp3,tone_number_task+tone_number_task_remaining_after_delay+empty_block,a,1061.0,k,552.0
3.0,7.0,tone_number_task,1175.0,1025.0,tones/440hz_short.mp3,veintiocho,tones/440hz_short.mp3,tone_number_task+empty_block+empty_block,a,1267.0,j,618.0
3.0,8.0,tone_number_task,1175.0,1025.0,tones/880hz_short.mp3,cuarenta y nueve,tones/880hz_short.mp3,tone_number_task+empty_block+empty_block,s,1456.0,k,624.0
3.0,9.0,tone_number_task,1142.5,992.5,tones/880hz_short.mp3,veinticuatro,tones/880hz_short.mp3,tone_number_task+delay_block+tone_number_task_remaining_before_delay+empty_block,s,840.0,j,590.0
3.0,10.0,tone_number_task,1175.0,1025.0,tones/440hz_short.mp3,veinticuatro,tones/440hz_short.mp3,tone_number_task+tone_number_task_remaining_after_delay+empty_block,a,1171.0,j,425.0
3.0,11.0,tone_number_task,252.5,102.5,tones/440hz_short.mp3,sesenta y nueve,tones/440hz_short.mp3,tone_number_task+empty_block+empty_block,a,783.5,k,789.0
3.0,12.0,tone_number_task,1142.5,992.5,tones/880hz_short.mp3,treinta y seis,tones/880hz_short.mp3,tone_number_task+empty_block+empty_block,s,1281.5,j,555.0
3.0,13.0,tone_number_task,1142.5,992.5,tones/880hz_short.mp3,treinta y siete,tones/880hz_short.mp3,tone_number_task+delay_block+tone_number_task_remaining_before_delay+empty_block,s,989.0,j,615.0
3.0,14.0,tone_number_task,252.5,102.5,tones/440hz_short.mp3,cincuenta y nueve,tones/440hz_short.mp3,tone_number_task+empty_block+empty_block,a,1332.5,k,1438.0
3.0,15.0,tone_number_task,252.5,102.5,tones/440hz_short.mp3,veinticinco,tones/440hz_short.mp3,tone_number_task+empty_block+empty_block,a,1185.5,j,1179.0
3.0,16.0,tone_number_task,252.5,102.5,tones/880hz_short.mp3,sesenta y cinco,tones/880hz_short.mp3,tone_number_task+empty_block+empty_block,s,867.5,k,1951.0
3.0,17.0,tone_number_task,252.5,102.5,tones/440hz_short.mp3,veintitres,tones/440hz_short.mp3,tone_number_task+empty_block+empty_block,a,1163.5,j,1155.0
3.0,19.0,tone_number_task,252.5,102.5,tones/880hz_short.mp3,treinta y cinco,tones/880hz_short.mp3,tone_number_task+empty_block+empty_block,a,906.5,j,904.0
3.0,20.0,tone_number_task,1142.5,992.5,tones/880hz_short.mp3,cuarenta y seis,tones/880hz_short.mp3,tone_number_task+delay_block+tone_number_task_remaining_before_delay+empty_block,s,811.0,k,851.0
3.0,21.0,tone_number_task,1142.5,992.5,tones/880hz_short.mp3,cincuenta y uno,tones/880hz_short.mp3,tone_number_task+tone_number_task_remaining_after_delay+empty_block,s,1088.0,k,847.0
3.0,23.0,tone_number_task,1142.5,992.5,tones/880hz_short.mp3,veintitres,tones/880hz_short.mp3,tone_number_task+tone_number_task_remaining_after_delay+empty_block,s,1128.0,j,587.0
3.0,24.0,tone_number_task,1175.0,1025.0,tones/880hz_short.mp3,veinticuatro,tones/880hz_short.mp3,tone_number_task+delay_block+tone_number_task_remaining_before_delay+empty_block,s,720.0,j,609.0
3.0,25.0,tone_number_task,150.0,0.0,tones/440hz_short.mp3,cincuenta y uno,tones/440hz_short.mp3,tone_number_task+empty_block+empty_block,a,1113.0,k,1323.0
3.0,26.0,tone_number_task,1142.5,992.5,tones/880hz_short.mp3,veintiuno,tones/880hz_short.mp3,tone_number_task+delay_block+tone_number_task_remaining_before_delay+empty_block,s,640.0,j,398.0
3.0,27.0,tone_number_task,150.0,0.0,tones/880hz_short.mp3,sesenta y siete,tones/880hz_short.mp3,tone_number_task+empty_block+empty_block,s,868.0,k,1018.0
3.0,28.0,tone_number_task,150.0,0.0,tones/880hz_short.mp3,treinta y cuatro,tones/880hz_short.mp3,tone_number_task+empty_block+empty_block,s,1072.0,j,1486.0
3.0,29.0,tone_number_task,1142.5,992.5,tones/440hz_short.mp3,veintitres,tones/440hz_short.mp3,tone_number_task+delay_block+tone_number_task_remaining_before_delay+empty_block,a,981.0,j,472.0
3.0,30.0,tone_number_task,1175.0,1025.0,tones/880hz_short.mp3,veinticuatro,tones/880hz_short.mp3,tone_number_task+delay_block+tone_number_task_remaining_before_delay+empty_block,s,960.0,j,524.0
3.0,31.0,tone_number_task,150.0,0.0,tones/880hz_short.mp3,cuarenta y ocho,tones/880hz_short.mp3,tone_number_task+empty_block+empty_block,s,785.0,k,1417.0
3.0,33.0,tone_number_task,150.0,0.0,tones/880hz_short.mp3,treinta y cuatro,tones/880hz_short.mp3,tone_number_task+empty_block+empty_block,s,1169.0,j,1266.0
3.0,34.0,tone_number_task,1175.0,1025.0,tones/440hz_short.mp3,cincuenta y uno,tones/440hz_short.mp3,tone_number_task+empty_block+empty_block,a,1666.0,k,743.0
3.0,35.0,tone_number_task,252.5,102.5,tones/440hz_short.mp3,sesenta y siete,tones/440hz_short.mp3,tone_number_task+empty_block+empty_block,a,942.5,k,982.0
3.0,36.0,tone_number_task,1175.0,1025.0,tones/440hz_short.mp3,sesenta y tres,tones/440hz_short.mp3,tone_number_task+tone_number_task_remaining_after_delay+empty_block,a,1147.0,k,579.0
3.0,37.0,tone_number_task,1175.0,1025.0,tones/880hz_short.mp3,sesenta y tres,tones/880hz_short.mp3,tone_number_task+delay_block+tone_number_task_remaining_before_delay+empty_block,s,931.0,k,521.0
3.0,38.0,tone_number_task,252.5,102.5,tones/440hz_short.mp3,veintidós,tones/440hz_short.mp3,tone_number_task+empty_block+empty_block,a,1219.5,j,1219.0
