block,round,task,trial_duration,delay,audioFile,number,stimulus,type,response_1,rt_1,response_2,rt_2,is_word
0.0,0.0,tone_number_task,252.5,102.5,tones/440hz_short.mp3,28,tones/440hz_short.mp3,tone_number_task+empty_block+empty_block,a,640.5,j,1086.0,False
0.0,1.0,tone_number_task,1175.0,1025.0,tones/880hz_short.mp3,25,tones/880hz_short.mp3,tone_number_task+delay_block+tone_number_task_remaining_before_delay+empty_block,s,757.0,j,586.0,False
0.0,3.0,tone_number_task,1175.0,1025.0,tones/440hz_short.mp3,36,tones/440hz_short.mp3,tone_number_task+delay_block+tone_number_task_remaining_before_delay+empty_block,a,731.0,j,668.0,False
0.0,4.0,tone_number_task,252.5,102.5,tones/440hz_short.mp3,40,tones/440hz_short.mp3,tone_number_task+empty_block+empty_block,a,1141.5,j,1287.0,False
0.0,5.0,tone_number_task,1142.5,992.5,tones/440hz_short.mp3,67,tones/440hz_short.mp3,tone_number_task+delay_block+tone_number_task_remaining_before_delay+empty_block,a,747.0,k,551.0,False
0.0,6.0,tone_number_task,1142.5,992.5,tones/440hz_short.mp3,51,tones/440hz_short.mp3,tone_number_task+delay_block+tone_number_task_remaining_before_delay+empty_block,a,672.0,k,826.0,False
0.0,7.0,tone_number_task,150.0,0.0,tones/880hz_short.mp3,43,tones/880hz_short.mp3,tone_number_task+empty_block+empty_block,s,1126.0,j,1857.0,False
0.0,8.0,tone_number_task,1142.5,992.5,tones/880hz_short.mp3,50,tones/880hz_short.mp3,tone_number_task+delay_block+tone_number_task_remaining_before_delay+empty_block,s,672.0,k,436.0,False
0.0,9.0,tone_number_task,1175.0,1025.0,tones/440hz_short.mp3,34,tones/440hz_short.mp3,tone_number_task+delay_block+tone_number_task_remaining_before_delay+empty_block,a,763.0,j,557.0,False
0.0,10.0,tone_number_task,252.5,102.5,tones/880hz_short.mp3,57,tones/880hz_short.mp3,tone_number_task+empty_block+empty_block,s,610.5,k,822.0,False
0.0,11.0,tone_number_task,252.5,102.5,tones/440hz_short.mp3,29,tones/440hz_short.mp3,tone_number_task+empty_block+empty_block,a,924.5,j,1342.0,False
0.0,12.0,tone_number_task,252.5,102.5,tones/440hz_short.mp3,43,tones/440hz_short.mp3,tone_number_task+empty_block+empty_block,a,971.5,j,1062.0,False
0.0,13.0,tone_number_task,1142.5,992.5,tones/880hz_short.mp3,29,tones/880hz_short.mp3,tone_number_task+delay_block+tone_number_task_remaining_before_delay+empty_block,s,645.0,j,513.0,False
0.0,14.0,tone_number_task,1175.0,1025.0,tones/440hz_short.mp3,54,tones/440hz_short.mp3,tone_number_task+delay_block+tone_number_task_remaining_before_delay+empty_block,a,720.0,j,520.0,False
0.0,15.0,tone_number_task,1175.0,1025.0,tones/880hz_short.mp3,57,tones/880hz_short.mp3,tone_number_task+empty_block+empty_block,s,1283.0,k,728.0,False
0.0,16.0,tone_number_task,1142.5,992.5,tones/440hz_short.mp3,58,tones/440hz_short.mp3,tone_number_task+tone_number_task_remaining_after_delay+empty_block,a,1077.0,k,628.0,False
0.0,17.0,tone_number_task,1142.5,992.5,tones/440hz_short.mp3,66,tones/440hz_short.mp3,tone_number_task+empty_block+empty_block,a,2118.5,k,1434.0,False
0.0,18.0,tone_number_task,1142.5,992.5,tones/440hz_short.mp3,66,tones/440hz_short.mp3,tone_number_task+delay_block+tone_number_task_remaining_before_delay+empty_block,a,848.0,k,549.0,False
0.0,19.0,tone_number_task,150.0,0.0,tones/440hz_short.mp3,56,tones/440hz_short.mp3,tone_number_task+empty_block+empty_block,a,588.0,k,863.0,False
0.0,20.0,tone_number_task,150.0,0.0,tones/440hz_short.mp3,44,tones/440hz_short.mp3,tone_number_task+empty_block+empty_block,a,628.0,j,944.0,False
0.0,21.0,tone_number_task,150.0,0.0,tones/880hz_short.mp3,22,tones/880hz_short.mp3,tone_number_task+empty_block+empty_block,s,655.0,j,971.0,False
0.0,22.0,tone_number_task,1142.5,992.5,tones/440hz_short.mp3,23,tones/440hz_short.mp3,tone_number_task+tone_number_task_remaining_after_delay+empty_block,a,1029.0,j,620.0,False
0.0,23.0,tone_number_task,150.0,0.0,tones/880hz_short.mp3,41,tones/880hz_short.mp3,tone_number_task+empty_block+empty_block,s,962.0,j,1454.0,False
0.0,24.0,tone_number_task,252.5,102.5,tones/440hz_short.mp3,61,tones/440hz_short.mp3,tone_number_task+empty_block+empty_block,a,1231.5,k,1484.0,False
0.0,25.0,tone_number_task,252.5,102.5,tones/440hz_short.mp3,23,tones/440hz_short.mp3,tone_number_task+empty_block+empty_block,a,1391.5,j,1601.0,False
0.0,26.0,tone_number_task,252.5,102.5,tones/440hz_short.mp3,30,tones/440hz_short.mp3,tone_number_task+empty_block+empty_block,a,1258.5,j,1432.0,False
0.0,27.0,tone_number_task,1175.0,1025.0,tones/440hz_short.mp3,26,tones/440hz_short.mp3,tone_number_task+delay_block+tone_number_task_remaining_before_delay+empty_block,a,731.0,j,539.0,False
0.0,28.0,tone_number_task,252.5,102.5,tones/440hz_short.mp3,22,tones/440hz_short.mp3,tone_number_task+empty_block+empty_block,a,692.5,j,882.0,False
0.0,29.0,tone_number_task,1175.0,1025.0,tones/880hz_short.mp3,32,tones/880hz_short.mp3,tone_number_task+tone_number_task_remaining_after_delay+empty_block,s,1147.0,j,632.0,False
0.0,30.0,tone_number_task,252.5,102.5,tones/440hz_short.mp3,62,tones/440hz_short.mp3,tone_number_task+empty_block+empty_block,a,1185.5,k,1447.0,False
0.0,32.0,tone_number_task,1175.0,1025.0,tones/440hz_short.mp3,43,tones/440hz_short.mp3,tone_number_task+delay_block+tone_number_task_remaining_before_delay+empty_block,a,731.0,j,458.0,False
0.0,33.0,tone_number_task,1142.5,992.5,tones/440hz_short.mp3,37,tones/440hz_short.mp3,tone_number_task+delay_block+tone_number_task_remaining_before_delay+empty_block,a,576.0,j,626.0,False
0.0,34.0,tone_number_task,150.0,0.0,tones/440hz_short.mp3,25,tones/440hz_short.mp3,tone_number_task+empty_block+empty_block,a,679.0,j,1041.0,False
0.0,35.0,tone_number_task,150.0,0.0,tones/440hz_short.mp3,31,tones/440hz_short.mp3,tone_number_task+empty_block+empty_block,a,684.0,j,995.0,False
0.0,36.0,tone_number_task,150.0,0.0,tones/880hz_short.mp3,40,tones/880hz_short.mp3,tone_number_task+empty_block+empty_block,s,938.0,j,1274.0,False
0.0,37.0,tone_number_task,1175.0,1025.0,tones/440hz_short.mp3,56,tones/440hz_short.mp3,tone_number_task+delay_block+tone_number_task_remaining_before_delay+empty_block,a,677.0,k,593.0,False
0.0,38.0,tone_number_task,1142.5,992.5,tones/880hz_short.mp3,36,tones/880hz_short.mp3,tone_number_task+empty_block+empty_block,s,1302.5,j,632.0,False
0.0,39.0,tone_number_task,1175.0,1025.0,tones/880hz_short.mp3,51,tones/880hz_short.mp3,tone_number_task+tone_number_task_remaining_after_delay+empty_block,s,1131.0,k,647.0,False
1.0,0.0,tone_number_task,1142.5,992.5,tones/440hz_short.mp3,29,tones/440hz_short.mp3,tone_number_task+empty_block+empty_block,a,1152.5,j,547.0,False
1.0,1.0,tone_number_task,150.0,0.0,tones/880hz_short.mp3,44,tones/880hz_short.mp3,tone_number_task+empty_block+empty_block,s,541.0,j,1316.0,False
1.0,2.0,tone_number_task,1142.5,992.5,tones/880hz_short.mp3,41,tones/880hz_short.mp3,tone_number_task+delay_block+tone_number_task_remaining_before_delay+empty_block,s,672.0,j,573.0,False
1.0,3.0,tone_number_task,252.5,102.5,tones/880hz_short.mp3,62,tones/880hz_short.mp3,tone_number_task+empty_block+empty_block,s,568.5,k,737.0,False
1.0,4.0,tone_number_task,1175.0,1025.0,tones/880hz_short.mp3,21,tones/880hz_short.mp3,tone_number_task+delay_block+tone_number_task_remaining_before_delay+empty_block,s,805.0,j,639.0,False
1.0,5.0,tone_number_task,1175.0,1025.0,tones/440hz_short.mp3,59,tones/440hz_short.mp3,tone_number_task+empty_block+empty_block,a,1419.0,k,776.0,False
1.0,7.0,tone_number_task,150.0,0.0,tones/440hz_short.mp3,49,tones/440hz_short.mp3,tone_number_task+empty_block+empty_block,a,1253.0,k,2033.0,False
1.0,8.0,tone_number_task,1175.0,1025.0,tones/880hz_short.mp3,55,tones/880hz_short.mp3,tone_number_task+delay_block+tone_number_task_remaining_before_delay+empty_block,s,880.0,k,582.0,False
1.0,9.0,tone_number_task,150.0,0.0,tones/880hz_short.mp3,25,tones/880hz_short.mp3,tone_number_task+empty_block+empty_block,a,841.0,j,1698.0,False
1.0,10.0,tone_number_task,150.0,0.0,tones/880hz_short.mp3,58,tones/880hz_short.mp3,tone_number_task+empty_block+empty_block,s,859.0,k,1270.0,False
1.0,11.0,tone_number_task,1175.0,1025.0,tones/440hz_short.mp3,51,tones/440hz_short.mp3,tone_number_task+delay_block+tone_number_task_remaining_before_delay+empty_block,a,784.0,k,927.0,False
1.0,12.0,tone_number_task,1175.0,1025.0,tones/440hz_short.mp3,53,tones/440hz_short.mp3,tone_number_task+delay_block+tone_number_task_remaining_before_delay+empty_block,a,907.0,k,613.0,False
1.0,15.0,tone_number_task,252.5,102.5,tones/440hz_short.mp3,57,tones/440hz_short.mp3,tone_number_task+empty_block+empty_block,a,1268.5,k,1446.0,False
1.0,16.0,tone_number_task,252.5,102.5,tones/440hz_short.mp3,26,tones/440hz_short.mp3,tone_number_task+empty_block+empty_block,a,1240.5,j,1476.0,False
1.0,17.0,tone_number_task,1175.0,1025.0,tones/880hz_short.mp3,49,tones/880hz_short.mp3,tone_number_task+delay_block+tone_number_task_remaining_before_delay+empty_block,s,773.0,k,1060.0,False
1.0,18.0,tone_number_task,1142.5,992.5,tones/880hz_short.mp3,61,tones/880hz_short.mp3,tone_number_task+delay_block+tone_number_task_remaining_before_delay+empty_block,s,491.0,k,544.0,False
1.0,19.0,tone_number_task,252.5,102.5,tones/440hz_short.mp3,25,tones/440hz_short.mp3,tone_number_task+empty_block+empty_block,a,814.5,j,1082.0,False
1.0,20.0,tone_number_task,252.5,102.5,tones/880hz_short.mp3,67,tones/880hz_short.mp3,tone_number_task+empty_block+empty_block,s,955.5,k,1108.0,False
1.0,21.0,tone_number_task,1142.5,992.5,tones/880hz_short.mp3,27,tones/880hz_short.mp3,tone_number_task+delay_block+tone_number_task_remaining_before_delay+empty_block,s,832.0,j,696.0,False
1.0,22.0,tone_number_task,1142.5,992.5,tones/440hz_short.mp3,30,tones/440hz_short.mp3,tone_number_task+empty_block+empty_block,a,1263.5,j,668.0,False
1.0,24.0,tone_number_task,150.0,0.0,tones/880hz_short.mp3,29,tones/880hz_short.mp3,tone_number_task+empty_block+empty_block,s,954.0,j,1229.0,False
1.0,25.0,tone_number_task,1175.0,1025.0,tones/440hz_short.mp3,68,tones/440hz_short.mp3,tone_number_task+delay_block+tone_number_task_remaining_before_delay+empty_block,a,923.0,k,517.0,False
1.0,26.0,tone_number_task,252.5,102.5,tones/440hz_short.mp3,64,tones/440hz_short.mp3,tone_number_task+empty_block+empty_block,a,1190.5,k,1323.0,False
1.0,27.0,tone_number_task,252.5,102.5,tones/440hz_short.mp3,62,tones/440hz_short.mp3,tone_number_task+empty_block+empty_block,a,638.5,k,814.0,False
1.0,28.0,tone_number_task,252.5,102.5,tones/880hz_short.mp3,69,tones/880hz_short.mp3,tone_number_task+empty_block+empty_block,s,904.5,k,1077.0,False
1.0,29.0,tone_number_task,1175.0,1025.0,tones/440hz_short.mp3,39,tones/440hz_short.mp3,tone_number_task+delay_block+tone_number_task_remaining_before_delay+empty_block,a,949.0,j,783.0,False
1.0,30.0,tone_number_task,1142.5,992.5,tones/880hz_short.mp3,32,tones/880hz_short.mp3,tone_number_task+tone_number_task_remaining_after_delay+empty_block,s,1024.0,j,799.0,False
1.0,31.0,tone_number_task,252.5,102.5,tones/880hz_short.mp3,48,tones/880hz_short.mp3,tone_number_task+empty_block+empty_block,s,1025.5,k,1272.0,False
1.0,32.0,tone_number_task,1142.5,992.5,tones/440hz_short.mp3,48,tones/440hz_short.mp3,tone_number_task+delay_block+tone_number_task_remaining_before_delay+empty_block,a,517.0,k,827.0,False
1.0,33.0,tone_number_task,150.0,0.0,tones/440hz_short.mp3,21,tones/440hz_short.mp3,tone_number_task+empty_block+empty_block,a,784.0,j,1121.0,False
1.0,34.0,tone_number_task,1142.5,992.5,tones/440hz_short.mp3,54,tones/440hz_short.mp3,tone_number_task+delay_block+tone_number_task_remaining_before_delay+empty_block,a,725.0,k,510.0,False
1.0,35.0,tone_number_task,150.0,0.0,tones/440hz_short.mp3,32,tones/440hz_short.mp3,tone_number_task+empty_block+empty_block,a,896.0,j,1169.0,False
1.0,36.0,tone_number_task,1175.0,1025.0,tones/440hz_short.mp3,32,tones/440hz_short.mp3,tone_number_task+delay_block+tone_number_task_remaining_before_delay+empty_block,a,651.0,j,492.0,False
1.0,37.0,tone_number_task,1142.5,992.5,tones/880hz_short.mp3,48,tones/880hz_short.mp3,tone_number_task+delay_block+tone_number_task_remaining_before_delay+empty_block,s,683.0,k,798.0,False
1.0,38.0,tone_number_task,1175.0,1025.0,tones/440hz_short.mp3,57,tones/440hz_short.mp3,tone_number_task+empty_block+empty_block,a,1425.0,k,739.0,False
1.0,39.0,tone_number_task,1142.5,992.5,tones/880hz_short.mp3,25,tones/880hz_short.mp3,tone_number_task+delay_block+tone_number_task_remaining_before_delay+empty_block,s,917.0,j,610.0,False
2.0,0.0,tone_number_task,1142.5,992.5,tones/880hz_short.mp3,33,tones/880hz_short.mp3,tone_number_task+delay_block+tone_number_task_remaining_before_delay+empty_block,s,667.0,j,972.0,True
2.0,1.0,tone_number_task,1142.5,992.5,tones/880hz_short.mp3,68,tones/880hz_short.mp3,tone_number_task+delay_block+tone_number_task_remaining_before_delay+empty_block,s,597.0,k,884.0,True
2.0,2.0,tone_number_task,150.0,0.0,tones/880hz_short.mp3,57,tones/880hz_short.mp3,tone_number_task+empty_block+empty_block,s,752.0,k,1219.0,True
2.0,3.0,tone_number_task,252.5,102.5,tones/880hz_short.mp3,38,tones/880hz_short.mp3,tone_number_task+empty_block+empty_block,s,539.5,j,1003.0,True
2.0,4.0,tone_number_task,1175.0,1025.0,tones/880hz_short.mp3,68,tones/880hz_short.mp3,tone_number_task+delay_block+tone_number_task_remaining_before_delay+empty_block,s,795.0,k,1051.0,True
2.0,5.0,tone_number_task,1175.0,1025.0,tones/880hz_short.mp3,59,tones/880hz_short.mp3,tone_number_task+delay_block+tone_number_task_remaining_before_delay+empty_block,s,757.0,k,782.0,True
2.0,6.0,tone_number_task,150.0,0.0,tones/880hz_short.mp3,21,tones/880hz_short.mp3,tone_number_task+empty_block+empty_block,s,675.0,j,1084.0,True
2.0,7.0,tone_number_task,1175.0,1025.0,tones/880hz_short.mp3,58,tones/880hz_short.mp3,tone_number_task+delay_block+tone_number_task_remaining_before_delay+empty_block,s,789.0,k,716.0,True
2.0,8.0,tone_number_task,1175.0,1025.0,tones/880hz_short.mp3,30,tones/880hz_short.mp3,tone_number_task+delay_block+tone_number_task_remaining_before_delay+empty_block,s,907.0,j,789.0,True
2.0,9.0,tone_number_task,1175.0,1025.0,tones/880hz_short.mp3,34,tones/880hz_short.mp3,tone_number_task+delay_block+tone_number_task_remaining_before_delay+empty_block,s,811.0,j,691.0,True
2.0,10.0,tone_number_task,252.5,102.5,tones/880hz_short.mp3,21,tones/880hz_short.mp3,tone_number_task+empty_block+empty_block,s,669.5,j,966.0,True
2.0,11.0,tone_number_task,1175.0,1025.0,tones/880hz_short.mp3,54,tones/880hz_short.mp3,tone_number_task+delay_block+tone_number_task_remaining_before_delay+empty_block,s,704.0,k,701.0,True
2.0,12.0,tone_number_task,252.5,102.5,tones/880hz_short.mp3,59,tones/880hz_short.mp3,tone_number_task+empty_block+empty_block,s,693.5,k,970.0,True
2.0,13.0,tone_number_task,1175.0,1025.0,tones/440hz_short.mp3,65,tones/440hz_short.mp3,tone_number_task+delay_block+tone_number_task_remaining_before_delay+empty_block,a,747.0,k,828.0,True
2.0,14.0,tone_number_task,252.5,102.5,tones/880hz_short.mp3,59,tones/880hz_short.mp3,tone_number_task+empty_block+empty_block,s,645.5,k,1433.0,True
2.0,15.0,tone_number_task,1175.0,1025.0,tones/440hz_short.mp3,51,tones/440hz_short.mp3,tone_number_task+delay_block+tone_number_task_remaining_before_delay+empty_block,a,837.0,k,647.0,True
2.0,16.0,tone_number_task,150.0,0.0,tones/880hz_short.mp3,62,tones/880hz_short.mp3,tone_number_task+empty_block+empty_block,s,671.0,k,1096.0,True
2.0,17.0,tone_number_task,1175.0,1025.0,tones/880hz_short.mp3,30,tones/880hz_short.mp3,tone_number_task+delay_block+tone_number_task_remaining_before_delay+empty_block,s,784.0,j,631.0,True
2.0,19.0,tone_number_task,1142.5,992.5,tones/440hz_short.mp3,57,tones/440hz_short.mp3,tone_number_task+delay_block+tone_number_task_remaining_before_delay+empty_block,a,939.0,k,740.0,True
2.0,20.0,tone_number_task,1142.5,992.5,tones/440hz_short.mp3,46,tones/440hz_short.mp3,tone_number_task+delay_block+tone_number_task_remaining_before_delay+empty_block,a,619.0,,,True
2.0,21.0,tone_number_task,1142.5,992.5,tones/440hz_short.mp3,22,tones/440hz_short.mp3,tone_number_task+delay_block+tone_number_task_remaining_before_delay+empty_block,a,720.0,j,618.0,True
2.0,22.0,tone_number_task,150.0,0.0,tones/880hz_short.mp3,36,tones/880hz_short.mp3,tone_number_task+empty_block+empty_block,s,1127.0,j,1810.0,True
2.0,23.0,tone_number_task,252.5,102.5,tones/440hz_short.mp3,68,tones/440hz_short.mp3,tone_number_task+empty_block+empty_block,a,897.5,k,1310.0,True
2.0,24.0,tone_number_task,1142.5,992.5,tones/440hz_short.mp3,26,tones/440hz_short.mp3,tone_number_task+delay_block+tone_number_task_remaining_before_delay+empty_block,a,752.0,j,823.0,True
2.0,25.0,tone_number_task,252.5,102.5,tones/880hz_short.mp3,49,tones/880hz_short.mp3,tone_number_task+empty_block+empty_block,s,859.5,k,1160.0,True
2.0,26.0,tone_number_task,1142.5,992.5,tones/440hz_short.mp3,59,tones/440hz_short.mp3,tone_number_task+tone_number_task_remaining_after_delay+empty_block,a,1136.0,k,784.0,True
2.0,27.0,tone_number_task,150.0,0.0,tones/880hz_short.mp3,66,tones/880hz_short.mp3,tone_number_task+empty_block+empty_block,s,474.0,k,1329.0,True
2.0,28.0,tone_number_task,1142.5,992.5,tones/440hz_short.mp3,56,tones/440hz_short.mp3,tone_number_task+tone_number_task_remaining_after_delay+empty_block,a,1024.0,k,863.0,True
2.0,29.0,tone_number_task,150.0,0.0,tones/440hz_short.mp3,26,tones/440hz_short.mp3,tone_number_task+empty_block+empty_block,a,587.0,j,1684.0,True
2.0,31.0,tone_number_task,1142.5,992.5,tones/440hz_short.mp3,25,tones/440hz_short.mp3,tone_number_task+delay_block+tone_number_task_remaining_before_delay+empty_block,a,464.0,j,639.0,True
2.0,32.0,tone_number_task,150.0,0.0,tones/440hz_short.mp3,29,tones/440hz_short.mp3,tone_number_task+empty_block+empty_block,a,539.0,j,899.0,True
2.0,33.0,tone_number_task,1142.5,992.5,tones/880hz_short.mp3,61,tones/880hz_short.mp3,tone_number_task+delay_block+tone_number_task_remaining_before_delay+empty_block,s,757.0,k,649.0,True
2.0,34.0,tone_number_task,252.5,102.5,tones/440hz_short.mp3,53,tones/440hz_short.mp3,tone_number_task+empty_block+empty_block,a,605.5,k,935.0,True
2.0,35.0,tone_number_task,252.5,102.5,tones/440hz_short.mp3,54,tones/440hz_short.mp3,tone_number_task+empty_block+empty_block,a,593.5,k,895.0,True
2.0,36.0,tone_number_task,150.0,0.0,tones/880hz_short.mp3,33,tones/880hz_short.mp3,tone_number_task+empty_block+empty_block,s,589.0,j,1272.0,True
2.0,37.0,tone_number_task,150.0,0.0,tones/440hz_short.mp3,54,tones/440hz_short.mp3,tone_number_task+empty_block+empty_block,a,564.0,k,1048.0,True
2.0,38.0,tone_number_task,1175.0,1025.0,tones/880hz_short.mp3,38,tones/880hz_short.mp3,tone_number_task+delay_block+tone_number_task_remaining_before_delay+empty_block,s,773.0,j,638.0,True
2.0,39.0,tone_number_task,150.0,0.0,tones/880hz_short.mp3,53,tones/880hz_short.mp3,tone_number_task+empty_block+empty_block,s,1088.0,j,1504.0,True
3.0,0.0,tone_number_task,252.5,102.5,tones/440hz_short.mp3,63,tones/440hz_short.mp3,tone_number_task+empty_block+empty_block,a,996.5,k,1500.0,True
3.0,1.0,tone_number_task,1175.0,1025.0,tones/880hz_short.mp3,30,tones/880hz_short.mp3,tone_number_task+delay_block+tone_number_task_remaining_before_delay+empty_block,s,720.0,j,680.0,True
3.0,2.0,tone_number_task,1142.5,992.5,tones/440hz_short.mp3,35,tones/440hz_short.mp3,tone_number_task+delay_block+tone_number_task_remaining_before_delay+empty_block,a,864.0,j,708.0,True
3.0,3.0,tone_number_task,252.5,102.5,tones/440hz_short.mp3,23,tones/440hz_short.mp3,tone_number_task+empty_block+empty_block,a,1013.5,j,1293.0,True
3.0,4.0,tone_number_task,150.0,0.0,tones/880hz_short.mp3,66,tones/880hz_short.mp3,tone_number_task+empty_block+empty_block,s,1165.0,k,1558.0,True
3.0,5.0,tone_number_task,1175.0,1025.0,tones/880hz_short.mp3,60,tones/880hz_short.mp3,tone_number_task+delay_block+tone_number_task_remaining_before_delay+empty_block,s,800.0,k,834.0,True
3.0,6.0,tone_number_task,1175.0,1025.0,tones/440hz_short.mp3,62,tones/440hz_short.mp3,tone_number_task+delay_block+tone_number_task_remaining_before_delay+empty_block,a,763.0,k,716.0,True
3.0,7.0,tone_number_task,1175.0,1025.0,tones/880hz_short.mp3,28,tones/880hz_short.mp3,tone_number_task+delay_block+tone_number_task_remaining_before_delay+empty_block,s,1024.0,j,784.0,True
3.0,8.0,tone_number_task,150.0,0.0,tones/880hz_short.mp3,35,tones/880hz_short.mp3,tone_number_task+empty_block+empty_block,s,898.0,j,1437.0,True
3.0,9.0,tone_number_task,1142.5,992.5,tones/880hz_short.mp3,31,tones/880hz_short.mp3,tone_number_task+delay_block+tone_number_task_remaining_before_delay+empty_block,s,533.0,j,583.0,True
3.0,10.0,tone_number_task,1142.5,992.5,tones/880hz_short.mp3,29,tones/880hz_short.mp3,tone_number_task+delay_block+tone_number_task_remaining_before_delay+empty_block,s,480.0,j,614.0,True
3.0,11.0,tone_number_task,1175.0,1025.0,tones/880hz_short.mp3,49,tones/880hz_short.mp3,tone_number_task+delay_block+tone_number_task_remaining_before_delay+empty_block,s,784.0,j,785.0,True
3.0,12.0,tone_number_task,1142.5,992.5,tones/880hz_short.mp3,25,tones/880hz_short.mp3,tone_number_task+delay_block+tone_number_task_remaining_before_delay+empty_block,s,907.0,j,748.0,True
3.0,13.0,tone_number_task,1142.5,992.5,tones/440hz_short.mp3,56,tones/440hz_short.mp3,tone_number_task+delay_block+tone_number_task_remaining_before_delay+empty_block,a,677.0,k,883.0,True
3.0,14.0,tone_number_task,1142.5,992.5,tones/880hz_short.mp3,38,tones/880hz_short.mp3,tone_number_task+delay_block+tone_number_task_remaining_before_delay+empty_block,s,581.0,j,909.0,True
3.0,16.0,tone_number_task,1142.5,992.5,tones/880hz_short.mp3,58,tones/880hz_short.mp3,tone_number_task+delay_block+tone_number_task_remaining_before_delay+empty_block,s,731.0,k,935.0,True
3.0,17.0,tone_number_task,1175.0,1025.0,tones/440hz_short.mp3,27,tones/440hz_short.mp3,tone_number_task+delay_block+tone_number_task_remaining_before_delay+empty_block,a,763.0,j,602.0,True
3.0,18.0,tone_number_task,1175.0,1025.0,tones/880hz_short.mp3,43,tones/880hz_short.mp3,tone_number_task+delay_block+tone_number_task_remaining_before_delay+empty_block,s,603.0,,,True
3.0,19.0,tone_number_task,252.5,102.5,tones/880hz_short.mp3,55,tones/880hz_short.mp3,tone_number_task+empty_block+empty_block,s,784.5,k,1033.0,True
3.0,20.0,tone_number_task,252.5,102.5,tones/880hz_short.mp3,27,tones/880hz_short.mp3,tone_number_task+empty_block+empty_block,s,508.5,j,897.0,True
3.0,21.0,tone_number_task,150.0,0.0,tones/880hz_short.mp3,53,tones/880hz_short.mp3,tone_number_task+empty_block+empty_block,s,770.0,k,1062.0,True
3.0,22.0,tone_number_task,150.0,0.0,tones/880hz_short.mp3,60,tones/880hz_short.mp3,tone_number_task+empty_block+empty_block,s,556.0,k,948.0,True
3.0,23.0,tone_number_task,252.5,102.5,tones/440hz_short.mp3,36,tones/440hz_short.mp3,tone_number_task+empty_block+empty_block,a,628.5,j,934.0,True
3.0,24.0,tone_number_task,1175.0,1025.0,tones/440hz_short.mp3,64,tones/440hz_short.mp3,tone_number_task+delay_block+tone_number_task_remaining_before_delay+empty_block,a,635.0,k,724.0,True
3.0,25.0,tone_number_task,150.0,0.0,tones/880hz_short.mp3,24,tones/880hz_short.mp3,tone_number_task+empty_block+empty_block,s,557.0,j,952.0,True
3.0,27.0,tone_number_task,1175.0,1025.0,tones/880hz_short.mp3,36,tones/880hz_short.mp3,tone_number_task+delay_block+tone_number_task_remaining_before_delay+empty_block,s,528.0,j,704.0,True
3.0,28.0,tone_number_task,1175.0,1025.0,tones/440hz_short.mp3,68,tones/440hz_short.mp3,tone_number_task+delay_block+tone_number_task_remaining_before_delay+empty_block,a,539.0,k,656.0,True
3.0,29.0,tone_number_task,150.0,0.0,tones/440hz_short.mp3,57,tones/440hz_short.mp3,tone_number_task+empty_block+empty_block,a,639.0,,,True
3.0,31.0,tone_number_task,252.5,102.5,tones/880hz_short.mp3,29,tones/880hz_short.mp3,tone_number_task+empty_block+empty_block,s,569.5,j,1084.0,True
3.0,32.0,tone_number_task,1142.5,992.5,tones/880hz_short.mp3,26,tones/880hz_short.mp3,tone_number_task+delay_block+tone_number_task_remaining_before_delay+empty_block,s,731.0,j,700.0,True
3.0,33.0,tone_number_task,1142.5,992.5,tones/440hz_short.mp3,60,tones/440hz_short.mp3,tone_number_task+delay_block+tone_number_task_remaining_before_delay+empty_block,a,672.0,k,663.0,True
3.0,34.0,tone_number_task,252.5,102.5,tones/880hz_short.mp3,58,tones/880hz_short.mp3,tone_number_task+empty_block+empty_block,s,610.5,k,1056.0,True
3.0,35.0,tone_number_task,252.5,102.5,tones/880hz_short.mp3,44,tones/880hz_short.mp3,tone_number_task+empty_block+empty_block,s,974.5,k,1945.0,True
3.0,36.0,tone_number_task,252.5,102.5,tones/880hz_short.mp3,40,tones/880hz_short.mp3,tone_number_task+empty_block+empty_block,s,585.5,j,1120.0,True
3.0,38.0,tone_number_task,150.0,0.0,tones/880hz_short.mp3,56,tones/880hz_short.mp3,tone_number_task+empty_block+empty_block,s,1343.0,k,2288.0,True
3.0,39.0,tone_number_task,1142.5,992.5,tones/440hz_short.mp3,44,tones/440hz_short.mp3,tone_number_task+delay_block+tone_number_task_remaining_before_delay+empty_block,a,944.0,,,True
