block,round,task,trial_duration,delay,audioFile,number,stimulus,type,response_1,rt_1,response_2,rt_2,is_word
0.0,1.0,tone_number_task,1175.0,1025.0,tones/880hz_short.mp3,58,tones/880hz_short.mp3,tone_number_task+delay_block+tone_number_task_remaining_before_delay+empty_block,s,1011.0,k,600.0,False
0.0,2.0,tone_number_task,1175.0,1025.0,tones/880hz_short.mp3,32,tones/880hz_short.mp3,tone_number_task+delay_block+tone_number_task_remaining_before_delay+empty_block,s,600.0,j,594.0,False
0.0,3.0,tone_number_task,1142.5,992.5,tones/880hz_short.mp3,53,tones/880hz_short.mp3,tone_number_task+delay_block+tone_number_task_remaining_before_delay+empty_block,s,629.0,k,539.0,False
0.0,4.0,tone_number_task,1142.5,992.5,tones/440hz_short.mp3,67,tones/440hz_short.mp3,tone_number_task+delay_block+tone_number_task_remaining_before_delay+empty_block,a,760.0,k,471.0,False
0.0,5.0,tone_number_task,1142.5,992.5,tones/880hz_short.mp3,32,tones/880hz_short.mp3,tone_number_task+delay_block+tone_number_task_remaining_before_delay+empty_block,s,880.0,j,478.0,False
0.0,6.0,tone_number_task,252.5,102.5,tones/880hz_short.mp3,23,tones/880hz_short.mp3,tone_number_task+empty_block+empty_block,s,822.5,j,970.0,False
0.0,7.0,tone_number_task,1175.0,1025.0,tones/880hz_short.mp3,49,tones/880hz_short.mp3,tone_number_task+delay_block+tone_number_task_remaining_before_delay+empty_block,s,549.0,k,682.0,False
0.0,8.0,tone_number_task,150.0,0.0,tones/440hz_short.mp3,22,tones/440hz_short.mp3,tone_number_task+empty_block+empty_block,a,924.0,k,1207.0,False
0.0,9.0,tone_number_task,252.5,102.5,tones/880hz_short.mp3,50,tones/880hz_short.mp3,tone_number_task+empty_block+empty_block,s,644.5,k,1320.0,False
0.0,10.0,tone_number_task,1142.5,992.5,tones/880hz_short.mp3,63,tones/880hz_short.mp3,tone_number_task+delay_block+tone_number_task_remaining_before_delay+empty_block,s,680.0,k,693.0,False
0.0,11.0,tone_number_task,252.5,102.5,tones/440hz_short.mp3,64,tones/440hz_short.mp3,tone_number_task+empty_block+empty_block,a,886.5,k,1129.0,False
0.0,12.0,tone_number_task,150.0,0.0,tones/880hz_short.mp3,27,tones/880hz_short.mp3,tone_number_task+empty_block+empty_block,s,820.0,j,1134.0,False
0.0,13.0,tone_number_task,252.5,102.5,tones/880hz_short.mp3,61,tones/880hz_short.mp3,tone_number_task+empty_block+empty_block,s,574.5,k,874.0,False
0.0,14.0,tone_number_task,150.0,0.0,tones/880hz_short.mp3,56,tones/880hz_short.mp3,tone_number_task+empty_block+empty_block,s,1133.0,k,1830.0,False
0.0,15.0,tone_number_task,1175.0,1025.0,tones/440hz_short.mp3,31,tones/440hz_short.mp3,tone_number_task+delay_block+tone_number_task_remaining_before_delay+empty_block,a,1000.0,j,558.0,False
0.0,16.0,tone_number_task,1175.0,1025.0,tones/880hz_short.mp3,39,tones/880hz_short.mp3,tone_number_task+delay_block+tone_number_task_remaining_before_delay+empty_block,s,821.0,j,689.0,False
0.0,17.0,tone_number_task,1142.5,992.5,tones/440hz_short.mp3,34,tones/440hz_short.mp3,tone_number_task+empty_block+empty_block,a,1204.5,j,694.0,False
0.0,18.0,tone_number_task,150.0,0.0,tones/880hz_short.mp3,31,tones/880hz_short.mp3,tone_number_task+empty_block+empty_block,s,820.0,j,1182.0,False
0.0,19.0,tone_number_task,150.0,0.0,tones/440hz_short.mp3,64,tones/440hz_short.mp3,tone_number_task+empty_block+empty_block,a,986.0,k,1203.0,False
0.0,20.0,tone_number_task,252.5,102.5,tones/440hz_short.mp3,59,tones/440hz_short.mp3,tone_number_task+empty_block+empty_block,a,795.5,k,926.0,False
0.0,21.0,tone_number_task,252.5,102.5,tones/440hz_short.mp3,35,tones/440hz_short.mp3,tone_number_task+empty_block+empty_block,a,1131.5,j,1343.0,False
0.0,22.0,tone_number_task,252.5,102.5,tones/440hz_short.mp3,63,tones/440hz_short.mp3,tone_number_task+empty_block+empty_block,a,820.5,k,943.0,False
0.0,23.0,tone_number_task,1142.5,992.5,tones/880hz_short.mp3,47,tones/880hz_short.mp3,tone_number_task+delay_block+tone_number_task_remaining_before_delay+empty_block,s,699.0,k,965.0,False
0.0,24.0,tone_number_task,252.5,102.5,tones/880hz_short.mp3,44,tones/880hz_short.mp3,tone_number_task+empty_block+empty_block,s,1115.5,j,1567.0,False
0.0,25.0,tone_number_task,150.0,0.0,tones/440hz_short.mp3,39,tones/440hz_short.mp3,tone_number_task+empty_block+empty_block,a,520.0,j,994.0,False
0.0,26.0,tone_number_task,252.5,102.5,tones/880hz_short.mp3,37,tones/880hz_short.mp3,tone_number_task+empty_block+empty_block,s,1010.5,j,1254.0,False
0.0,27.0,tone_number_task,1142.5,992.5,tones/440hz_short.mp3,27,tones/440hz_short.mp3,tone_number_task+tone_number_task_remaining_after_delay+empty_block,a,1040.0,j,594.0,False
0.0,28.0,tone_number_task,150.0,0.0,tones/880hz_short.mp3,41,tones/880hz_short.mp3,tone_number_task+empty_block+empty_block,s,905.0,k,1475.0,False
0.0,29.0,tone_number_task,252.5,102.5,tones/880hz_short.mp3,34,tones/880hz_short.mp3,tone_number_task+empty_block+empty_block,s,819.5,j,1030.0,False
0.0,30.0,tone_number_task,1175.0,1025.0,tones/880hz_short.mp3,36,tones/880hz_short.mp3,tone_number_task+delay_block+tone_number_task_remaining_before_delay+empty_block,s,960.0,j,538.0,False
0.0,31.0,tone_number_task,150.0,0.0,tones/880hz_short.mp3,28,tones/880hz_short.mp3,tone_number_task+empty_block+empty_block,s,536.0,j,817.0,False
0.0,32.0,tone_number_task,1142.5,992.5,tones/880hz_short.mp3,62,tones/880hz_short.mp3,tone_number_task+delay_block+tone_number_task_remaining_before_delay+empty_block,s,971.0,k,516.0,False
0.0,33.0,tone_number_task,1175.0,1025.0,tones/880hz_short.mp3,50,tones/880hz_short.mp3,tone_number_task+delay_block+tone_number_task_remaining_before_delay+empty_block,s,920.0,k,784.0,False
0.0,34.0,tone_number_task,1175.0,1025.0,tones/440hz_short.mp3,49,tones/440hz_short.mp3,tone_number_task+delay_block+tone_number_task_remaining_before_delay+empty_block,a,851.0,k,587.0,False
0.0,35.0,tone_number_task,150.0,0.0,tones/880hz_short.mp3,51,tones/880hz_short.mp3,tone_number_task+empty_block+empty_block,s,770.0,,,False
0.0,36.0,tone_number_task,1142.5,992.5,tones/440hz_short.mp3,46,tones/440hz_short.mp3,tone_number_task+empty_block+empty_block,a,1181.5,k,782.0,False
0.0,37.0,tone_number_task,1142.5,992.5,tones/880hz_short.mp3,44,tones/880hz_short.mp3,tone_number_task+delay_block+tone_number_task_remaining_before_delay+empty_block,s,851.0,j,714.0,False
0.0,38.0,tone_number_task,1175.0,1025.0,tones/440hz_short.mp3,56,tones/440hz_short.mp3,tone_number_task+delay_block+tone_number_task_remaining_before_delay+empty_block,a,619.0,k,483.0,False
0.0,39.0,tone_number_task,1175.0,1025.0,tones/880hz_short.mp3,54,tones/880hz_short.mp3,tone_number_task+empty_block+empty_block,s,1175.0,k,680.0,False
1.0,0.0,tone_number_task,150.0,0.0,tones/880hz_short.mp3,50,tones/880hz_short.mp3,tone_number_task+empty_block+empty_block,s,809.0,,,False
1.0,1.0,tone_number_task,1142.5,992.5,tones/440hz_short.mp3,25,tones/440hz_short.mp3,tone_number_task+delay_block+tone_number_task_remaining_before_delay+empty_block,a,800.0,k,367.0,False
1.0,2.0,tone_number_task,1175.0,1025.0,tones/880hz_short.mp3,27,tones/880hz_short.mp3,tone_number_task+empty_block+empty_block,a,2280.0,j,1599.0,False
1.0,3.0,tone_number_task,1175.0,1025.0,tones/880hz_short.mp3,59,tones/880hz_short.mp3,tone_number_task+empty_block+empty_block,s,1682.0,k,1298.0,False
1.0,4.0,tone_number_task,1142.5,992.5,tones/880hz_short.mp3,40,tones/880hz_short.mp3,tone_number_task+tone_number_task_remaining_after_delay+empty_block,s,1141.0,j,1134.0,False
1.0,5.0,tone_number_task,1175.0,1025.0,tones/880hz_short.mp3,23,tones/880hz_short.mp3,tone_number_task+delay_block+tone_number_task_remaining_before_delay+empty_block,s,989.0,j,691.0,False
1.0,7.0,tone_number_task,150.0,0.0,tones/440hz_short.mp3,53,tones/440hz_short.mp3,tone_number_task+empty_block+empty_block,a,975.0,k,1311.0,False
1.0,8.0,tone_number_task,1142.5,992.5,tones/880hz_short.mp3,40,tones/880hz_short.mp3,tone_number_task+delay_block+tone_number_task_remaining_before_delay+empty_block,s,851.0,j,784.0,False
1.0,9.0,tone_number_task,252.5,102.5,tones/880hz_short.mp3,46,tones/880hz_short.mp3,tone_number_task+empty_block+empty_block,s,1000.5,k,1746.0,False
1.0,10.0,tone_number_task,1142.5,992.5,tones/440hz_short.mp3,57,tones/440hz_short.mp3,tone_number_task+delay_block+tone_number_task_remaining_before_delay+empty_block,a,691.0,k,610.0,False
1.0,11.0,tone_number_task,1142.5,992.5,tones/440hz_short.mp3,29,tones/440hz_short.mp3,tone_number_task+empty_block+empty_block,a,1230.5,j,694.0,False
1.0,12.0,tone_number_task,1142.5,992.5,tones/880hz_short.mp3,65,tones/880hz_short.mp3,tone_number_task+delay_block+tone_number_task_remaining_before_delay+empty_block,s,629.0,k,563.0,False
1.0,13.0,tone_number_task,1142.5,992.5,tones/880hz_short.mp3,24,tones/880hz_short.mp3,tone_number_task+delay_block+tone_number_task_remaining_before_delay+empty_block,s,992.0,j,944.0,False
1.0,14.0,tone_number_task,252.5,102.5,tones/880hz_short.mp3,63,tones/880hz_short.mp3,tone_number_task+empty_block+empty_block,s,1020.5,k,1558.0,False
1.0,15.0,tone_number_task,252.5,102.5,tones/440hz_short.mp3,23,tones/440hz_short.mp3,tone_number_task+empty_block+empty_block,a,989.5,j,1240.0,False
1.0,16.0,tone_number_task,1142.5,992.5,tones/880hz_short.mp3,53,tones/880hz_short.mp3,tone_number_task+delay_block+tone_number_task_remaining_before_delay+empty_block,s,520.0,k,573.0,False
1.0,17.0,tone_number_task,1175.0,1025.0,tones/440hz_short.mp3,24,tones/440hz_short.mp3,tone_number_task+empty_block+empty_block,a,1495.0,j,917.0,False
1.0,18.0,tone_number_task,150.0,0.0,tones/880hz_short.mp3,28,tones/880hz_short.mp3,tone_number_task+empty_block+empty_block,s,845.0,j,1372.0,False
1.0,19.0,tone_number_task,252.5,102.5,tones/440hz_short.mp3,42,tones/440hz_short.mp3,tone_number_task+empty_block+empty_block,a,885.5,k,1135.0,False
1.0,20.0,tone_number_task,150.0,0.0,tones/880hz_short.mp3,38,tones/880hz_short.mp3,tone_number_task+empty_block+empty_block,s,1014.0,j,1421.0,False
1.0,21.0,tone_number_task,1175.0,1025.0,tones/440hz_short.mp3,60,tones/440hz_short.mp3,tone_number_task+empty_block+empty_block,a,1236.0,k,594.0,False
1.0,22.0,tone_number_task,150.0,0.0,tones/880hz_short.mp3,28,tones/880hz_short.mp3,tone_number_task+empty_block+empty_block,s,830.0,j,1334.0,False
1.0,23.0,tone_number_task,1175.0,1025.0,tones/440hz_short.mp3,37,tones/440hz_short.mp3,tone_number_task+delay_block+tone_number_task_remaining_before_delay+empty_block,a,971.0,j,959.0,False
1.0,24.0,tone_number_task,1175.0,1025.0,tones/440hz_short.mp3,26,tones/440hz_short.mp3,tone_number_task+delay_block+tone_number_task_remaining_before_delay+empty_block,a,869.0,j,529.0,False
1.0,25.0,tone_number_task,252.5,102.5,tones/440hz_short.mp3,35,tones/440hz_short.mp3,tone_number_task+empty_block+empty_block,a,605.5,j,934.0,False
1.0,26.0,tone_number_task,150.0,0.0,tones/880hz_short.mp3,32,tones/880hz_short.mp3,tone_number_task+empty_block+empty_block,s,603.0,j,923.0,False
1.0,27.0,tone_number_task,150.0,0.0,tones/880hz_short.mp3,39,tones/880hz_short.mp3,tone_number_task+empty_block+empty_block,s,1059.0,j,1402.0,False
1.0,28.0,tone_number_task,1142.5,992.5,tones/440hz_short.mp3,23,tones/440hz_short.mp3,tone_number_task+delay_block+tone_number_task_remaining_before_delay+empty_block,a,629.0,j,463.0,False
1.0,29.0,tone_number_task,252.5,102.5,tones/880hz_short.mp3,21,tones/880hz_short.mp3,tone_number_task+empty_block+empty_block,s,1060.5,j,1269.0,False
1.0,30.0,tone_number_task,252.5,102.5,tones/440hz_short.mp3,57,tones/440hz_short.mp3,tone_number_task+empty_block+empty_block,a,540.5,k,693.0,False
1.0,31.0,tone_number_task,1142.5,992.5,tones/880hz_short.mp3,66,tones/880hz_short.mp3,tone_number_task+delay_block+tone_number_task_remaining_before_delay+empty_block,s,941.0,k,577.0,False
1.0,32.0,tone_number_task,252.5,102.5,tones/440hz_short.mp3,43,tones/440hz_short.mp3,tone_number_task+empty_block+empty_block,s,852.5,,,False
1.0,33.0,tone_number_task,252.5,102.5,tones/440hz_short.mp3,53,tones/440hz_short.mp3,tone_number_task+empty_block+empty_block,a,624.5,k,848.0,False
1.0,34.0,tone_number_task,1175.0,1025.0,tones/880hz_short.mp3,54,tones/880hz_short.mp3,tone_number_task+delay_block+tone_number_task_remaining_before_delay+empty_block,s,1000.0,k,690.0,False
1.0,35.0,tone_number_task,150.0,0.0,tones/880hz_short.mp3,24,tones/880hz_short.mp3,tone_number_task+empty_block+empty_block,s,837.0,j,1532.0,False
1.0,36.0,tone_number_task,1175.0,1025.0,tones/440hz_short.mp3,29,tones/440hz_short.mp3,tone_number_task+tone_number_task_remaining_after_delay+empty_block,a,1059.0,j,687.0,False
1.0,37.0,tone_number_task,252.5,102.5,tones/880hz_short.mp3,29,tones/880hz_short.mp3,tone_number_task+empty_block+empty_block,s,1076.5,j,1469.0,False
1.0,38.0,tone_number_task,1175.0,1025.0,tones/440hz_short.mp3,23,tones/440hz_short.mp3,tone_number_task+delay_block+tone_number_task_remaining_before_delay+empty_block,a,981.0,j,568.0,False
1.0,39.0,tone_number_task,150.0,0.0,tones/440hz_short.mp3,68,tones/440hz_short.mp3,tone_number_task+empty_block+empty_block,a,1076.0,k,1523.0,False
2.0,0.0,tone_number_task,1175.0,1025.0,tones/440hz_short.mp3,63,tones/440hz_short.mp3,tone_number_task+empty_block+empty_block,a,1287.0,k,892.0,True
2.0,1.0,tone_number_task,150.0,0.0,tones/880hz_short.mp3,30,tones/880hz_short.mp3,tone_number_task+empty_block+empty_block,s,1106.0,j,2017.0,True
2.0,2.0,tone_number_task,1142.5,992.5,tones/880hz_short.mp3,40,tones/880hz_short.mp3,tone_number_task+delay_block+tone_number_task_remaining_before_delay+empty_block,s,691.0,j,428.0,True
2.0,3.0,tone_number_task,252.5,102.5,tones/440hz_short.mp3,67,tones/440hz_short.mp3,tone_number_task+empty_block+empty_block,a,1354.5,k,1754.0,True
2.0,4.0,tone_number_task,1142.5,992.5,tones/880hz_short.mp3,47,tones/880hz_short.mp3,tone_number_task+delay_block+tone_number_task_remaining_before_delay+empty_block,s,741.0,j,446.0,True
2.0,7.0,tone_number_task,252.5,102.5,tones/880hz_short.mp3,22,tones/880hz_short.mp3,tone_number_task+empty_block+empty_block,s,633.5,j,1522.0,True
2.0,8.0,tone_number_task,150.0,0.0,tones/880hz_short.mp3,30,tones/880hz_short.mp3,tone_number_task+empty_block+empty_block,s,1016.0,j,1398.0,True
2.0,9.0,tone_number_task,150.0,0.0,tones/880hz_short.mp3,36,tones/880hz_short.mp3,tone_number_task+empty_block+empty_block,s,745.0,j,1024.0,True
2.0,10.0,tone_number_task,252.5,102.5,tones/440hz_short.mp3,64,tones/440hz_short.mp3,tone_number_task+empty_block+empty_block,a,1368.5,k,1608.0,True
2.0,11.0,tone_number_task,1175.0,1025.0,tones/440hz_short.mp3,61,tones/440hz_short.mp3,tone_number_task+delay_block+tone_number_task_remaining_before_delay+empty_block,a,811.0,k,385.0,True
2.0,12.0,tone_number_task,1175.0,1025.0,tones/880hz_short.mp3,42,tones/880hz_short.mp3,tone_number_task+delay_block+tone_number_task_remaining_before_delay+empty_block,s,909.0,,,True
2.0,14.0,tone_number_task,252.5,102.5,tones/880hz_short.mp3,56,tones/880hz_short.mp3,tone_number_task+empty_block+empty_block,s,519.5,k,1119.0,True
2.0,15.0,tone_number_task,252.5,102.5,tones/440hz_short.mp3,21,tones/440hz_short.mp3,tone_number_task+empty_block+empty_block,s,1169.5,j,1905.0,True
2.0,17.0,tone_number_task,150.0,0.0,tones/880hz_short.mp3,51,tones/880hz_short.mp3,tone_number_task+empty_block+empty_block,s,943.0,j,1421.0,True
2.0,18.0,tone_number_task,1175.0,1025.0,tones/440hz_short.mp3,51,tones/440hz_short.mp3,tone_number_task+delay_block+tone_number_task_remaining_before_delay+empty_block,a,899.0,k,328.0,True
2.0,19.0,tone_number_task,1142.5,992.5,tones/880hz_short.mp3,65,tones/880hz_short.mp3,tone_number_task+delay_block+tone_number_task_remaining_before_delay+empty_block,s,989.0,k,804.0,True
2.0,20.0,tone_number_task,1142.5,992.5,tones/440hz_short.mp3,39,tones/440hz_short.mp3,tone_number_task+empty_block+empty_block,a,1207.5,j,956.0,True
2.0,21.0,tone_number_task,252.5,102.5,tones/440hz_short.mp3,56,tones/440hz_short.mp3,tone_number_task+empty_block+empty_block,,,,,True
2.0,22.0,tone_number_task,252.5,102.5,tones/440hz_short.mp3,29,tones/440hz_short.mp3,tone_number_task+empty_block+empty_block,s,643.5,j,794.0,True
2.0,23.0,tone_number_task,1142.5,992.5,tones/440hz_short.mp3,66,tones/440hz_short.mp3,tone_number_task+delay_block+tone_number_task_remaining_before_delay+empty_block,a,949.0,k,1060.0,True
2.0,24.0,tone_number_task,1175.0,1025.0,tones/880hz_short.mp3,65,tones/880hz_short.mp3,tone_number_task+empty_block+empty_block,s,1479.0,k,1210.0,True
2.0,25.0,tone_number_task,1175.0,1025.0,tones/880hz_short.mp3,62,tones/880hz_short.mp3,tone_number_task+delay_block+tone_number_task_remaining_before_delay+empty_block,s,920.0,j,630.0,True
2.0,26.0,tone_number_task,1142.5,992.5,tones/440hz_short.mp3,67,tones/440hz_short.mp3,tone_number_task+empty_block+empty_block,a,1269.5,k,819.0,True
2.0,27.0,tone_number_task,1142.5,992.5,tones/440hz_short.mp3,63,tones/440hz_short.mp3,tone_number_task+delay_block+tone_number_task_remaining_before_delay+empty_block,a,989.0,k,580.0,True
2.0,28.0,tone_number_task,1175.0,1025.0,tones/440hz_short.mp3,34,tones/440hz_short.mp3,tone_number_task+empty_block+empty_block,a,1822.0,j,1234.0,True
2.0,29.0,tone_number_task,1142.5,992.5,tones/880hz_short.mp3,43,tones/880hz_short.mp3,tone_number_task+empty_block+empty_block,s,1614.5,j,1194.0,True
2.0,30.0,tone_number_task,150.0,0.0,tones/440hz_short.mp3,38,tones/440hz_short.mp3,tone_number_task+empty_block+empty_block,a,1253.0,j,1530.0,True
2.0,31.0,tone_number_task,1175.0,1025.0,tones/440hz_short.mp3,54,tones/440hz_short.mp3,tone_number_task+delay_block+tone_number_task_remaining_before_delay+empty_block,a,989.0,k,1338.0,True
2.0,32.0,tone_number_task,1175.0,1025.0,tones/440hz_short.mp3,27,tones/440hz_short.mp3,tone_number_task+delay_block+tone_number_task_remaining_before_delay+empty_block,a,931.0,j,727.0,True
2.0,33.0,tone_number_task,1142.5,992.5,tones/440hz_short.mp3,21,tones/440hz_short.mp3,tone_number_task+delay_block+tone_number_task_remaining_before_delay+empty_block,a,629.0,j,562.0,True
2.0,34.0,tone_number_task,150.0,0.0,tones/440hz_short.mp3,55,tones/440hz_short.mp3,tone_number_task+empty_block+empty_block,a,502.0,j,1211.0,True
2.0,35.0,tone_number_task,252.5,102.5,tones/880hz_short.mp3,60,tones/880hz_short.mp3,tone_number_task+empty_block+empty_block,s,1343.5,k,1655.0,True
2.0,36.0,tone_number_task,1142.5,992.5,tones/880hz_short.mp3,31,tones/880hz_short.mp3,tone_number_task+tone_number_task_remaining_after_delay+empty_block,s,1008.0,j,801.0,True
2.0,38.0,tone_number_task,1175.0,1025.0,tones/880hz_short.mp3,59,tones/880hz_short.mp3,tone_number_task+tone_number_task_remaining_after_delay+empty_block,s,1080.0,k,1097.0,True
3.0,0.0,tone_number_task,1175.0,1025.0,tones/440hz_short.mp3,50,tones/440hz_short.mp3,tone_number_task+tone_number_task_remaining_after_delay+empty_block,a,1131.0,k,986.0,True
3.0,1.0,tone_number_task,150.0,0.0,tones/440hz_short.mp3,69,tones/440hz_short.mp3,tone_number_task+empty_block+empty_block,a,1261.0,k,1498.0,True
3.0,2.0,tone_number_task,1142.5,992.5,tones/440hz_short.mp3,30,tones/440hz_short.mp3,tone_number_task+delay_block+tone_number_task_remaining_before_delay+empty_block,a,781.0,j,744.0,True
3.0,3.0,tone_number_task,252.5,102.5,tones/880hz_short.mp3,67,tones/880hz_short.mp3,tone_number_task+empty_block+empty_block,s,1300.5,k,1779.0,True
3.0,5.0,tone_number_task,1175.0,1025.0,tones/440hz_short.mp3,42,tones/440hz_short.mp3,tone_number_task+tone_number_task_remaining_after_delay+empty_block,a,1040.0,j,975.0,True
3.0,6.0,tone_number_task,150.0,0.0,tones/440hz_short.mp3,29,tones/440hz_short.mp3,tone_number_task+empty_block+empty_block,a,660.0,j,1081.0,True
3.0,7.0,tone_number_task,252.5,102.5,tones/440hz_short.mp3,47,tones/440hz_short.mp3,tone_number_task+empty_block+empty_block,a,978.5,j,1153.0,True
3.0,8.0,tone_number_task,150.0,0.0,tones/880hz_short.mp3,49,tones/880hz_short.mp3,tone_number_task+empty_block+empty_block,a,717.0,k,1217.0,True
3.0,9.0,tone_number_task,252.5,102.5,tones/440hz_short.mp3,34,tones/440hz_short.mp3,tone_number_task+empty_block+empty_block,a,1059.5,j,1585.0,True
3.0,11.0,tone_number_task,252.5,102.5,tones/880hz_short.mp3,23,tones/880hz_short.mp3,tone_number_task+empty_block+empty_block,a,1275.5,j,1786.0,True
3.0,12.0,tone_number_task,252.5,102.5,tones/880hz_short.mp3,21,tones/880hz_short.mp3,tone_number_task+empty_block+empty_block,s,1105.5,j,1344.0,True
3.0,13.0,tone_number_task,1142.5,992.5,tones/880hz_short.mp3,25,tones/880hz_short.mp3,tone_number_task+delay_block+tone_number_task_remaining_before_delay+empty_block,s,821.0,j,511.0,True
3.0,14.0,tone_number_task,1175.0,1025.0,tones/880hz_short.mp3,46,tones/880hz_short.mp3,tone_number_task+tone_number_task_remaining_after_delay+empty_block,s,1072.0,k,1029.0,True
3.0,16.0,tone_number_task,1175.0,1025.0,tones/440hz_short.mp3,36,tones/440hz_short.mp3,tone_number_task+empty_block+empty_block,a,1202.0,j,1037.0,True
3.0,17.0,tone_number_task,252.5,102.5,tones/440hz_short.mp3,63,tones/440hz_short.mp3,tone_number_task+empty_block+empty_block,a,1032.5,k,1526.0,True
3.0,18.0,tone_number_task,1142.5,992.5,tones/440hz_short.mp3,56,tones/440hz_short.mp3,tone_number_task+tone_number_task_remaining_after_delay+empty_block,a,1021.0,,,True
3.0,19.0,tone_number_task,1175.0,1025.0,tones/880hz_short.mp3,28,tones/880hz_short.mp3,tone_number_task+empty_block+empty_block,s,1598.0,j,1041.0,True
3.0,20.0,tone_number_task,252.5,102.5,tones/440hz_short.mp3,47,tones/440hz_short.mp3,tone_number_task+empty_block+empty_block,a,1401.5,,,True
3.0,21.0,tone_number_task,1175.0,1025.0,tones/440hz_short.mp3,57,tones/440hz_short.mp3,tone_number_task+delay_block+tone_number_task_remaining_before_delay+empty_block,a,829.0,k,796.0,True
3.0,22.0,tone_number_task,1142.5,992.5,tones/880hz_short.mp3,46,tones/880hz_short.mp3,tone_number_task+delay_block+tone_number_task_remaining_before_delay+empty_block,s,581.0,,,True
3.0,24.0,tone_number_task,1142.5,992.5,tones/880hz_short.mp3,52,tones/880hz_short.mp3,tone_number_task+delay_block+tone_number_task_remaining_before_delay+empty_block,s,469.0,k,734.0,True
3.0,25.0,tone_number_task,1175.0,1025.0,tones/880hz_short.mp3,29,tones/880hz_short.mp3,tone_number_task+empty_block+empty_block,s,1304.0,j,674.0,True
3.0,26.0,tone_number_task,1142.5,992.5,tones/440hz_short.mp3,44,tones/440hz_short.mp3,tone_number_task+delay_block+tone_number_task_remaining_before_delay+empty_block,a,771.0,,,True
3.0,27.0,tone_number_task,1175.0,1025.0,tones/440hz_short.mp3,36,tones/440hz_short.mp3,tone_number_task+tone_number_task_remaining_after_delay+empty_block,s,1141.0,,,True
3.0,28.0,tone_number_task,1142.5,992.5,tones/440hz_short.mp3,64,tones/440hz_short.mp3,tone_number_task+delay_block+tone_number_task_remaining_before_delay+empty_block,a,891.0,k,804.0,True
3.0,30.0,tone_number_task,1142.5,992.5,tones/440hz_short.mp3,62,tones/440hz_short.mp3,tone_number_task+tone_number_task_remaining_after_delay+empty_block,a,1088.0,k,758.0,True
3.0,31.0,tone_number_task,150.0,0.0,tones/880hz_short.mp3,64,tones/880hz_short.mp3,tone_number_task+empty_block+empty_block,s,895.0,k,1707.0,True
3.0,32.0,tone_number_task,1175.0,1025.0,tones/880hz_short.mp3,27,tones/880hz_short.mp3,tone_number_task+delay_block+tone_number_task_remaining_before_delay+empty_block,s,920.0,j,647.0,True
3.0,33.0,tone_number_task,150.0,0.0,tones/880hz_short.mp3,21,tones/880hz_short.mp3,tone_number_task+empty_block+empty_block,s,759.0,j,1210.0,True
3.0,34.0,tone_number_task,1175.0,1025.0,tones/440hz_short.mp3,39,tones/440hz_short.mp3,tone_number_task+delay_block+tone_number_task_remaining_before_delay+empty_block,a,872.0,j,751.0,True
3.0,36.0,tone_number_task,1142.5,992.5,tones/880hz_short.mp3,57,tones/880hz_short.mp3,tone_number_task+empty_block+empty_block,s,1213.5,k,1000.0,True
3.0,37.0,tone_number_task,252.5,102.5,tones/440hz_short.mp3,27,tones/440hz_short.mp3,tone_number_task+empty_block+empty_block,a,1440.5,j,1628.0,True
3.0,39.0,tone_number_task,1142.5,992.5,tones/440hz_short.mp3,22,tones/440hz_short.mp3,tone_number_task+delay_block+tone_number_task_remaining_before_delay+empty_block,a,789.0,j,633.0,True
