block,round,task,trial_duration,delay,audioFile,number,stimulus,type,response_1,rt_1,response_2,rt_2,is_word
0.0,1.0,tone_number_task,150.0,0.0,tones/440hz_short.mp3,31,tones/440hz_short.mp3,tone_number_task+empty_block+empty_block,a,981.0,j,1044.0,False
0.0,2.0,tone_number_task,1142.5,992.5,tones/880hz_short.mp3,53,tones/880hz_short.mp3,tone_number_task+delay_block+tone_number_task_remaining_before_delay+empty_block,s,929.0,k,690.0,False
0.0,3.0,tone_number_task,1142.5,992.5,tones/880hz_short.mp3,27,tones/880hz_short.mp3,tone_number_task+delay_block+tone_number_task_remaining_before_delay+empty_block,s,630.0,j,561.0,False
0.0,4.0,tone_number_task,1175.0,1025.0,tones/880hz_short.mp3,48,tones/880hz_short.mp3,tone_number_task+tone_number_task_remaining_after_delay+empty_block,s,1071.0,k,923.0,False
0.0,5.0,tone_number_task,150.0,0.0,tones/440hz_short.mp3,65,tones/440hz_short.mp3,tone_number_task+empty_block+empty_block,a,721.0,k,890.0,False
0.0,6.0,tone_number_task,1175.0,1025.0,tones/440hz_short.mp3,50,tones/440hz_short.mp3,tone_number_task+empty_block+empty_block,a,1577.0,k,947.0,False
0.0,7.0,tone_number_task,252.5,102.5,tones/440hz_short.mp3,37,tones/440hz_short.mp3,tone_number_task+empty_block+empty_block,a,1031.5,j,1046.0,False
0.0,8.0,tone_number_task,252.5,102.5,tones/440hz_short.mp3,26,tones/440hz_short.mp3,tone_number_task+empty_block+empty_block,a,734.5,j,803.0,False
0.0,9.0,tone_number_task,252.5,102.5,tones/880hz_short.mp3,38,tones/880hz_short.mp3,tone_number_task+empty_block+empty_block,s,829.5,j,858.0,False
0.0,10.0,tone_number_task,252.5,102.5,tones/880hz_short.mp3,35,tones/880hz_short.mp3,tone_number_task+empty_block+empty_block,s,794.5,j,808.0,False
0.0,11.0,tone_number_task,1175.0,1025.0,tones/880hz_short.mp3,60,tones/880hz_short.mp3,tone_number_task+delay_block+tone_number_task_remaining_before_delay+empty_block,s,819.0,k,650.0,False
0.0,12.0,tone_number_task,150.0,0.0,tones/880hz_short.mp3,38,tones/880hz_short.mp3,tone_number_task+empty_block+empty_block,s,682.0,j,978.0,False
0.0,13.0,tone_number_task,1175.0,1025.0,tones/440hz_short.mp3,46,tones/440hz_short.mp3,tone_number_task+delay_block+tone_number_task_remaining_before_delay+empty_block,a,540.0,k,957.0,False
0.0,14.0,tone_number_task,150.0,0.0,tones/440hz_short.mp3,40,tones/440hz_short.mp3,tone_number_task+empty_block+empty_block,a,1117.0,j,1875.0,False
0.0,15.0,tone_number_task,1175.0,1025.0,tones/440hz_short.mp3,56,tones/440hz_short.mp3,tone_number_task+delay_block+tone_number_task_remaining_before_delay+empty_block,a,650.0,k,645.0,False
0.0,16.0,tone_number_task,150.0,0.0,tones/880hz_short.mp3,39,tones/880hz_short.mp3,tone_number_task+empty_block+empty_block,s,1124.0,j,1538.0,False
0.0,17.0,tone_number_task,252.5,102.5,tones/880hz_short.mp3,44,tones/880hz_short.mp3,tone_number_task+empty_block+empty_block,s,1338.5,j,1454.0,False
0.0,18.0,tone_number_task,252.5,102.5,tones/440hz_short.mp3,43,tones/440hz_short.mp3,tone_number_task+empty_block+empty_block,a,1074.5,j,1300.0,False
0.0,19.0,tone_number_task,150.0,0.0,tones/880hz_short.mp3,30,tones/880hz_short.mp3,tone_number_task+empty_block+empty_block,s,952.0,j,1125.0,False
0.0,20.0,tone_number_task,1175.0,1025.0,tones/440hz_short.mp3,41,tones/440hz_short.mp3,tone_number_task+delay_block+tone_number_task_remaining_before_delay+empty_block,a,998.0,j,703.0,False
0.0,21.0,tone_number_task,1142.5,992.5,tones/440hz_short.mp3,28,tones/440hz_short.mp3,tone_number_task+tone_number_task_remaining_after_delay+empty_block,a,1141.0,j,621.0,False
0.0,22.0,tone_number_task,1142.5,992.5,tones/880hz_short.mp3,61,tones/880hz_short.mp3,tone_number_task+delay_block+tone_number_task_remaining_before_delay+empty_block,s,560.0,k,567.0,False
0.0,23.0,tone_number_task,1175.0,1025.0,tones/440hz_short.mp3,43,tones/440hz_short.mp3,tone_number_task+delay_block+tone_number_task_remaining_before_delay+empty_block,a,932.0,j,539.0,False
0.0,25.0,tone_number_task,1142.5,992.5,tones/440hz_short.mp3,56,tones/440hz_short.mp3,tone_number_task+delay_block+tone_number_task_remaining_before_delay+empty_block,a,789.0,k,918.0,False
0.0,26.0,tone_number_task,1142.5,992.5,tones/440hz_short.mp3,36,tones/440hz_short.mp3,tone_number_task+delay_block+tone_number_task_remaining_before_delay+empty_block,a,981.0,j,527.0,False
0.0,27.0,tone_number_task,1142.5,992.5,tones/440hz_short.mp3,66,tones/440hz_short.mp3,tone_number_task+delay_block+tone_number_task_remaining_before_delay+empty_block,a,560.0,k,624.0,False
0.0,28.0,tone_number_task,252.5,102.5,tones/440hz_short.mp3,51,tones/440hz_short.mp3,tone_number_task+empty_block+empty_block,a,992.5,k,1012.0,False
0.0,29.0,tone_number_task,1175.0,1025.0,tones/440hz_short.mp3,22,tones/440hz_short.mp3,tone_number_task+delay_block+tone_number_task_remaining_before_delay+empty_block,a,789.0,j,560.0,False
0.0,30.0,tone_number_task,1142.5,992.5,tones/880hz_short.mp3,39,tones/880hz_short.mp3,tone_number_task+delay_block+tone_number_task_remaining_before_delay+empty_block,s,720.0,j,634.0,False
0.0,31.0,tone_number_task,150.0,0.0,tones/880hz_short.mp3,58,tones/880hz_short.mp3,tone_number_task+empty_block+empty_block,s,692.0,k,987.0,False
0.0,32.0,tone_number_task,1175.0,1025.0,tones/440hz_short.mp3,68,tones/440hz_short.mp3,tone_number_task+delay_block+tone_number_task_remaining_before_delay+empty_block,a,502.0,k,649.0,False
0.0,33.0,tone_number_task,150.0,0.0,tones/440hz_short.mp3,30,tones/440hz_short.mp3,tone_number_task+empty_block+empty_block,a,1059.0,j,1365.0,False
0.0,34.0,tone_number_task,1142.5,992.5,tones/440hz_short.mp3,36,tones/440hz_short.mp3,tone_number_task+delay_block+tone_number_task_remaining_before_delay+empty_block,a,610.0,j,572.0,False
0.0,35.0,tone_number_task,1142.5,992.5,tones/440hz_short.mp3,61,tones/440hz_short.mp3,tone_number_task+tone_number_task_remaining_after_delay+empty_block,a,1042.0,k,621.0,False
0.0,36.0,tone_number_task,1175.0,1025.0,tones/880hz_short.mp3,59,tones/880hz_short.mp3,tone_number_task+delay_block+tone_number_task_remaining_before_delay+empty_block,s,580.0,k,471.0,False
0.0,37.0,tone_number_task,150.0,0.0,tones/880hz_short.mp3,24,tones/880hz_short.mp3,tone_number_task+empty_block+empty_block,s,838.0,j,1007.0,False
0.0,38.0,tone_number_task,252.5,102.5,tones/880hz_short.mp3,59,tones/880hz_short.mp3,tone_number_task+empty_block+empty_block,s,1207.5,k,1212.0,False
0.0,39.0,tone_number_task,252.5,102.5,tones/440hz_short.mp3,43,tones/440hz_short.mp3,tone_number_task+empty_block+empty_block,a,865.5,j,1005.0,False
1.0,0.0,tone_number_task,252.5,102.5,tones/880hz_short.mp3,48,tones/880hz_short.mp3,tone_number_task+empty_block+empty_block,s,1015.5,k,1060.0,False
1.0,1.0,tone_number_task,1142.5,992.5,tones/880hz_short.mp3,55,tones/880hz_short.mp3,tone_number_task+delay_block+tone_number_task_remaining_before_delay+empty_block,s,557.0,k,638.0,False
1.0,2.0,tone_number_task,150.0,0.0,tones/440hz_short.mp3,39,tones/440hz_short.mp3,tone_number_task+empty_block+empty_block,a,1180.0,j,1388.0,False
1.0,3.0,tone_number_task,1142.5,992.5,tones/880hz_short.mp3,68,tones/880hz_short.mp3,tone_number_task+delay_block+tone_number_task_remaining_before_delay+empty_block,s,862.0,k,521.0,False
1.0,4.0,tone_number_task,1142.5,992.5,tones/440hz_short.mp3,64,tones/440hz_short.mp3,tone_number_task+delay_block+tone_number_task_remaining_before_delay+empty_block,a,801.0,k,568.0,False
1.0,5.0,tone_number_task,1175.0,1025.0,tones/440hz_short.mp3,39,tones/440hz_short.mp3,tone_number_task+delay_block+tone_number_task_remaining_before_delay+empty_block,a,729.0,j,515.0,False
1.0,6.0,tone_number_task,1175.0,1025.0,tones/880hz_short.mp3,34,tones/880hz_short.mp3,tone_number_task+delay_block+tone_number_task_remaining_before_delay+empty_block,s,479.0,j,576.0,False
1.0,7.0,tone_number_task,1175.0,1025.0,tones/440hz_short.mp3,26,tones/440hz_short.mp3,tone_number_task+delay_block+tone_number_task_remaining_before_delay+empty_block,a,819.0,j,573.0,False
1.0,8.0,tone_number_task,1175.0,1025.0,tones/880hz_short.mp3,44,tones/880hz_short.mp3,tone_number_task+delay_block+tone_number_task_remaining_before_delay+empty_block,s,491.0,j,842.0,False
1.0,9.0,tone_number_task,1142.5,992.5,tones/880hz_short.mp3,26,tones/880hz_short.mp3,tone_number_task+delay_block+tone_number_task_remaining_before_delay+empty_block,s,891.0,j,533.0,False
1.0,10.0,tone_number_task,1142.5,992.5,tones/440hz_short.mp3,40,tones/440hz_short.mp3,tone_number_task+delay_block+tone_number_task_remaining_before_delay+empty_block,a,450.0,j,733.0,False
1.0,11.0,tone_number_task,252.5,102.5,tones/880hz_short.mp3,69,tones/880hz_short.mp3,tone_number_task+empty_block+empty_block,s,1090.5,k,1212.0,False
1.0,12.0,tone_number_task,252.5,102.5,tones/440hz_short.mp3,62,tones/440hz_short.mp3,tone_number_task+empty_block+empty_block,a,840.5,k,1017.0,False
1.0,13.0,tone_number_task,1175.0,1025.0,tones/880hz_short.mp3,38,tones/880hz_short.mp3,tone_number_task+delay_block+tone_number_task_remaining_before_delay+empty_block,s,888.0,j,462.0,False
1.0,15.0,tone_number_task,1142.5,992.5,tones/440hz_short.mp3,26,tones/440hz_short.mp3,tone_number_task+delay_block+tone_number_task_remaining_before_delay+empty_block,a,670.0,j,465.0,False
1.0,16.0,tone_number_task,252.5,102.5,tones/880hz_short.mp3,36,tones/880hz_short.mp3,tone_number_task+empty_block+empty_block,s,1082.5,j,1248.0,False
1.0,17.0,tone_number_task,150.0,0.0,tones/880hz_short.mp3,52,tones/880hz_short.mp3,tone_number_task+empty_block+empty_block,s,980.0,k,1150.0,False
1.0,18.0,tone_number_task,1175.0,1025.0,tones/880hz_short.mp3,30,tones/880hz_short.mp3,tone_number_task+delay_block+tone_number_task_remaining_before_delay+empty_block,s,659.0,j,467.0,False
1.0,19.0,tone_number_task,1175.0,1025.0,tones/440hz_short.mp3,44,tones/440hz_short.mp3,tone_number_task+delay_block+tone_number_task_remaining_before_delay+empty_block,a,659.0,j,663.0,False
1.0,20.0,tone_number_task,150.0,0.0,tones/880hz_short.mp3,46,tones/880hz_short.mp3,tone_number_task+empty_block+empty_block,s,839.0,k,1388.0,False
1.0,21.0,tone_number_task,1142.5,992.5,tones/440hz_short.mp3,32,tones/440hz_short.mp3,tone_number_task+delay_block+tone_number_task_remaining_before_delay+empty_block,a,740.0,j,582.0,False
1.0,22.0,tone_number_task,252.5,102.5,tones/880hz_short.mp3,25,tones/880hz_short.mp3,tone_number_task+empty_block+empty_block,s,1249.5,j,1366.0,False
1.0,23.0,tone_number_task,252.5,102.5,tones/880hz_short.mp3,35,tones/880hz_short.mp3,tone_number_task+empty_block+empty_block,s,1032.5,j,1173.0,False
1.0,24.0,tone_number_task,252.5,102.5,tones/880hz_short.mp3,28,tones/880hz_short.mp3,tone_number_task+empty_block+empty_block,s,795.5,j,860.0,False
1.0,25.0,tone_number_task,150.0,0.0,tones/880hz_short.mp3,51,tones/880hz_short.mp3,tone_number_task+empty_block+empty_block,s,1054.0,k,1233.0,False
1.0,26.0,tone_number_task,1175.0,1025.0,tones/440hz_short.mp3,26,tones/440hz_short.mp3,tone_number_task+delay_block+tone_number_task_remaining_before_delay+empty_block,a,528.0,j,480.0,False
1.0,27.0,tone_number_task,1142.5,992.5,tones/880hz_short.mp3,53,tones/880hz_short.mp3,tone_number_task+delay_block+tone_number_task_remaining_before_delay+empty_block,s,708.0,k,778.0,False
1.0,29.0,tone_number_task,150.0,0.0,tones/880hz_short.mp3,42,tones/880hz_short.mp3,tone_number_task+empty_block+empty_block,s,738.0,j,1172.0,False
1.0,30.0,tone_number_task,1142.5,992.5,tones/880hz_short.mp3,30,tones/880hz_short.mp3,tone_number_task+delay_block+tone_number_task_remaining_before_delay+empty_block,s,848.0,j,521.0,False
1.0,31.0,tone_number_task,150.0,0.0,tones/440hz_short.mp3,49,tones/440hz_short.mp3,tone_number_task+empty_block+empty_block,a,1214.0,k,1434.0,False
1.0,32.0,tone_number_task,150.0,0.0,tones/440hz_short.mp3,64,tones/440hz_short.mp3,tone_number_task+empty_block+empty_block,a,1002.0,k,1175.0,False
1.0,34.0,tone_number_task,1175.0,1025.0,tones/880hz_short.mp3,26,tones/880hz_short.mp3,tone_number_task+delay_block+tone_number_task_remaining_before_delay+empty_block,s,859.0,j,538.0,False
1.0,35.0,tone_number_task,150.0,0.0,tones/440hz_short.mp3,39,tones/440hz_short.mp3,tone_number_task+empty_block+empty_block,a,860.0,j,1234.0,False
1.0,36.0,tone_number_task,1142.5,992.5,tones/440hz_short.mp3,31,tones/440hz_short.mp3,tone_number_task+delay_block+tone_number_task_remaining_before_delay+empty_block,a,589.0,j,557.0,False
1.0,37.0,tone_number_task,252.5,102.5,tones/880hz_short.mp3,38,tones/880hz_short.mp3,tone_number_task+empty_block+empty_block,s,1064.5,j,1209.0,False
1.0,38.0,tone_number_task,150.0,0.0,tones/440hz_short.mp3,61,tones/440hz_short.mp3,tone_number_task+empty_block+empty_block,a,970.0,k,1190.0,False
1.0,39.0,tone_number_task,252.5,102.5,tones/440hz_short.mp3,43,tones/440hz_short.mp3,tone_number_task+empty_block+empty_block,a,1335.5,j,1395.0,False
2.0,2.0,tone_number_task,1142.5,992.5,tones/880hz_short.mp3,69,tones/880hz_short.mp3,tone_number_task+delay_block+tone_number_task_remaining_before_delay+empty_block,s,990.0,,,True
2.0,3.0,tone_number_task,1175.0,1025.0,tones/440hz_short.mp3,30,tones/440hz_short.mp3,tone_number_task+delay_block+tone_number_task_remaining_before_delay+empty_block,a,789.0,j,747.0,True
2.0,4.0,tone_number_task,1175.0,1025.0,tones/880hz_short.mp3,33,tones/880hz_short.mp3,tone_number_task+tone_number_task_remaining_after_delay+empty_block,s,1091.0,j,961.0,True
2.0,5.0,tone_number_task,252.5,102.5,tones/880hz_short.mp3,61,tones/880hz_short.mp3,tone_number_task+empty_block+empty_block,s,1102.5,k,1231.0,True
2.0,6.0,tone_number_task,1175.0,1025.0,tones/880hz_short.mp3,35,tones/880hz_short.mp3,tone_number_task+tone_number_task_remaining_after_delay+empty_block,s,1161.0,j,737.0,True
2.0,7.0,tone_number_task,1142.5,992.5,tones/880hz_short.mp3,52,tones/880hz_short.mp3,tone_number_task+delay_block+tone_number_task_remaining_before_delay+empty_block,s,871.0,k,717.0,True
2.0,8.0,tone_number_task,1142.5,992.5,tones/880hz_short.mp3,56,tones/880hz_short.mp3,tone_number_task+delay_block+tone_number_task_remaining_before_delay+empty_block,s,491.0,k,643.0,True
2.0,9.0,tone_number_task,1175.0,1025.0,tones/880hz_short.mp3,32,tones/880hz_short.mp3,tone_number_task+delay_block+tone_number_task_remaining_before_delay+empty_block,s,569.0,j,693.0,True
2.0,10.0,tone_number_task,1175.0,1025.0,tones/880hz_short.mp3,53,tones/880hz_short.mp3,tone_number_task+delay_block+tone_number_task_remaining_before_delay+empty_block,s,891.0,k,814.0,True
2.0,11.0,tone_number_task,1142.5,992.5,tones/440hz_short.mp3,62,tones/440hz_short.mp3,tone_number_task+delay_block+tone_number_task_remaining_before_delay+empty_block,a,450.0,k,665.0,True
2.0,12.0,tone_number_task,150.0,0.0,tones/440hz_short.mp3,50,tones/440hz_short.mp3,tone_number_task+empty_block+empty_block,a,1146.0,k,1364.0,True
2.0,13.0,tone_number_task,1142.5,992.5,tones/440hz_short.mp3,27,tones/440hz_short.mp3,tone_number_task+delay_block+tone_number_task_remaining_before_delay+empty_block,a,560.0,j,766.0,True
2.0,14.0,tone_number_task,1175.0,1025.0,tones/880hz_short.mp3,22,tones/880hz_short.mp3,tone_number_task+delay_block+tone_number_task_remaining_before_delay+empty_block,s,491.0,j,795.0,True
2.0,15.0,tone_number_task,1142.5,992.5,tones/880hz_short.mp3,32,tones/880hz_short.mp3,tone_number_task+delay_block+tone_number_task_remaining_before_delay+empty_block,s,821.0,j,674.0,True
2.0,16.0,tone_number_task,1175.0,1025.0,tones/880hz_short.mp3,31,tones/880hz_short.mp3,tone_number_task+delay_block+tone_number_task_remaining_before_delay+empty_block,s,670.0,j,644.0,True
2.0,17.0,tone_number_task,150.0,0.0,tones/880hz_short.mp3,34,tones/880hz_short.mp3,tone_number_task+empty_block+empty_block,s,1086.0,j,1207.0,True
2.0,18.0,tone_number_task,150.0,0.0,tones/440hz_short.mp3,31,tones/440hz_short.mp3,tone_number_task+empty_block+empty_block,a,765.0,j,861.0,True
2.0,21.0,tone_number_task,1142.5,992.5,tones/880hz_short.mp3,65,tones/880hz_short.mp3,tone_number_task+delay_block+tone_number_task_remaining_before_delay+empty_block,s,978.0,k,704.0,True
2.0,22.0,tone_number_task,1142.5,992.5,tones/880hz_short.mp3,44,tones/880hz_short.mp3,tone_number_task+delay_block+tone_number_task_remaining_before_delay+empty_block,s,888.0,j,1286.0,True
2.0,25.0,tone_number_task,1142.5,992.5,tones/440hz_short.mp3,21,tones/440hz_short.mp3,tone_number_task+delay_block+tone_number_task_remaining_before_delay+empty_block,a,731.0,j,851.0,True
2.0,26.0,tone_number_task,252.5,102.5,tones/440hz_short.mp3,21,tones/440hz_short.mp3,tone_number_task+empty_block+empty_block,a,952.5,j,1007.0,True
2.0,27.0,tone_number_task,252.5,102.5,tones/440hz_short.mp3,37,tones/440hz_short.mp3,tone_number_task+empty_block+empty_block,a,1356.5,j,1392.0,True
2.0,28.0,tone_number_task,150.0,0.0,tones/880hz_short.mp3,69,tones/880hz_short.mp3,tone_number_task+empty_block+empty_block,s,968.0,k,1098.0,True
2.0,29.0,tone_number_task,252.5,102.5,tones/880hz_short.mp3,43,tones/880hz_short.mp3,tone_number_task+empty_block+empty_block,s,1216.5,j,1578.0,True
2.0,30.0,tone_number_task,1142.5,992.5,tones/880hz_short.mp3,50,tones/880hz_short.mp3,tone_number_task+delay_block+tone_number_task_remaining_before_delay+empty_block,s,978.0,k,761.0,True
2.0,31.0,tone_number_task,1175.0,1025.0,tones/880hz_short.mp3,39,tones/880hz_short.mp3,tone_number_task+delay_block+tone_number_task_remaining_before_delay+empty_block,s,821.0,j,950.0,True
2.0,32.0,tone_number_task,252.5,102.5,tones/440hz_short.mp3,22,tones/440hz_short.mp3,tone_number_task+empty_block+empty_block,a,1135.5,j,1183.0,True
2.0,33.0,tone_number_task,1175.0,1025.0,tones/880hz_short.mp3,54,tones/880hz_short.mp3,tone_number_task+delay_block+tone_number_task_remaining_before_delay+empty_block,s,810.0,k,1129.0,True
2.0,35.0,tone_number_task,252.5,102.5,tones/880hz_short.mp3,31,tones/880hz_short.mp3,tone_number_task+empty_block+empty_block,s,1348.5,j,1397.0,True
2.0,36.0,tone_number_task,150.0,0.0,tones/880hz_short.mp3,62,tones/880hz_short.mp3,tone_number_task+empty_block+empty_block,s,1162.0,k,1279.0,True
2.0,37.0,tone_number_task,150.0,0.0,tones/880hz_short.mp3,31,tones/880hz_short.mp3,tone_number_task+empty_block+empty_block,s,1018.0,j,1119.0,True
2.0,38.0,tone_number_task,252.5,102.5,tones/440hz_short.mp3,50,tones/440hz_short.mp3,tone_number_task+empty_block+empty_block,a,1081.5,k,1101.0,True
2.0,39.0,tone_number_task,1175.0,1025.0,tones/880hz_short.mp3,68,tones/880hz_short.mp3,tone_number_task+delay_block+tone_number_task_remaining_before_delay+empty_block,s,850.0,k,710.0,True
3.0,0.0,tone_number_task,252.5,102.5,tones/440hz_short.mp3,37,tones/440hz_short.mp3,tone_number_task+empty_block+empty_block,a,1157.5,j,1192.0,True
3.0,1.0,tone_number_task,150.0,0.0,tones/880hz_short.mp3,68,tones/880hz_short.mp3,tone_number_task+empty_block+empty_block,s,764.0,k,896.0,True
3.0,2.0,tone_number_task,1142.5,992.5,tones/880hz_short.mp3,25,tones/880hz_short.mp3,tone_number_task+delay_block+tone_number_task_remaining_before_delay+empty_block,s,641.0,j,618.0,True
3.0,3.0,tone_number_task,150.0,0.0,tones/880hz_short.mp3,67,tones/880hz_short.mp3,tone_number_task+empty_block+empty_block,s,1317.0,k,1465.0,True
3.0,4.0,tone_number_task,1175.0,1025.0,tones/440hz_short.mp3,29,tones/440hz_short.mp3,tone_number_task+delay_block+tone_number_task_remaining_before_delay+empty_block,a,859.0,j,611.0,True
3.0,5.0,tone_number_task,150.0,0.0,tones/440hz_short.mp3,21,tones/440hz_short.mp3,tone_number_task+empty_block+empty_block,a,690.0,j,923.0,True
3.0,6.0,tone_number_task,1175.0,1025.0,tones/880hz_short.mp3,37,tones/880hz_short.mp3,tone_number_task+delay_block+tone_number_task_remaining_before_delay+empty_block,s,900.0,j,698.0,True
3.0,8.0,tone_number_task,150.0,0.0,tones/440hz_short.mp3,69,tones/440hz_short.mp3,tone_number_task+empty_block+empty_block,a,1337.0,k,1498.0,True
3.0,9.0,tone_number_task,1175.0,1025.0,tones/440hz_short.mp3,67,tones/440hz_short.mp3,tone_number_task+delay_block+tone_number_task_remaining_before_delay+empty_block,a,772.0,k,663.0,True
3.0,10.0,tone_number_task,1142.5,992.5,tones/880hz_short.mp3,37,tones/880hz_short.mp3,tone_number_task+delay_block+tone_number_task_remaining_before_delay+empty_block,s,879.0,j,592.0,True
3.0,11.0,tone_number_task,252.5,102.5,tones/880hz_short.mp3,64,tones/880hz_short.mp3,tone_number_task+empty_block+empty_block,s,1296.5,k,1327.0,True
3.0,12.0,tone_number_task,1142.5,992.5,tones/440hz_short.mp3,53,tones/440hz_short.mp3,tone_number_task+delay_block+tone_number_task_remaining_before_delay+empty_block,a,819.0,k,829.0,True
3.0,13.0,tone_number_task,252.5,102.5,tones/440hz_short.mp3,26,tones/440hz_short.mp3,tone_number_task+empty_block+empty_block,a,1218.5,j,1229.0,True
3.0,14.0,tone_number_task,150.0,0.0,tones/440hz_short.mp3,68,tones/440hz_short.mp3,tone_number_task+empty_block+empty_block,a,1017.0,k,1150.0,True
3.0,15.0,tone_number_task,150.0,0.0,tones/880hz_short.mp3,69,tones/880hz_short.mp3,tone_number_task+empty_block+empty_block,s,971.0,k,1085.0,True
3.0,16.0,tone_number_task,1142.5,992.5,tones/440hz_short.mp3,27,tones/440hz_short.mp3,tone_number_task+delay_block+tone_number_task_remaining_before_delay+empty_block,a,758.0,j,615.0,True
3.0,17.0,tone_number_task,1175.0,1025.0,tones/880hz_short.mp3,40,tones/880hz_short.mp3,tone_number_task+delay_block+tone_number_task_remaining_before_delay+empty_block,s,572.0,j,953.0,True
3.0,18.0,tone_number_task,252.5,102.5,tones/440hz_short.mp3,65,tones/440hz_short.mp3,tone_number_task+empty_block+empty_block,a,1170.5,k,1179.0,True
3.0,20.0,tone_number_task,1175.0,1025.0,tones/880hz_short.mp3,24,tones/880hz_short.mp3,tone_number_task+tone_number_task_remaining_after_delay+empty_block,s,1068.0,j,748.0,True
3.0,21.0,tone_number_task,1175.0,1025.0,tones/880hz_short.mp3,50,tones/880hz_short.mp3,tone_number_task+delay_block+tone_number_task_remaining_before_delay+empty_block,s,769.0,k,807.0,True
3.0,23.0,tone_number_task,1142.5,992.5,tones/880hz_short.mp3,43,tones/880hz_short.mp3,tone_number_task+delay_block+tone_number_task_remaining_before_delay+empty_block,s,830.0,j,1052.0,True
3.0,24.0,tone_number_task,252.5,102.5,tones/880hz_short.mp3,50,tones/880hz_short.mp3,tone_number_task+empty_block+empty_block,s,1034.5,k,1057.0,True
3.0,25.0,tone_number_task,1142.5,992.5,tones/440hz_short.mp3,51,tones/440hz_short.mp3,tone_number_task+delay_block+tone_number_task_remaining_before_delay+empty_block,a,711.0,k,1104.0,True
3.0,27.0,tone_number_task,1142.5,992.5,tones/880hz_short.mp3,63,tones/880hz_short.mp3,tone_number_task+delay_block+tone_number_task_remaining_before_delay+empty_block,s,580.0,k,675.0,True
3.0,28.0,tone_number_task,1175.0,1025.0,tones/880hz_short.mp3,23,tones/880hz_short.mp3,tone_number_task+delay_block+tone_number_task_remaining_before_delay+empty_block,s,731.0,j,541.0,True
3.0,29.0,tone_number_task,252.5,102.5,tones/880hz_short.mp3,69,tones/880hz_short.mp3,tone_number_task+empty_block+empty_block,s,1183.5,k,1160.0,True
3.0,30.0,tone_number_task,1142.5,992.5,tones/880hz_short.mp3,52,tones/880hz_short.mp3,tone_number_task+delay_block+tone_number_task_remaining_before_delay+empty_block,s,871.0,k,668.0,True
3.0,31.0,tone_number_task,1142.5,992.5,tones/880hz_short.mp3,48,tones/880hz_short.mp3,tone_number_task+delay_block+tone_number_task_remaining_before_delay+empty_block,s,560.0,k,1341.0,True
3.0,32.0,tone_number_task,1175.0,1025.0,tones/440hz_short.mp3,47,tones/440hz_short.mp3,tone_number_task+delay_block+tone_number_task_remaining_before_delay+empty_block,a,641.0,,,True
3.0,33.0,tone_number_task,150.0,0.0,tones/880hz_short.mp3,63,tones/880hz_short.mp3,tone_number_task+empty_block+empty_block,s,1125.0,k,1266.0,True
3.0,34.0,tone_number_task,1175.0,1025.0,tones/880hz_short.mp3,55,tones/880hz_short.mp3,tone_number_task+delay_block+tone_number_task_remaining_before_delay+empty_block,s,670.0,k,1222.0,True
3.0,35.0,tone_number_task,1142.5,992.5,tones/440hz_short.mp3,22,tones/440hz_short.mp3,tone_number_task+delay_block+tone_number_task_remaining_before_delay+empty_block,a,842.0,j,685.0,True
3.0,36.0,tone_number_task,150.0,0.0,tones/440hz_short.mp3,40,tones/440hz_short.mp3,tone_number_task+empty_block+empty_block,a,1019.0,j,1143.0,True
3.0,37.0,tone_number_task,1175.0,1025.0,tones/880hz_short.mp3,46,tones/880hz_short.mp3,tone_number_task+delay_block+tone_number_task_remaining_before_delay+empty_block,s,801.0,k,1155.0,True
3.0,39.0,tone_number_task,150.0,0.0,tones/880hz_short.mp3,46,tones/880hz_short.mp3,tone_number_task+empty_block+empty_block,s,1095.0,k,1220.0,True
