block,round,task,trial_duration,delay,audioFile,number,stimulus,type,response_1,rt_1,response_2,rt_2
0.0,0.0,tone_number_task,252.5,102.5,tones/440hz_short.mp3,55,tones/440hz_short.mp3,tone_number_task+empty_block+empty_block,a,782.5,k,919.0
0.0,1.0,tone_number_task,150.0,0.0,tones/440hz_short.mp3,33,tones/440hz_short.mp3,tone_number_task+empty_block+empty_block,a,493.0,j,924.0
0.0,2.0,tone_number_task,1175.0,1025.0,tones/440hz_short.mp3,44,tones/440hz_short.mp3,tone_number_task+delay_block+tone_number_task_remaining_before_delay+empty_block,a,600.0,j,690.0
0.0,3.0,tone_number_task,150.0,0.0,tones/880hz_short.mp3,58,tones/880hz_short.mp3,tone_number_task+empty_block+empty_block,s,436.0,k,707.0
0.0,4.0,tone_number_task,1175.0,1025.0,tones/440hz_short.mp3,60,tones/440hz_short.mp3,tone_number_task+empty_block+empty_block,a,1268.0,k,506.0
0.0,5.0,tone_number_task,150.0,0.0,tones/880hz_short.mp3,30,tones/880hz_short.mp3,tone_number_task+empty_block+empty_block,s,628.0,j,834.0
0.0,6.0,tone_number_task,1175.0,1025.0,tones/440hz_short.mp3,59,tones/440hz_short.mp3,tone_number_task+delay_block+tone_number_task_remaining_before_delay+empty_block,a,549.0,k,519.0
0.0,7.0,tone_number_task,252.5,102.5,tones/880hz_short.mp3,66,tones/880hz_short.mp3,tone_number_task+empty_block+empty_block,s,554.5,k,747.0
0.0,8.0,tone_number_task,150.0,0.0,tones/440hz_short.mp3,63,tones/440hz_short.mp3,tone_number_task+empty_block+empty_block,a,628.0,k,843.0
0.0,9.0,tone_number_task,1142.5,992.5,tones/440hz_short.mp3,25,tones/440hz_short.mp3,tone_number_task+delay_block+tone_number_task_remaining_before_delay+empty_block,a,571.0,j,588.0
0.0,10.0,tone_number_task,1142.5,992.5,tones/880hz_short.mp3,41,tones/880hz_short.mp3,tone_number_task+delay_block+tone_number_task_remaining_before_delay+empty_block,s,512.0,j,522.0
0.0,11.0,tone_number_task,1175.0,1025.0,tones/880hz_short.mp3,67,tones/880hz_short.mp3,tone_number_task+delay_block+tone_number_task_remaining_before_delay+empty_block,s,608.0,k,448.0
0.0,12.0,tone_number_task,150.0,0.0,tones/440hz_short.mp3,50,tones/440hz_short.mp3,tone_number_task+empty_block+empty_block,a,1194.0,k,1440.0
0.0,13.0,tone_number_task,1175.0,1025.0,tones/440hz_short.mp3,24,tones/440hz_short.mp3,tone_number_task+delay_block+tone_number_task_remaining_before_delay+empty_block,a,840.0,j,577.0
0.0,14.0,tone_number_task,1142.5,992.5,tones/440hz_short.mp3,61,tones/440hz_short.mp3,tone_number_task+delay_block+tone_number_task_remaining_before_delay+empty_block,a,651.0,k,427.0
0.0,15.0,tone_number_task,1142.5,992.5,tones/880hz_short.mp3,50,tones/880hz_short.mp3,tone_number_task+delay_block+tone_number_task_remaining_before_delay+empty_block,s,731.0,k,604.0
0.0,16.0,tone_number_task,252.5,102.5,tones/440hz_short.mp3,30,tones/440hz_short.mp3,tone_number_task+empty_block+empty_block,a,850.5,j,1170.0
0.0,17.0,tone_number_task,252.5,102.5,tones/440hz_short.mp3,33,tones/440hz_short.mp3,tone_number_task+empty_block+empty_block,a,658.5,j,874.0
0.0,18.0,tone_number_task,150.0,0.0,tones/880hz_short.mp3,61,tones/880hz_short.mp3,tone_number_task+empty_block+empty_block,a,722.0,k,961.0
0.0,19.0,tone_number_task,1175.0,1025.0,tones/440hz_short.mp3,42,tones/440hz_short.mp3,tone_number_task+tone_number_task_remaining_after_delay+empty_block,a,1040.0,j,682.0
0.0,20.0,tone_number_task,1142.5,992.5,tones/440hz_short.mp3,67,tones/440hz_short.mp3,tone_number_task+delay_block+tone_number_task_remaining_before_delay+empty_block,a,819.0,k,395.0
0.0,21.0,tone_number_task,1142.5,992.5,tones/440hz_short.mp3,61,tones/440hz_short.mp3,tone_number_task+delay_block+tone_number_task_remaining_before_delay+empty_block,a,651.0,k,827.0
0.0,22.0,tone_number_task,252.5,102.5,tones/440hz_short.mp3,40,tones/440hz_short.mp3,tone_number_task+empty_block+empty_block,a,299.5,j,627.0
0.0,23.0,tone_number_task,1175.0,1025.0,tones/880hz_short.mp3,60,tones/880hz_short.mp3,tone_number_task+delay_block+tone_number_task_remaining_before_delay+empty_block,s,461.0,k,468.0
0.0,24.0,tone_number_task,150.0,0.0,tones/440hz_short.mp3,22,tones/440hz_short.mp3,tone_number_task+empty_block+empty_block,a,352.0,j,1454.0
0.0,25.0,tone_number_task,1175.0,1025.0,tones/880hz_short.mp3,38,tones/880hz_short.mp3,tone_number_task+delay_block+tone_number_task_remaining_before_delay+empty_block,s,829.0,k,468.0
0.0,26.0,tone_number_task,252.5,102.5,tones/440hz_short.mp3,43,tones/440hz_short.mp3,tone_number_task+empty_block+empty_block,a,818.5,j,938.0
0.0,27.0,tone_number_task,1142.5,992.5,tones/440hz_short.mp3,50,tones/440hz_short.mp3,tone_number_task+delay_block+tone_number_task_remaining_before_delay+empty_block,a,480.0,k,480.0
0.0,28.0,tone_number_task,252.5,102.5,tones/440hz_short.mp3,58,tones/440hz_short.mp3,tone_number_task+empty_block+empty_block,a,687.5,k,774.0
0.0,29.0,tone_number_task,150.0,0.0,tones/880hz_short.mp3,22,tones/880hz_short.mp3,tone_number_task+empty_block+empty_block,a,857.0,k,1519.0
0.0,30.0,tone_number_task,1142.5,992.5,tones/440hz_short.mp3,42,tones/440hz_short.mp3,tone_number_task+delay_block+tone_number_task_remaining_before_delay+empty_block,a,941.0,j,549.0
0.0,31.0,tone_number_task,252.5,102.5,tones/440hz_short.mp3,58,tones/440hz_short.mp3,tone_number_task+empty_block+empty_block,a,1158.5,k,1269.0
0.0,32.0,tone_number_task,1175.0,1025.0,tones/440hz_short.mp3,50,tones/440hz_short.mp3,tone_number_task+delay_block+tone_number_task_remaining_before_delay+empty_block,a,899.0,k,505.0
0.0,33.0,tone_number_task,150.0,0.0,tones/440hz_short.mp3,64,tones/440hz_short.mp3,tone_number_task+empty_block+empty_block,a,761.0,k,951.0
0.0,34.0,tone_number_task,150.0,0.0,tones/880hz_short.mp3,25,tones/880hz_short.mp3,tone_number_task+empty_block+empty_block,a,688.0,j,925.0
0.0,35.0,tone_number_task,1142.5,992.5,tones/880hz_short.mp3,34,tones/880hz_short.mp3,tone_number_task+delay_block+tone_number_task_remaining_before_delay+empty_block,s,440.0,j,407.0
0.0,36.0,tone_number_task,1175.0,1025.0,tones/880hz_short.mp3,67,tones/880hz_short.mp3,tone_number_task+delay_block+tone_number_task_remaining_before_delay+empty_block,s,472.0,k,573.0
0.0,37.0,tone_number_task,252.5,102.5,tones/880hz_short.mp3,27,tones/880hz_short.mp3,tone_number_task+empty_block+empty_block,s,911.5,j,1262.0
0.0,38.0,tone_number_task,252.5,102.5,tones/440hz_short.mp3,24,tones/440hz_short.mp3,tone_number_task+empty_block+empty_block,a,576.5,j,759.0
0.0,39.0,tone_number_task,1142.5,992.5,tones/880hz_short.mp3,40,tones/880hz_short.mp3,tone_number_task+tone_number_task_remaining_after_delay+empty_block,s,1091.0,j,646.0
1.0,0.0,tone_number_task,252.5,102.5,tones/440hz_short.mp3,61,tones/440hz_short.mp3,tone_number_task+empty_block+empty_block,a,686.5,k,741.0
1.0,1.0,tone_number_task,150.0,0.0,tones/880hz_short.mp3,65,tones/880hz_short.mp3,tone_number_task+empty_block+empty_block,s,776.0,k,1005.0
1.0,2.0,tone_number_task,150.0,0.0,tones/440hz_short.mp3,24,tones/440hz_short.mp3,tone_number_task+empty_block+empty_block,a,734.0,j,906.0
1.0,3.0,tone_number_task,1142.5,992.5,tones/880hz_short.mp3,48,tones/880hz_short.mp3,tone_number_task+empty_block+empty_block,s,1191.5,j,804.0
1.0,4.0,tone_number_task,252.5,102.5,tones/880hz_short.mp3,42,tones/880hz_short.mp3,tone_number_task+empty_block+empty_block,s,1205.5,j,1436.0
1.0,5.0,tone_number_task,150.0,0.0,tones/440hz_short.mp3,55,tones/440hz_short.mp3,tone_number_task+empty_block+empty_block,a,879.0,k,1332.0
1.0,6.0,tone_number_task,1142.5,992.5,tones/880hz_short.mp3,68,tones/880hz_short.mp3,tone_number_task+delay_block+tone_number_task_remaining_before_delay+empty_block,s,720.0,k,598.0
1.0,7.0,tone_number_task,252.5,102.5,tones/440hz_short.mp3,65,tones/440hz_short.mp3,tone_number_task+empty_block+empty_block,a,533.5,k,708.0
1.0,8.0,tone_number_task,1175.0,1025.0,tones/880hz_short.mp3,60,tones/880hz_short.mp3,tone_number_task+delay_block+tone_number_task_remaining_before_delay+empty_block,s,512.0,k,444.0
1.0,9.0,tone_number_task,1175.0,1025.0,tones/440hz_short.mp3,48,tones/440hz_short.mp3,tone_number_task+delay_block+tone_number_task_remaining_before_delay+empty_block,a,651.0,j,499.0
1.0,10.0,tone_number_task,1175.0,1025.0,tones/880hz_short.mp3,24,tones/880hz_short.mp3,tone_number_task+delay_block+tone_number_task_remaining_before_delay+empty_block,s,600.0,j,498.0
1.0,11.0,tone_number_task,1175.0,1025.0,tones/440hz_short.mp3,50,tones/440hz_short.mp3,tone_number_task+delay_block+tone_number_task_remaining_before_delay+empty_block,a,741.0,k,529.0
1.0,12.0,tone_number_task,1142.5,992.5,tones/440hz_short.mp3,46,tones/440hz_short.mp3,tone_number_task+delay_block+tone_number_task_remaining_before_delay+empty_block,a,621.0,j,882.0
1.0,13.0,tone_number_task,150.0,0.0,tones/440hz_short.mp3,35,tones/440hz_short.mp3,tone_number_task+empty_block+empty_block,a,678.0,j,834.0
1.0,14.0,tone_number_task,1175.0,1025.0,tones/440hz_short.mp3,41,tones/440hz_short.mp3,tone_number_task+delay_block+tone_number_task_remaining_before_delay+empty_block,a,509.0,j,592.0
1.0,15.0,tone_number_task,1142.5,992.5,tones/440hz_short.mp3,21,tones/440hz_short.mp3,tone_number_task+delay_block+tone_number_task_remaining_before_delay+empty_block,a,480.0,j,603.0
1.0,16.0,tone_number_task,1142.5,992.5,tones/880hz_short.mp3,63,tones/880hz_short.mp3,tone_number_task+delay_block+tone_number_task_remaining_before_delay+empty_block,s,899.0,k,437.0
1.0,17.0,tone_number_task,252.5,102.5,tones/440hz_short.mp3,51,tones/440hz_short.mp3,tone_number_task+empty_block+empty_block,a,484.5,j,922.0
1.0,18.0,tone_number_task,1142.5,992.5,tones/440hz_short.mp3,26,tones/440hz_short.mp3,tone_number_task+delay_block+tone_number_task_remaining_before_delay+empty_block,a,491.0,j,486.0
1.0,19.0,tone_number_task,252.5,102.5,tones/440hz_short.mp3,54,tones/440hz_short.mp3,tone_number_task+empty_block+empty_block,a,892.5,k,1066.0
1.0,20.0,tone_number_task,150.0,0.0,tones/440hz_short.mp3,57,tones/440hz_short.mp3,tone_number_task+empty_block+empty_block,a,613.0,k,1337.0
1.0,21.0,tone_number_task,150.0,0.0,tones/880hz_short.mp3,60,tones/880hz_short.mp3,tone_number_task+empty_block+empty_block,s,493.0,k,809.0
1.0,22.0,tone_number_task,1175.0,1025.0,tones/440hz_short.mp3,69,tones/440hz_short.mp3,tone_number_task+delay_block+tone_number_task_remaining_before_delay+empty_block,a,520.0,k,498.0
1.0,23.0,tone_number_task,252.5,102.5,tones/440hz_short.mp3,32,tones/440hz_short.mp3,tone_number_task+empty_block+empty_block,a,852.5,j,1018.0
1.0,24.0,tone_number_task,1175.0,1025.0,tones/880hz_short.mp3,43,tones/880hz_short.mp3,tone_number_task+delay_block+tone_number_task_remaining_before_delay+empty_block,s,549.0,j,582.0
1.0,25.0,tone_number_task,150.0,0.0,tones/440hz_short.mp3,29,tones/440hz_short.mp3,tone_number_task+empty_block+empty_block,s,436.0,j,847.0
1.0,26.0,tone_number_task,1142.5,992.5,tones/880hz_short.mp3,57,tones/880hz_short.mp3,tone_number_task+delay_block+tone_number_task_remaining_before_delay+empty_block,s,469.0,k,831.0
1.0,27.0,tone_number_task,1142.5,992.5,tones/440hz_short.mp3,41,tones/440hz_short.mp3,tone_number_task+delay_block+tone_number_task_remaining_before_delay+empty_block,a,600.0,j,473.0
1.0,28.0,tone_number_task,150.0,0.0,tones/440hz_short.mp3,31,tones/440hz_short.mp3,tone_number_task+empty_block+empty_block,a,491.0,j,703.0
1.0,29.0,tone_number_task,252.5,102.5,tones/440hz_short.mp3,41,tones/440hz_short.mp3,tone_number_task+empty_block+empty_block,a,562.5,k,792.0
1.0,30.0,tone_number_task,1175.0,1025.0,tones/880hz_short.mp3,56,tones/880hz_short.mp3,tone_number_task+delay_block+tone_number_task_remaining_before_delay+empty_block,s,859.0,k,691.0
1.0,31.0,tone_number_task,1142.5,992.5,tones/880hz_short.mp3,55,tones/880hz_short.mp3,tone_number_task+delay_block+tone_number_task_remaining_before_delay+empty_block,s,629.0,k,599.0
1.0,32.0,tone_number_task,252.5,102.5,tones/880hz_short.mp3,51,tones/880hz_short.mp3,tone_number_task+empty_block+empty_block,s,748.5,k,769.0
1.0,33.0,tone_number_task,1175.0,1025.0,tones/880hz_short.mp3,41,tones/880hz_short.mp3,tone_number_task+delay_block+tone_number_task_remaining_before_delay+empty_block,s,440.0,j,479.0
1.0,34.0,tone_number_task,1175.0,1025.0,tones/880hz_short.mp3,52,tones/880hz_short.mp3,tone_number_task+delay_block+tone_number_task_remaining_before_delay+empty_block,s,509.0,k,630.0
1.0,35.0,tone_number_task,252.5,102.5,tones/880hz_short.mp3,52,tones/880hz_short.mp3,tone_number_task+empty_block+empty_block,s,490.5,j,736.0
1.0,36.0,tone_number_task,1142.5,992.5,tones/440hz_short.mp3,67,tones/440hz_short.mp3,tone_number_task+delay_block+tone_number_task_remaining_before_delay+empty_block,a,619.0,k,556.0
1.0,37.0,tone_number_task,150.0,0.0,tones/440hz_short.mp3,51,tones/440hz_short.mp3,tone_number_task+empty_block+empty_block,a,450.0,k,1149.0
1.0,38.0,tone_number_task,252.5,102.5,tones/880hz_short.mp3,67,tones/880hz_short.mp3,tone_number_task+empty_block+empty_block,s,642.5,k,928.0
1.0,39.0,tone_number_task,150.0,0.0,tones/440hz_short.mp3,30,tones/440hz_short.mp3,tone_number_task+empty_block+empty_block,a,593.0,j,852.0
2.0,0.0,tone_number_task,1142.5,992.5,tones/880hz_short.mp3,veintiocho,tones/880hz_short.mp3,tone_number_task+delay_block+tone_number_task_remaining_before_delay+empty_block,s,531.0,j,721.0
2.0,1.0,tone_number_task,1142.5,992.5,tones/440hz_short.mp3,treinta y seis,tones/440hz_short.mp3,tone_number_task+delay_block+tone_number_task_remaining_before_delay+empty_block,a,480.0,j,647.0
2.0,2.0,tone_number_task,150.0,0.0,tones/880hz_short.mp3,cuarenta y nueve,tones/880hz_short.mp3,tone_number_task+empty_block+empty_block,s,656.0,k,835.0
2.0,3.0,tone_number_task,252.5,102.5,tones/440hz_short.mp3,sesenta y seis,tones/440hz_short.mp3,tone_number_task+empty_block+empty_block,a,464.5,k,717.0
2.0,4.0,tone_number_task,150.0,0.0,tones/440hz_short.mp3,cincuenta y dos,tones/440hz_short.mp3,tone_number_task+empty_block+empty_block,a,889.0,k,1188.0
2.0,5.0,tone_number_task,252.5,102.5,tones/440hz_short.mp3,cuarenta y siete,tones/440hz_short.mp3,tone_number_task+empty_block+empty_block,a,952.5,k,1837.0
2.0,6.0,tone_number_task,1175.0,1025.0,tones/880hz_short.mp3,sesenta y cinco,tones/880hz_short.mp3,tone_number_task+delay_block+tone_number_task_remaining_before_delay+empty_block,s,600.0,k,677.0
2.0,7.0,tone_number_task,1175.0,1025.0,tones/440hz_short.mp3,treinta y ocho,tones/440hz_short.mp3,tone_number_task+delay_block+tone_number_task_remaining_before_delay+empty_block,a,800.0,j,639.0
2.0,8.0,tone_number_task,1142.5,992.5,tones/880hz_short.mp3,cincuenta y dos,tones/880hz_short.mp3,tone_number_task+delay_block+tone_number_task_remaining_before_delay+empty_block,s,739.0,k,723.0
2.0,9.0,tone_number_task,252.5,102.5,tones/440hz_short.mp3,cincuenta y cuatro,tones/440hz_short.mp3,tone_number_task+empty_block+empty_block,a,472.5,k,1525.0
2.0,10.0,tone_number_task,1175.0,1025.0,tones/880hz_short.mp3,treinta y tres,tones/880hz_short.mp3,tone_number_task+delay_block+tone_number_task_remaining_before_delay+empty_block,s,451.0,j,713.0
2.0,11.0,tone_number_task,1142.5,992.5,tones/880hz_short.mp3,cincuenta,tones/880hz_short.mp3,tone_number_task+delay_block+tone_number_task_remaining_before_delay+empty_block,s,560.0,k,703.0
2.0,12.0,tone_number_task,252.5,102.5,tones/880hz_short.mp3,treinta y cuatro,tones/880hz_short.mp3,tone_number_task+empty_block+empty_block,s,471.5,j,636.0
2.0,13.0,tone_number_task,150.0,0.0,tones/880hz_short.mp3,cuarenta y ocho,tones/880hz_short.mp3,tone_number_task+empty_block+empty_block,s,351.0,k,1425.0
2.0,14.0,tone_number_task,1175.0,1025.0,tones/440hz_short.mp3,treinta y cuatro,tones/440hz_short.mp3,tone_number_task+delay_block+tone_number_task_remaining_before_delay+empty_block,a,461.0,j,522.0
2.0,15.0,tone_number_task,1175.0,1025.0,tones/880hz_short.mp3,cuarenta y uno,tones/880hz_short.mp3,tone_number_task+delay_block+tone_number_task_remaining_before_delay+empty_block,s,389.0,k,456.0
2.0,16.0,tone_number_task,252.5,102.5,tones/880hz_short.mp3,treinta y tres,tones/880hz_short.mp3,tone_number_task+empty_block+empty_block,a,791.5,j,867.0
2.0,17.0,tone_number_task,150.0,0.0,tones/880hz_short.mp3,sesenta y cuatro,tones/880hz_short.mp3,tone_number_task+empty_block+empty_block,s,1078.0,k,1488.0
2.0,18.0,tone_number_task,150.0,0.0,tones/880hz_short.mp3,sesenta y tres,tones/880hz_short.mp3,tone_number_task+empty_block+empty_block,s,646.0,k,872.0
2.0,19.0,tone_number_task,252.5,102.5,tones/440hz_short.mp3,cincuenta y tres,tones/440hz_short.mp3,tone_number_task+empty_block+empty_block,a,1222.5,j,1322.0
2.0,20.0,tone_number_task,150.0,0.0,tones/440hz_short.mp3,cincuenta,tones/440hz_short.mp3,tone_number_task+empty_block+empty_block,a,718.0,k,904.0
2.0,21.0,tone_number_task,1175.0,1025.0,tones/440hz_short.mp3,cuarenta y seis,tones/440hz_short.mp3,tone_number_task+delay_block+tone_number_task_remaining_before_delay+empty_block,a,909.0,k,712.0
2.0,22.0,tone_number_task,252.5,102.5,tones/880hz_short.mp3,treinta y cinco,tones/880hz_short.mp3,tone_number_task+empty_block+empty_block,s,509.5,j,714.0
2.0,23.0,tone_number_task,150.0,0.0,tones/440hz_short.mp3,treinta,tones/440hz_short.mp3,tone_number_task+empty_block+empty_block,s,1303.0,j,1401.0
2.0,24.0,tone_number_task,1175.0,1025.0,tones/880hz_short.mp3,treinta y siete,tones/880hz_short.mp3,tone_number_task+delay_block+tone_number_task_remaining_before_delay+empty_block,s,688.0,j,709.0
2.0,25.0,tone_number_task,1175.0,1025.0,tones/880hz_short.mp3,cincuenta,tones/880hz_short.mp3,tone_number_task+delay_block+tone_number_task_remaining_before_delay+empty_block,s,619.0,k,711.0
2.0,26.0,tone_number_task,1175.0,1025.0,tones/880hz_short.mp3,sesenta y nueve,tones/880hz_short.mp3,tone_number_task+delay_block+tone_number_task_remaining_before_delay+empty_block,s,480.0,k,690.0
2.0,27.0,tone_number_task,150.0,0.0,tones/880hz_short.mp3,treinta y nueve,tones/880hz_short.mp3,tone_number_task+empty_block+empty_block,s,579.0,j,885.0
2.0,28.0,tone_number_task,1142.5,992.5,tones/880hz_short.mp3,cincuenta y dos,tones/880hz_short.mp3,tone_number_task+delay_block+tone_number_task_remaining_before_delay+empty_block,s,400.0,k,804.0
2.0,29.0,tone_number_task,1142.5,992.5,tones/440hz_short.mp3,cuarenta y seis,tones/440hz_short.mp3,tone_number_task+delay_block+tone_number_task_remaining_before_delay+empty_block,a,539.0,j,863.0
2.0,30.0,tone_number_task,1142.5,992.5,tones/880hz_short.mp3,sesenta,tones/880hz_short.mp3,tone_number_task+delay_block+tone_number_task_remaining_before_delay+empty_block,s,480.0,k,524.0
2.0,31.0,tone_number_task,252.5,102.5,tones/880hz_short.mp3,cincuenta y cuatro,tones/880hz_short.mp3,tone_number_task+empty_block+empty_block,s,1045.5,k,1377.0
2.0,32.0,tone_number_task,1142.5,992.5,tones/440hz_short.mp3,cincuenta y cinco,tones/440hz_short.mp3,tone_number_task+delay_block+tone_number_task_remaining_before_delay+empty_block,a,608.0,k,571.0
2.0,33.0,tone_number_task,252.5,102.5,tones/440hz_short.mp3,treinta y ocho,tones/440hz_short.mp3,tone_number_task+empty_block+empty_block,a,611.5,j,862.0
2.0,34.0,tone_number_task,1175.0,1025.0,tones/880hz_short.mp3,sesenta y cinco,tones/880hz_short.mp3,tone_number_task+delay_block+tone_number_task_remaining_before_delay+empty_block,s,571.0,k,398.0
2.0,35.0,tone_number_task,150.0,0.0,tones/440hz_short.mp3,cuarenta y siete,tones/440hz_short.mp3,tone_number_task+empty_block+empty_block,a,724.0,,
2.0,36.0,tone_number_task,150.0,0.0,tones/440hz_short.mp3,sesenta y siete,tones/440hz_short.mp3,tone_number_task+empty_block+empty_block,s,660.0,k,1557.0
2.0,37.0,tone_number_task,1142.5,992.5,tones/880hz_short.mp3,sesenta y tres,tones/880hz_short.mp3,tone_number_task+delay_block+tone_number_task_remaining_before_delay+empty_block,s,648.0,k,603.0
2.0,38.0,tone_number_task,252.5,102.5,tones/440hz_short.mp3,cuarenta y nueve,tones/440hz_short.mp3,tone_number_task+empty_block+empty_block,a,757.5,k,1232.0
2.0,39.0,tone_number_task,1142.5,992.5,tones/880hz_short.mp3,cuarenta y dos,tones/880hz_short.mp3,tone_number_task+delay_block+tone_number_task_remaining_before_delay+empty_block,s,429.0,j,760.0
3.0,0.0,tone_number_task,252.5,102.5,tones/440hz_short.mp3,sesenta y tres,tones/440hz_short.mp3,tone_number_task+empty_block+empty_block,a,449.5,k,724.0
3.0,1.0,tone_number_task,252.5,102.5,tones/880hz_short.mp3,veintinueve,tones/880hz_short.mp3,tone_number_task+empty_block+empty_block,s,427.5,j,630.0
3.0,2.0,tone_number_task,1142.5,992.5,tones/880hz_short.mp3,treinta,tones/880hz_short.mp3,tone_number_task+delay_block+tone_number_task_remaining_before_delay+empty_block,s,571.0,j,507.0
3.0,3.0,tone_number_task,150.0,0.0,tones/880hz_short.mp3,cuarenta y cuatro,tones/880hz_short.mp3,tone_number_task+empty_block+empty_block,s,963.0,,
3.0,4.0,tone_number_task,252.5,102.5,tones/440hz_short.mp3,cuarenta y tres,tones/440hz_short.mp3,tone_number_task+empty_block+empty_block,s,555.5,j,933.0
3.0,5.0,tone_number_task,1175.0,1025.0,tones/880hz_short.mp3,veintisiete,tones/880hz_short.mp3,tone_number_task+delay_block+tone_number_task_remaining_before_delay+empty_block,s,429.0,j,622.0
3.0,6.0,tone_number_task,1175.0,1025.0,tones/440hz_short.mp3,treinta y uno,tones/440hz_short.mp3,tone_number_task+delay_block+tone_number_task_remaining_before_delay+empty_block,a,579.0,j,667.0
3.0,7.0,tone_number_task,1142.5,992.5,tones/440hz_short.mp3,cuarenta y siete,tones/440hz_short.mp3,tone_number_task+delay_block+tone_number_task_remaining_before_delay+empty_block,a,560.0,k,928.0
3.0,8.0,tone_number_task,150.0,0.0,tones/880hz_short.mp3,sesenta y siete,tones/880hz_short.mp3,tone_number_task+empty_block+empty_block,a,690.0,k,923.0
3.0,9.0,tone_number_task,150.0,0.0,tones/880hz_short.mp3,treinta y siete,tones/880hz_short.mp3,tone_number_task+empty_block+empty_block,s,1290.0,j,1611.0
3.0,10.0,tone_number_task,252.5,102.5,tones/440hz_short.mp3,treinta,tones/440hz_short.mp3,tone_number_task+empty_block+empty_block,a,488.5,j,634.0
3.0,11.0,tone_number_task,1175.0,1025.0,tones/880hz_short.mp3,veinticinco,tones/880hz_short.mp3,tone_number_task+delay_block+tone_number_task_remaining_before_delay+empty_block,s,451.0,j,594.0
3.0,12.0,tone_number_task,1142.5,992.5,tones/440hz_short.mp3,treinta y seis,tones/440hz_short.mp3,tone_number_task+delay_block+tone_number_task_remaining_before_delay+empty_block,a,531.0,j,1139.0
3.0,13.0,tone_number_task,1142.5,992.5,tones/440hz_short.mp3,cincuenta y cuatro,tones/440hz_short.mp3,tone_number_task+delay_block+tone_number_task_remaining_before_delay+empty_block,a,472.0,k,1167.0
3.0,14.0,tone_number_task,252.5,102.5,tones/880hz_short.mp3,cincuenta y cinco,tones/880hz_short.mp3,tone_number_task+empty_block+empty_block,s,419.5,k,1190.0
3.0,15.0,tone_number_task,150.0,0.0,tones/440hz_short.mp3,cuarenta y cuatro,tones/440hz_short.mp3,tone_number_task+empty_block+empty_block,a,434.0,j,946.0
3.0,16.0,tone_number_task,1175.0,1025.0,tones/440hz_short.mp3,cincuenta y dos,tones/440hz_short.mp3,tone_number_task+delay_block+tone_number_task_remaining_before_delay+empty_block,a,581.0,k,748.0
3.0,17.0,tone_number_task,150.0,0.0,tones/880hz_short.mp3,treinta y ocho,tones/880hz_short.mp3,tone_number_task+empty_block+empty_block,a,899.0,j,1065.0
3.0,18.0,tone_number_task,1175.0,1025.0,tones/440hz_short.mp3,sesenta y siete,tones/440hz_short.mp3,tone_number_task+delay_block+tone_number_task_remaining_before_delay+empty_block,a,720.0,k,671.0
3.0,19.0,tone_number_task,1175.0,1025.0,tones/440hz_short.mp3,cuarenta y tres,tones/440hz_short.mp3,tone_number_task+delay_block+tone_number_task_remaining_before_delay+empty_block,a,611.0,j,1049.0
3.0,20.0,tone_number_task,150.0,0.0,tones/880hz_short.mp3,sesenta y seis,tones/880hz_short.mp3,tone_number_task+empty_block+empty_block,s,624.0,k,840.0
3.0,21.0,tone_number_task,1175.0,1025.0,tones/880hz_short.mp3,cuarenta y seis,tones/880hz_short.mp3,tone_number_task+delay_block+tone_number_task_remaining_before_delay+empty_block,s,579.0,k,792.0
3.0,22.0,tone_number_task,1142.5,992.5,tones/880hz_short.mp3,sesenta y nueve,tones/880hz_short.mp3,tone_number_task+delay_block+tone_number_task_remaining_before_delay+empty_block,s,491.0,k,515.0
3.0,23.0,tone_number_task,1175.0,1025.0,tones/440hz_short.mp3,cincuenta y siete,tones/440hz_short.mp3,tone_number_task+delay_block+tone_number_task_remaining_before_delay+empty_block,a,680.0,k,774.0
3.0,24.0,tone_number_task,1142.5,992.5,tones/440hz_short.mp3,treinta y ocho,tones/440hz_short.mp3,tone_number_task+delay_block+tone_number_task_remaining_before_delay+empty_block,a,661.0,j,723.0
3.0,25.0,tone_number_task,1142.5,992.5,tones/440hz_short.mp3,cincuenta y uno,tones/440hz_short.mp3,tone_number_task+delay_block+tone_number_task_remaining_before_delay+empty_block,a,581.0,k,427.0
3.0,26.0,tone_number_task,252.5,102.5,tones/880hz_short.mp3,cincuenta y cinco,tones/880hz_short.mp3,tone_number_task+empty_block+empty_block,s,767.5,k,817.0
3.0,27.0,tone_number_task,150.0,0.0,tones/880hz_short.mp3,cuarenta y cuatro,tones/880hz_short.mp3,tone_number_task+empty_block+empty_block,s,591.0,k,863.0
3.0,28.0,tone_number_task,1175.0,1025.0,tones/880hz_short.mp3,veintiseis,tones/880hz_short.mp3,tone_number_task+delay_block+tone_number_task_remaining_before_delay+empty_block,s,539.0,j,481.0
3.0,29.0,tone_number_task,1142.5,992.5,tones/440hz_short.mp3,sesenta,tones/440hz_short.mp3,tone_number_task+delay_block+tone_number_task_remaining_before_delay+empty_block,a,389.0,k,450.0
3.0,30.0,tone_number_task,252.5,102.5,tones/440hz_short.mp3,treinta y cuatro,tones/440hz_short.mp3,tone_number_task+empty_block+empty_block,a,535.5,j,673.0
3.0,31.0,tone_number_task,252.5,102.5,tones/880hz_short.mp3,sesenta y uno,tones/880hz_short.mp3,tone_number_task+empty_block+empty_block,s,535.5,k,649.0
3.0,32.0,tone_number_task,1175.0,1025.0,tones/440hz_short.mp3,treinta y cinco,tones/440hz_short.mp3,tone_number_task+delay_block+tone_number_task_remaining_before_delay+empty_block,a,459.0,j,576.0
3.0,33.0,tone_number_task,1142.5,992.5,tones/440hz_short.mp3,cuarenta y nueve,tones/440hz_short.mp3,tone_number_task+delay_block+tone_number_task_remaining_before_delay+empty_block,a,509.0,k,816.0
3.0,34.0,tone_number_task,252.5,102.5,tones/440hz_short.mp3,treinta y cinco,tones/440hz_short.mp3,tone_number_task+empty_block+empty_block,a,670.5,k,927.0
3.0,35.0,tone_number_task,150.0,0.0,tones/440hz_short.mp3,cincuenta y cinco,tones/440hz_short.mp3,tone_number_task+empty_block+empty_block,a,655.0,k,959.0
3.0,36.0,tone_number_task,252.5,102.5,tones/440hz_short.mp3,treinta y tres,tones/440hz_short.mp3,tone_number_task+empty_block+empty_block,a,597.5,j,687.0
3.0,37.0,tone_number_task,1142.5,992.5,tones/440hz_short.mp3,cuarenta y cuatro,tones/440hz_short.mp3,tone_number_task+delay_block+tone_number_task_remaining_before_delay+empty_block,a,771.0,j,1064.0
3.0,38.0,tone_number_task,150.0,0.0,tones/440hz_short.mp3,veintitres,tones/440hz_short.mp3,tone_number_task+empty_block+empty_block,s,621.0,j,844.0
3.0,39.0,tone_number_task,150.0,0.0,tones/440hz_short.mp3,cincuenta y dos,tones/440hz_short.mp3,tone_number_task+empty_block+empty_block,a,565.0,k,749.0
