block,round,task,trial_duration,delay,audioFile,number,stimulus,type,response_1,rt_1,response_2,rt_2
0.0,0.0,tone_number_task,1142.5,992.5,tones/440hz_short.mp3,49,tones/440hz_short.mp3,tone_number_task+delay_block+tone_number_task_remaining_before_delay+empty_block,a,600.0,k,583.0
0.0,1.0,tone_number_task,1142.5,992.5,tones/880hz_short.mp3,58,tones/880hz_short.mp3,tone_number_task+delay_block+tone_number_task_remaining_before_delay+empty_block,s,579.0,k,392.0
0.0,2.0,tone_number_task,252.5,102.5,tones/440hz_short.mp3,57,tones/440hz_short.mp3,tone_number_task+empty_block+empty_block,a,656.5,j,859.0
0.0,3.0,tone_number_task,150.0,0.0,tones/880hz_short.mp3,23,tones/880hz_short.mp3,tone_number_task+empty_block+empty_block,a,571.0,k,1034.0
0.0,4.0,tone_number_task,1175.0,1025.0,tones/440hz_short.mp3,67,tones/440hz_short.mp3,tone_number_task+delay_block+tone_number_task_remaining_before_delay+empty_block,a,659.0,k,400.0
0.0,5.0,tone_number_task,150.0,0.0,tones/440hz_short.mp3,40,tones/440hz_short.mp3,tone_number_task+empty_block+empty_block,a,650.0,j,954.0
0.0,6.0,tone_number_task,252.5,102.5,tones/440hz_short.mp3,29,tones/440hz_short.mp3,tone_number_task+empty_block+empty_block,a,528.5,j,700.0
0.0,7.0,tone_number_task,1142.5,992.5,tones/440hz_short.mp3,48,tones/440hz_short.mp3,tone_number_task+delay_block+tone_number_task_remaining_before_delay+empty_block,a,520.0,j,407.0
0.0,8.0,tone_number_task,252.5,102.5,tones/880hz_short.mp3,31,tones/880hz_short.mp3,tone_number_task+empty_block+empty_block,s,481.5,j,780.0
0.0,9.0,tone_number_task,1175.0,1025.0,tones/440hz_short.mp3,53,tones/440hz_short.mp3,tone_number_task+delay_block+tone_number_task_remaining_before_delay+empty_block,a,629.0,k,409.0
0.0,10.0,tone_number_task,150.0,0.0,tones/880hz_short.mp3,32,tones/880hz_short.mp3,tone_number_task+empty_block+empty_block,s,624.0,j,994.0
0.0,11.0,tone_number_task,1142.5,992.5,tones/880hz_short.mp3,64,tones/880hz_short.mp3,tone_number_task+delay_block+tone_number_task_remaining_before_delay+empty_block,s,419.0,k,380.0
0.0,12.0,tone_number_task,1142.5,992.5,tones/880hz_short.mp3,47,tones/880hz_short.mp3,tone_number_task+delay_block+tone_number_task_remaining_before_delay+empty_block,s,480.0,k,515.0
0.0,13.0,tone_number_task,150.0,0.0,tones/880hz_short.mp3,31,tones/880hz_short.mp3,tone_number_task+empty_block+empty_block,s,555.0,j,913.0
0.0,14.0,tone_number_task,1175.0,1025.0,tones/880hz_short.mp3,41,tones/880hz_short.mp3,tone_number_task+delay_block+tone_number_task_remaining_before_delay+empty_block,s,579.0,k,423.0
0.0,15.0,tone_number_task,1142.5,992.5,tones/440hz_short.mp3,32,tones/440hz_short.mp3,tone_number_task+delay_block+tone_number_task_remaining_before_delay+empty_block,a,541.0,j,463.0
0.0,16.0,tone_number_task,1175.0,1025.0,tones/440hz_short.mp3,65,tones/440hz_short.mp3,tone_number_task+delay_block+tone_number_task_remaining_before_delay+empty_block,a,600.0,k,418.0
0.0,17.0,tone_number_task,1175.0,1025.0,tones/880hz_short.mp3,43,tones/880hz_short.mp3,tone_number_task+delay_block+tone_number_task_remaining_before_delay+empty_block,s,579.0,j,489.0
0.0,18.0,tone_number_task,150.0,0.0,tones/880hz_short.mp3,61,tones/880hz_short.mp3,tone_number_task+empty_block+empty_block,s,446.0,k,870.0
0.0,19.0,tone_number_task,150.0,0.0,tones/440hz_short.mp3,26,tones/440hz_short.mp3,tone_number_task+empty_block+empty_block,a,631.0,j,1570.0
0.0,20.0,tone_number_task,252.5,102.5,tones/440hz_short.mp3,64,tones/440hz_short.mp3,tone_number_task+empty_block+empty_block,a,1325.5,j,1445.0
0.0,21.0,tone_number_task,1142.5,992.5,tones/440hz_short.mp3,55,tones/440hz_short.mp3,tone_number_task+delay_block+tone_number_task_remaining_before_delay+empty_block,a,571.0,k,391.0
0.0,22.0,tone_number_task,252.5,102.5,tones/880hz_short.mp3,34,tones/880hz_short.mp3,tone_number_task+empty_block+empty_block,s,988.5,j,1143.0
0.0,23.0,tone_number_task,1142.5,992.5,tones/440hz_short.mp3,63,tones/440hz_short.mp3,tone_number_task+delay_block+tone_number_task_remaining_before_delay+empty_block,a,509.0,k,330.0
0.0,24.0,tone_number_task,150.0,0.0,tones/440hz_short.mp3,69,tones/440hz_short.mp3,tone_number_task+empty_block+empty_block,a,850.0,k,1192.0
0.0,25.0,tone_number_task,1142.5,992.5,tones/880hz_short.mp3,30,tones/880hz_short.mp3,tone_number_task+delay_block+tone_number_task_remaining_before_delay+empty_block,s,691.0,j,387.0
0.0,26.0,tone_number_task,1175.0,1025.0,tones/440hz_short.mp3,49,tones/440hz_short.mp3,tone_number_task+delay_block+tone_number_task_remaining_before_delay+empty_block,a,659.0,k,404.0
0.0,27.0,tone_number_task,252.5,102.5,tones/440hz_short.mp3,41,tones/440hz_short.mp3,tone_number_task+empty_block+empty_block,a,565.5,j,894.0
0.0,28.0,tone_number_task,252.5,102.5,tones/880hz_short.mp3,61,tones/880hz_short.mp3,tone_number_task+empty_block+empty_block,s,399.5,k,582.0
0.0,29.0,tone_number_task,1175.0,1025.0,tones/440hz_short.mp3,38,tones/440hz_short.mp3,tone_number_task+delay_block+tone_number_task_remaining_before_delay+empty_block,a,491.0,j,404.0
0.0,30.0,tone_number_task,252.5,102.5,tones/880hz_short.mp3,23,tones/880hz_short.mp3,tone_number_task+empty_block+empty_block,s,464.5,j,720.0
0.0,31.0,tone_number_task,1175.0,1025.0,tones/440hz_short.mp3,56,tones/440hz_short.mp3,tone_number_task+delay_block+tone_number_task_remaining_before_delay+empty_block,a,808.0,k,362.0
0.0,32.0,tone_number_task,150.0,0.0,tones/440hz_short.mp3,44,tones/440hz_short.mp3,tone_number_task+empty_block+empty_block,a,470.0,j,876.0
0.0,33.0,tone_number_task,252.5,102.5,tones/440hz_short.mp3,69,tones/440hz_short.mp3,tone_number_task+empty_block+empty_block,a,685.5,k,854.0
0.0,34.0,tone_number_task,252.5,102.5,tones/440hz_short.mp3,34,tones/440hz_short.mp3,tone_number_task+empty_block+empty_block,a,621.5,j,765.0
0.0,35.0,tone_number_task,1175.0,1025.0,tones/440hz_short.mp3,60,tones/440hz_short.mp3,tone_number_task+delay_block+tone_number_task_remaining_before_delay+empty_block,a,509.0,k,352.0
0.0,36.0,tone_number_task,1175.0,1025.0,tones/440hz_short.mp3,51,tones/440hz_short.mp3,tone_number_task+delay_block+tone_number_task_remaining_before_delay+empty_block,a,600.0,k,448.0
0.0,37.0,tone_number_task,150.0,0.0,tones/880hz_short.mp3,65,tones/880hz_short.mp3,tone_number_task+empty_block+empty_block,s,702.0,k,1012.0
0.0,38.0,tone_number_task,150.0,0.0,tones/880hz_short.mp3,68,tones/880hz_short.mp3,tone_number_task+empty_block+empty_block,s,438.0,k,702.0
0.0,39.0,tone_number_task,1142.5,992.5,tones/880hz_short.mp3,52,tones/880hz_short.mp3,tone_number_task+delay_block+tone_number_task_remaining_before_delay+empty_block,s,509.0,k,379.0
1.0,0.0,tone_number_task,252.5,102.5,tones/880hz_short.mp3,50,tones/880hz_short.mp3,tone_number_task+empty_block+empty_block,s,650.5,k,761.0
1.0,1.0,tone_number_task,1142.5,992.5,tones/440hz_short.mp3,46,tones/440hz_short.mp3,tone_number_task+delay_block+tone_number_task_remaining_before_delay+empty_block,a,600.0,k,431.0
1.0,2.0,tone_number_task,1175.0,1025.0,tones/880hz_short.mp3,69,tones/880hz_short.mp3,tone_number_task+delay_block+tone_number_task_remaining_before_delay+empty_block,s,499.0,k,355.0
1.0,4.0,tone_number_task,1175.0,1025.0,tones/440hz_short.mp3,41,tones/440hz_short.mp3,tone_number_task+delay_block+tone_number_task_remaining_before_delay+empty_block,a,701.0,j,359.0
1.0,5.0,tone_number_task,1142.5,992.5,tones/880hz_short.mp3,25,tones/880hz_short.mp3,tone_number_task+delay_block+tone_number_task_remaining_before_delay+empty_block,s,541.0,j,345.0
1.0,6.0,tone_number_task,252.5,102.5,tones/880hz_short.mp3,69,tones/880hz_short.mp3,tone_number_task+empty_block+empty_block,s,511.5,k,689.0
1.0,7.0,tone_number_task,252.5,102.5,tones/440hz_short.mp3,27,tones/440hz_short.mp3,tone_number_task+empty_block+empty_block,a,764.5,j,1076.0
1.0,8.0,tone_number_task,1142.5,992.5,tones/880hz_short.mp3,52,tones/880hz_short.mp3,tone_number_task+delay_block+tone_number_task_remaining_before_delay+empty_block,s,840.0,k,395.0
1.0,9.0,tone_number_task,150.0,0.0,tones/440hz_short.mp3,36,tones/440hz_short.mp3,tone_number_task+empty_block+empty_block,a,476.0,j,1028.0
1.0,10.0,tone_number_task,150.0,0.0,tones/880hz_short.mp3,65,tones/880hz_short.mp3,tone_number_task+empty_block+empty_block,s,484.0,k,743.0
1.0,11.0,tone_number_task,1175.0,1025.0,tones/440hz_short.mp3,64,tones/440hz_short.mp3,tone_number_task+delay_block+tone_number_task_remaining_before_delay+empty_block,a,579.0,k,357.0
1.0,12.0,tone_number_task,252.5,102.5,tones/880hz_short.mp3,50,tones/880hz_short.mp3,tone_number_task+empty_block+empty_block,s,392.5,j,731.0
1.0,13.0,tone_number_task,252.5,102.5,tones/880hz_short.mp3,38,tones/880hz_short.mp3,tone_number_task+empty_block+empty_block,s,635.5,j,913.0
1.0,14.0,tone_number_task,252.5,102.5,tones/880hz_short.mp3,50,tones/880hz_short.mp3,tone_number_task+empty_block+empty_block,s,518.5,k,794.0
1.0,15.0,tone_number_task,1175.0,1025.0,tones/440hz_short.mp3,28,tones/440hz_short.mp3,tone_number_task+delay_block+tone_number_task_remaining_before_delay+empty_block,a,552.0,j,434.0
1.0,16.0,tone_number_task,150.0,0.0,tones/880hz_short.mp3,60,tones/880hz_short.mp3,tone_number_task+empty_block+empty_block,s,996.0,k,1181.0
1.0,17.0,tone_number_task,150.0,0.0,tones/880hz_short.mp3,34,tones/880hz_short.mp3,tone_number_task+empty_block+empty_block,s,417.0,j,682.0
1.0,18.0,tone_number_task,150.0,0.0,tones/440hz_short.mp3,37,tones/440hz_short.mp3,tone_number_task+empty_block+empty_block,a,748.0,k,1108.0
1.0,19.0,tone_number_task,150.0,0.0,tones/880hz_short.mp3,38,tones/880hz_short.mp3,tone_number_task+empty_block+empty_block,s,920.0,k,1289.0
1.0,20.0,tone_number_task,1175.0,1025.0,tones/880hz_short.mp3,60,tones/880hz_short.mp3,tone_number_task+delay_block+tone_number_task_remaining_before_delay+empty_block,s,531.0,k,366.0
1.0,21.0,tone_number_task,1142.5,992.5,tones/880hz_short.mp3,69,tones/880hz_short.mp3,tone_number_task+delay_block+tone_number_task_remaining_before_delay+empty_block,s,528.0,k,379.0
1.0,22.0,tone_number_task,1142.5,992.5,tones/440hz_short.mp3,33,tones/440hz_short.mp3,tone_number_task+delay_block+tone_number_task_remaining_before_delay+empty_block,a,528.0,j,432.0
1.0,23.0,tone_number_task,1175.0,1025.0,tones/440hz_short.mp3,31,tones/440hz_short.mp3,tone_number_task+delay_block+tone_number_task_remaining_before_delay+empty_block,a,539.0,j,353.0
1.0,24.0,tone_number_task,150.0,0.0,tones/440hz_short.mp3,48,tones/440hz_short.mp3,tone_number_task+empty_block+empty_block,s,773.0,,
1.0,25.0,tone_number_task,1175.0,1025.0,tones/440hz_short.mp3,62,tones/440hz_short.mp3,tone_number_task+delay_block+tone_number_task_remaining_before_delay+empty_block,a,680.0,k,417.0
1.0,26.0,tone_number_task,1142.5,992.5,tones/880hz_short.mp3,28,tones/880hz_short.mp3,tone_number_task+delay_block+tone_number_task_remaining_before_delay+empty_block,s,691.0,j,372.0
1.0,27.0,tone_number_task,252.5,102.5,tones/880hz_short.mp3,51,tones/880hz_short.mp3,tone_number_task+empty_block+empty_block,s,542.5,k,817.0
1.0,28.0,tone_number_task,1142.5,992.5,tones/440hz_short.mp3,42,tones/440hz_short.mp3,tone_number_task+delay_block+tone_number_task_remaining_before_delay+empty_block,a,381.0,j,524.0
1.0,29.0,tone_number_task,1142.5,992.5,tones/440hz_short.mp3,49,tones/440hz_short.mp3,tone_number_task+delay_block+tone_number_task_remaining_before_delay+empty_block,a,520.0,k,371.0
1.0,30.0,tone_number_task,1175.0,1025.0,tones/440hz_short.mp3,39,tones/440hz_short.mp3,tone_number_task+delay_block+tone_number_task_remaining_before_delay+empty_block,a,381.0,j,408.0
1.0,31.0,tone_number_task,252.5,102.5,tones/880hz_short.mp3,34,tones/880hz_short.mp3,tone_number_task+empty_block+empty_block,s,604.5,j,928.0
1.0,32.0,tone_number_task,1142.5,992.5,tones/880hz_short.mp3,32,tones/880hz_short.mp3,tone_number_task+delay_block+tone_number_task_remaining_before_delay+empty_block,s,440.0,j,363.0
1.0,33.0,tone_number_task,150.0,0.0,tones/880hz_short.mp3,27,tones/880hz_short.mp3,tone_number_task+empty_block+empty_block,s,569.0,j,905.0
1.0,34.0,tone_number_task,252.5,102.5,tones/440hz_short.mp3,24,tones/440hz_short.mp3,tone_number_task+empty_block+empty_block,a,538.5,j,761.0
1.0,35.0,tone_number_task,252.5,102.5,tones/440hz_short.mp3,23,tones/440hz_short.mp3,tone_number_task+empty_block+empty_block,a,977.5,j,1100.0
1.0,36.0,tone_number_task,150.0,0.0,tones/440hz_short.mp3,61,tones/440hz_short.mp3,tone_number_task+empty_block+empty_block,a,650.0,k,895.0
1.0,37.0,tone_number_task,1175.0,1025.0,tones/880hz_short.mp3,35,tones/880hz_short.mp3,tone_number_task+delay_block+tone_number_task_remaining_before_delay+empty_block,s,629.0,j,313.0
1.0,38.0,tone_number_task,1142.5,992.5,tones/440hz_short.mp3,24,tones/440hz_short.mp3,tone_number_task+delay_block+tone_number_task_remaining_before_delay+empty_block,a,459.0,j,354.0
1.0,39.0,tone_number_task,1175.0,1025.0,tones/440hz_short.mp3,42,tones/440hz_short.mp3,tone_number_task+delay_block+tone_number_task_remaining_before_delay+empty_block,a,512.0,j,697.0
2.0,0.0,tone_number_task,252.5,102.5,tones/440hz_short.mp3,cuarenta y seis,tones/440hz_short.mp3,tone_number_task+empty_block+empty_block,a,771.5,k,1097.0
2.0,1.0,tone_number_task,1142.5,992.5,tones/440hz_short.mp3,veintiuno,tones/440hz_short.mp3,tone_number_task+delay_block+tone_number_task_remaining_before_delay+empty_block,a,640.0,j,657.0
2.0,2.0,tone_number_task,150.0,0.0,tones/880hz_short.mp3,treinta y tres,tones/880hz_short.mp3,tone_number_task+empty_block+empty_block,s,588.0,j,1141.0
2.0,3.0,tone_number_task,1175.0,1025.0,tones/880hz_short.mp3,cincuenta,tones/880hz_short.mp3,tone_number_task+delay_block+tone_number_task_remaining_before_delay+empty_block,s,480.0,j,1152.0
2.0,4.0,tone_number_task,1142.5,992.5,tones/880hz_short.mp3,treinta y seis,tones/880hz_short.mp3,tone_number_task+delay_block+tone_number_task_remaining_before_delay+empty_block,s,701.0,j,674.0
2.0,5.0,tone_number_task,252.5,102.5,tones/880hz_short.mp3,cuarenta y dos,tones/880hz_short.mp3,tone_number_task+empty_block+empty_block,s,661.5,j,888.0
2.0,6.0,tone_number_task,150.0,0.0,tones/440hz_short.mp3,cuarenta y uno,tones/440hz_short.mp3,tone_number_task+empty_block+empty_block,a,506.0,j,855.0
2.0,7.0,tone_number_task,1142.5,992.5,tones/440hz_short.mp3,treinta y cinco,tones/440hz_short.mp3,tone_number_task+delay_block+tone_number_task_remaining_before_delay+empty_block,a,440.0,j,793.0
2.0,8.0,tone_number_task,1175.0,1025.0,tones/880hz_short.mp3,cuarenta y ocho,tones/880hz_short.mp3,tone_number_task+delay_block+tone_number_task_remaining_before_delay+empty_block,s,520.0,j,661.0
2.0,9.0,tone_number_task,1142.5,992.5,tones/880hz_short.mp3,sesenta y cuatro,tones/880hz_short.mp3,tone_number_task+delay_block+tone_number_task_remaining_before_delay+empty_block,s,459.0,k,553.0
2.0,10.0,tone_number_task,150.0,0.0,tones/880hz_short.mp3,cuarenta y nueve,tones/880hz_short.mp3,tone_number_task+empty_block+empty_block,s,399.0,k,1389.0
2.0,11.0,tone_number_task,252.5,102.5,tones/440hz_short.mp3,treinta y cinco,tones/440hz_short.mp3,tone_number_task+empty_block+empty_block,a,481.5,j,715.0
2.0,12.0,tone_number_task,1175.0,1025.0,tones/440hz_short.mp3,treinta y siete,tones/440hz_short.mp3,tone_number_task+delay_block+tone_number_task_remaining_before_delay+empty_block,a,771.0,j,828.0
2.0,13.0,tone_number_task,1175.0,1025.0,tones/880hz_short.mp3,cincuenta y ocho,tones/880hz_short.mp3,tone_number_task+delay_block+tone_number_task_remaining_before_delay+empty_block,s,411.0,k,615.0
2.0,14.0,tone_number_task,150.0,0.0,tones/440hz_short.mp3,cincuenta y dos,tones/440hz_short.mp3,tone_number_task+empty_block+empty_block,a,716.0,k,1133.0
2.0,15.0,tone_number_task,1175.0,1025.0,tones/880hz_short.mp3,veintinueve,tones/880hz_short.mp3,tone_number_task+delay_block+tone_number_task_remaining_before_delay+empty_block,s,549.0,j,617.0
2.0,16.0,tone_number_task,1175.0,1025.0,tones/440hz_short.mp3,sesenta y siete,tones/440hz_short.mp3,tone_number_task+delay_block+tone_number_task_remaining_before_delay+empty_block,a,909.0,k,529.0
2.0,17.0,tone_number_task,150.0,0.0,tones/440hz_short.mp3,cincuenta,tones/440hz_short.mp3,tone_number_task+empty_block+empty_block,a,501.0,j,1190.0
2.0,18.0,tone_number_task,1175.0,1025.0,tones/880hz_short.mp3,veinticinco,tones/880hz_short.mp3,tone_number_task+delay_block+tone_number_task_remaining_before_delay+empty_block,a,891.0,j,636.0
2.0,19.0,tone_number_task,252.5,102.5,tones/880hz_short.mp3,cincuenta y tres,tones/880hz_short.mp3,tone_number_task+empty_block+empty_block,s,710.5,k,1017.0
2.0,20.0,tone_number_task,252.5,102.5,tones/440hz_short.mp3,veintiuno,tones/440hz_short.mp3,tone_number_task+empty_block+empty_block,a,511.5,j,643.0
2.0,21.0,tone_number_task,150.0,0.0,tones/880hz_short.mp3,veinticuatro,tones/880hz_short.mp3,tone_number_task+empty_block+empty_block,s,573.0,j,930.0
2.0,22.0,tone_number_task,252.5,102.5,tones/880hz_short.mp3,treinta y tres,tones/880hz_short.mp3,tone_number_task+empty_block+empty_block,s,537.5,j,820.0
2.0,23.0,tone_number_task,150.0,0.0,tones/440hz_short.mp3,sesenta y ocho,tones/440hz_short.mp3,tone_number_task+empty_block+empty_block,a,836.0,k,1110.0
2.0,24.0,tone_number_task,150.0,0.0,tones/880hz_short.mp3,cuarenta y nueve,tones/880hz_short.mp3,tone_number_task+empty_block+empty_block,s,602.0,j,1182.0
2.0,25.0,tone_number_task,1142.5,992.5,tones/880hz_short.mp3,veinticuatro,tones/880hz_short.mp3,tone_number_task+delay_block+tone_number_task_remaining_before_delay+empty_block,s,600.0,j,547.0
2.0,26.0,tone_number_task,150.0,0.0,tones/880hz_short.mp3,treinta,tones/880hz_short.mp3,tone_number_task+empty_block+empty_block,a,680.0,j,1031.0
2.0,27.0,tone_number_task,1142.5,992.5,tones/440hz_short.mp3,treinta y cuatro,tones/440hz_short.mp3,tone_number_task+delay_block+tone_number_task_remaining_before_delay+empty_block,a,629.0,j,847.0
2.0,28.0,tone_number_task,252.5,102.5,tones/440hz_short.mp3,treinta y ocho,tones/440hz_short.mp3,tone_number_task+empty_block+empty_block,a,545.5,j,822.0
2.0,29.0,tone_number_task,1142.5,992.5,tones/440hz_short.mp3,veintitres,tones/440hz_short.mp3,tone_number_task+delay_block+tone_number_task_remaining_before_delay+empty_block,a,520.0,j,598.0
2.0,30.0,tone_number_task,150.0,0.0,tones/440hz_short.mp3,cincuenta y tres,tones/440hz_short.mp3,tone_number_task+empty_block+empty_block,a,746.0,k,1100.0
2.0,31.0,tone_number_task,1175.0,1025.0,tones/440hz_short.mp3,cuarenta y nueve,tones/440hz_short.mp3,tone_number_task+delay_block+tone_number_task_remaining_before_delay+empty_block,a,520.0,k,811.0
2.0,32.0,tone_number_task,1142.5,992.5,tones/440hz_short.mp3,sesenta y siete,tones/440hz_short.mp3,tone_number_task+delay_block+tone_number_task_remaining_before_delay+empty_block,a,472.0,k,566.0
2.0,33.0,tone_number_task,252.5,102.5,tones/440hz_short.mp3,cuarenta y seis,tones/440hz_short.mp3,tone_number_task+empty_block+empty_block,a,417.5,k,711.0
2.0,34.0,tone_number_task,1175.0,1025.0,tones/880hz_short.mp3,treinta y siete,tones/880hz_short.mp3,tone_number_task+delay_block+tone_number_task_remaining_before_delay+empty_block,s,589.0,j,566.0
2.0,35.0,tone_number_task,252.5,102.5,tones/880hz_short.mp3,cincuenta y cinco,tones/880hz_short.mp3,tone_number_task+empty_block+empty_block,s,348.5,k,895.0
2.0,36.0,tone_number_task,1142.5,992.5,tones/440hz_short.mp3,cuarenta y nueve,tones/440hz_short.mp3,tone_number_task+delay_block+tone_number_task_remaining_before_delay+empty_block,a,640.0,k,631.0
2.0,37.0,tone_number_task,1142.5,992.5,tones/880hz_short.mp3,cincuenta y cinco,tones/880hz_short.mp3,tone_number_task+delay_block+tone_number_task_remaining_before_delay+empty_block,s,509.0,k,558.0
2.0,38.0,tone_number_task,252.5,102.5,tones/880hz_short.mp3,cuarenta,tones/880hz_short.mp3,tone_number_task+empty_block+empty_block,s,439.5,j,810.0
2.0,39.0,tone_number_task,1175.0,1025.0,tones/440hz_short.mp3,sesenta y nueve,tones/440hz_short.mp3,tone_number_task+delay_block+tone_number_task_remaining_before_delay+empty_block,a,560.0,k,477.0
3.0,0.0,tone_number_task,150.0,0.0,tones/440hz_short.mp3,cincuenta y siete,tones/440hz_short.mp3,tone_number_task+empty_block+empty_block,a,724.0,k,981.0
3.0,1.0,tone_number_task,252.5,102.5,tones/880hz_short.mp3,sesenta y siete,tones/880hz_short.mp3,tone_number_task+empty_block+empty_block,s,546.5,k,647.0
3.0,2.0,tone_number_task,252.5,102.5,tones/440hz_short.mp3,veintinueve,tones/440hz_short.mp3,tone_number_task+empty_block+empty_block,a,518.5,j,667.0
3.0,3.0,tone_number_task,150.0,0.0,tones/440hz_short.mp3,treinta y seis,tones/440hz_short.mp3,tone_number_task+empty_block+empty_block,a,457.0,j,780.0
3.0,4.0,tone_number_task,1175.0,1025.0,tones/440hz_short.mp3,cuarenta,tones/440hz_short.mp3,tone_number_task+delay_block+tone_number_task_remaining_before_delay+empty_block,a,440.0,j,671.0
3.0,5.0,tone_number_task,150.0,0.0,tones/440hz_short.mp3,treinta,tones/440hz_short.mp3,tone_number_task+empty_block+empty_block,a,555.0,j,787.0
3.0,6.0,tone_number_task,150.0,0.0,tones/440hz_short.mp3,treinta y ocho,tones/440hz_short.mp3,tone_number_task+empty_block+empty_block,a,512.0,j,890.0
3.0,7.0,tone_number_task,150.0,0.0,tones/880hz_short.mp3,cuarenta y nueve,tones/880hz_short.mp3,tone_number_task+empty_block+empty_block,s,782.0,k,1030.0
3.0,8.0,tone_number_task,252.5,102.5,tones/440hz_short.mp3,sesenta y seis,tones/440hz_short.mp3,tone_number_task+empty_block+empty_block,a,481.5,k,683.0
3.0,9.0,tone_number_task,1175.0,1025.0,tones/440hz_short.mp3,sesenta y ocho,tones/440hz_short.mp3,tone_number_task+delay_block+tone_number_task_remaining_before_delay+empty_block,a,419.0,k,1003.0
3.0,10.0,tone_number_task,1175.0,1025.0,tones/880hz_short.mp3,treinta y ocho,tones/880hz_short.mp3,tone_number_task+delay_block+tone_number_task_remaining_before_delay+empty_block,s,549.0,j,432.0
3.0,11.0,tone_number_task,1175.0,1025.0,tones/440hz_short.mp3,sesenta y cinco,tones/440hz_short.mp3,tone_number_task+delay_block+tone_number_task_remaining_before_delay+empty_block,a,629.0,k,511.0
3.0,12.0,tone_number_task,1175.0,1025.0,tones/440hz_short.mp3,treinta y ocho,tones/440hz_short.mp3,tone_number_task+delay_block+tone_number_task_remaining_before_delay+empty_block,a,589.0,j,465.0
3.0,13.0,tone_number_task,1142.5,992.5,tones/440hz_short.mp3,veintiuno,tones/440hz_short.mp3,tone_number_task+delay_block+tone_number_task_remaining_before_delay+empty_block,a,491.0,j,507.0
3.0,14.0,tone_number_task,1142.5,992.5,tones/440hz_short.mp3,sesenta y nueve,tones/440hz_short.mp3,tone_number_task+delay_block+tone_number_task_remaining_before_delay+empty_block,a,440.0,k,385.0
3.0,15.0,tone_number_task,1175.0,1025.0,tones/440hz_short.mp3,cincuenta y uno,tones/440hz_short.mp3,tone_number_task+delay_block+tone_number_task_remaining_before_delay+empty_block,a,368.0,k,586.0
3.0,16.0,tone_number_task,150.0,0.0,tones/440hz_short.mp3,sesenta y cinco,tones/440hz_short.mp3,tone_number_task+empty_block+empty_block,a,354.0,k,624.0
3.0,17.0,tone_number_task,252.5,102.5,tones/440hz_short.mp3,treinta y siete,tones/440hz_short.mp3,tone_number_task+empty_block+empty_block,a,526.5,j,754.0
3.0,18.0,tone_number_task,1175.0,1025.0,tones/880hz_short.mp3,treinta,tones/880hz_short.mp3,tone_number_task+delay_block+tone_number_task_remaining_before_delay+empty_block,s,429.0,j,529.0
3.0,19.0,tone_number_task,252.5,102.5,tones/880hz_short.mp3,cuarenta y tres,tones/880hz_short.mp3,tone_number_task+empty_block+empty_block,s,479.5,j,1001.0
3.0,20.0,tone_number_task,1142.5,992.5,tones/440hz_short.mp3,cuarenta y cuatro,tones/440hz_short.mp3,tone_number_task+delay_block+tone_number_task_remaining_before_delay+empty_block,a,531.0,k,650.0
3.0,21.0,tone_number_task,1142.5,992.5,tones/440hz_short.mp3,cuarenta y tres,tones/440hz_short.mp3,tone_number_task+delay_block+tone_number_task_remaining_before_delay+empty_block,a,520.0,j,625.0
3.0,22.0,tone_number_task,150.0,0.0,tones/880hz_short.mp3,cuarenta y seis,tones/880hz_short.mp3,tone_number_task+empty_block+empty_block,s,597.0,k,1037.0
3.0,23.0,tone_number_task,150.0,0.0,tones/880hz_short.mp3,sesenta y seis,tones/880hz_short.mp3,tone_number_task+empty_block+empty_block,s,445.0,k,775.0
3.0,24.0,tone_number_task,252.5,102.5,tones/880hz_short.mp3,sesenta,tones/880hz_short.mp3,tone_number_task+empty_block+empty_block,s,409.5,k,639.0
3.0,25.0,tone_number_task,150.0,0.0,tones/440hz_short.mp3,cincuenta y nueve,tones/440hz_short.mp3,tone_number_task+empty_block+empty_block,a,404.0,k,842.0
3.0,26.0,tone_number_task,1142.5,992.5,tones/880hz_short.mp3,cincuenta y nueve,tones/880hz_short.mp3,tone_number_task+delay_block+tone_number_task_remaining_before_delay+empty_block,s,651.0,k,528.0
3.0,27.0,tone_number_task,1175.0,1025.0,tones/880hz_short.mp3,treinta,tones/880hz_short.mp3,tone_number_task+delay_block+tone_number_task_remaining_before_delay+empty_block,s,571.0,j,541.0
3.0,28.0,tone_number_task,252.5,102.5,tones/440hz_short.mp3,treinta y cuatro,tones/440hz_short.mp3,tone_number_task+empty_block+empty_block,a,429.5,j,901.0
3.0,29.0,tone_number_task,1175.0,1025.0,tones/440hz_short.mp3,cincuenta y tres,tones/440hz_short.mp3,tone_number_task+delay_block+tone_number_task_remaining_before_delay+empty_block,a,451.0,k,897.0
3.0,30.0,tone_number_task,1142.5,992.5,tones/440hz_short.mp3,cincuenta y cinco,tones/440hz_short.mp3,tone_number_task+delay_block+tone_number_task_remaining_before_delay+empty_block,a,461.0,k,416.0
3.0,31.0,tone_number_task,1142.5,992.5,tones/880hz_short.mp3,treinta y ocho,tones/880hz_short.mp3,tone_number_task+delay_block+tone_number_task_remaining_before_delay+empty_block,s,608.0,j,452.0
3.0,32.0,tone_number_task,252.5,102.5,tones/440hz_short.mp3,veintiocho,tones/440hz_short.mp3,tone_number_task+empty_block+empty_block,a,446.5,j,672.0
3.0,33.0,tone_number_task,1142.5,992.5,tones/880hz_short.mp3,cuarenta y ocho,tones/880hz_short.mp3,tone_number_task+delay_block+tone_number_task_remaining_before_delay+empty_block,s,480.0,k,357.0
3.0,34.0,tone_number_task,1142.5,992.5,tones/440hz_short.mp3,treinta y tres,tones/440hz_short.mp3,tone_number_task+delay_block+tone_number_task_remaining_before_delay+empty_block,a,640.0,j,482.0
3.0,35.0,tone_number_task,150.0,0.0,tones/880hz_short.mp3,sesenta y seis,tones/880hz_short.mp3,tone_number_task+empty_block+empty_block,s,409.0,k,627.0
3.0,36.0,tone_number_task,1175.0,1025.0,tones/880hz_short.mp3,sesenta y tres,tones/880hz_short.mp3,tone_number_task+delay_block+tone_number_task_remaining_before_delay+empty_block,s,581.0,k,453.0
3.0,37.0,tone_number_task,1142.5,992.5,tones/440hz_short.mp3,veinticuatro,tones/440hz_short.mp3,tone_number_task+delay_block+tone_number_task_remaining_before_delay+empty_block,a,501.0,j,468.0
3.0,38.0,tone_number_task,252.5,102.5,tones/440hz_short.mp3,veinticuatro,tones/440hz_short.mp3,tone_number_task+empty_block+empty_block,a,504.5,j,714.0
3.0,39.0,tone_number_task,252.5,102.5,tones/880hz_short.mp3,veintisiete,tones/880hz_short.mp3,tone_number_task+empty_block+empty_block,s,451.5,j,727.0
