block,round,task,trial_duration,delay,audioFile,number,stimulus,type,response_1,rt_1,response_2,rt_2,is_word
0.0,0.0,tone_number_task,150.0,0.0,tones/440hz_short.mp3,67,tones/440hz_short.mp3,tone_number_task+empty_block+empty_block,a,818.0,k,1371.0,False
0.0,1.0,tone_number_task,252.5,102.5,tones/880hz_short.mp3,61,tones/880hz_short.mp3,tone_number_task+empty_block+empty_block,s,579.5,k,1186.0,False
0.0,2.0,tone_number_task,1175.0,1025.0,tones/880hz_short.mp3,39,tones/880hz_short.mp3,tone_number_task+empty_block+empty_block,s,1346.0,k,885.0,False
0.0,3.0,tone_number_task,252.5,102.5,tones/440hz_short.mp3,61,tones/440hz_short.mp3,tone_number_task+empty_block+empty_block,a,751.5,k,1198.0,False
0.0,4.0,tone_number_task,150.0,0.0,tones/880hz_short.mp3,68,tones/880hz_short.mp3,tone_number_task+empty_block+empty_block,s,668.0,k,1798.0,False
0.0,5.0,tone_number_task,150.0,0.0,tones/880hz_short.mp3,50,tones/880hz_short.mp3,tone_number_task+empty_block+empty_block,s,976.0,k,1735.0,False
0.0,6.0,tone_number_task,1175.0,1025.0,tones/880hz_short.mp3,64,tones/880hz_short.mp3,tone_number_task+delay_block+tone_number_task_remaining_before_delay+empty_block,s,896.0,k,544.0,False
0.0,7.0,tone_number_task,150.0,0.0,tones/440hz_short.mp3,61,tones/440hz_short.mp3,tone_number_task+empty_block+empty_block,a,428.0,k,887.0,False
0.0,8.0,tone_number_task,150.0,0.0,tones/880hz_short.mp3,41,tones/880hz_short.mp3,tone_number_task+empty_block+empty_block,s,1012.0,j,1495.0,False
0.0,9.0,tone_number_task,1175.0,1025.0,tones/440hz_short.mp3,65,tones/440hz_short.mp3,tone_number_task+delay_block+tone_number_task_remaining_before_delay+empty_block,a,832.0,k,868.0,False
0.0,10.0,tone_number_task,150.0,0.0,tones/880hz_short.mp3,66,tones/880hz_short.mp3,tone_number_task+empty_block+empty_block,s,607.0,k,1042.0,False
0.0,11.0,tone_number_task,1142.5,992.5,tones/880hz_short.mp3,33,tones/880hz_short.mp3,tone_number_task+tone_number_task_remaining_after_delay+empty_block,s,1024.0,j,717.0,False
0.0,12.0,tone_number_task,252.5,102.5,tones/440hz_short.mp3,26,tones/440hz_short.mp3,tone_number_task+empty_block+empty_block,a,603.5,j,1035.0,False
0.0,13.0,tone_number_task,1142.5,992.5,tones/880hz_short.mp3,59,tones/880hz_short.mp3,tone_number_task+delay_block+tone_number_task_remaining_before_delay+empty_block,s,555.0,k,502.0,False
0.0,14.0,tone_number_task,1175.0,1025.0,tones/440hz_short.mp3,28,tones/440hz_short.mp3,tone_number_task+delay_block+tone_number_task_remaining_before_delay+empty_block,a,715.0,j,502.0,False
0.0,15.0,tone_number_task,1175.0,1025.0,tones/440hz_short.mp3,62,tones/440hz_short.mp3,tone_number_task+delay_block+tone_number_task_remaining_before_delay+empty_block,a,629.0,k,508.0,False
0.0,16.0,tone_number_task,1175.0,1025.0,tones/440hz_short.mp3,41,tones/440hz_short.mp3,tone_number_task+delay_block+tone_number_task_remaining_before_delay+empty_block,a,576.0,k,573.0,False
0.0,17.0,tone_number_task,1175.0,1025.0,tones/440hz_short.mp3,62,tones/440hz_short.mp3,tone_number_task+tone_number_task_remaining_after_delay+empty_block,a,1045.0,k,594.0,False
0.0,18.0,tone_number_task,1142.5,992.5,tones/440hz_short.mp3,39,tones/440hz_short.mp3,tone_number_task+delay_block+tone_number_task_remaining_before_delay+empty_block,a,693.0,j,454.0,False
0.0,19.0,tone_number_task,1142.5,992.5,tones/440hz_short.mp3,43,tones/440hz_short.mp3,tone_number_task+delay_block+tone_number_task_remaining_before_delay+empty_block,s,981.0,j,1147.0,False
0.0,20.0,tone_number_task,1142.5,992.5,tones/880hz_short.mp3,38,tones/880hz_short.mp3,tone_number_task+delay_block+tone_number_task_remaining_before_delay+empty_block,s,597.0,j,520.0,False
0.0,21.0,tone_number_task,252.5,102.5,tones/440hz_short.mp3,37,tones/440hz_short.mp3,tone_number_task+empty_block+empty_block,a,945.5,j,1376.0,False
0.0,22.0,tone_number_task,252.5,102.5,tones/880hz_short.mp3,22,tones/880hz_short.mp3,tone_number_task+empty_block+empty_block,s,1079.5,j,1493.0,False
0.0,23.0,tone_number_task,1142.5,992.5,tones/880hz_short.mp3,39,tones/880hz_short.mp3,tone_number_task+delay_block+tone_number_task_remaining_before_delay+empty_block,s,651.0,j,375.0,False
0.0,24.0,tone_number_task,1142.5,992.5,tones/440hz_short.mp3,39,tones/440hz_short.mp3,tone_number_task+delay_block+tone_number_task_remaining_before_delay+empty_block,a,757.0,j,803.0,False
0.0,25.0,tone_number_task,252.5,102.5,tones/440hz_short.mp3,62,tones/440hz_short.mp3,tone_number_task+empty_block+empty_block,a,946.5,k,1413.0,False
0.0,26.0,tone_number_task,150.0,0.0,tones/440hz_short.mp3,44,tones/440hz_short.mp3,tone_number_task+empty_block+empty_block,a,880.0,j,1546.0,False
0.0,27.0,tone_number_task,252.5,102.5,tones/440hz_short.mp3,27,tones/440hz_short.mp3,tone_number_task+empty_block+empty_block,a,629.5,j,1044.0,False
0.0,28.0,tone_number_task,252.5,102.5,tones/440hz_short.mp3,23,tones/440hz_short.mp3,tone_number_task+empty_block+empty_block,a,563.5,j,959.0,False
0.0,29.0,tone_number_task,1142.5,992.5,tones/440hz_short.mp3,28,tones/440hz_short.mp3,tone_number_task+tone_number_task_remaining_after_delay+empty_block,a,1024.0,j,550.0,False
0.0,30.0,tone_number_task,1175.0,1025.0,tones/880hz_short.mp3,27,tones/880hz_short.mp3,tone_number_task+delay_block+tone_number_task_remaining_before_delay+empty_block,s,565.0,j,969.0,False
0.0,31.0,tone_number_task,1175.0,1025.0,tones/440hz_short.mp3,46,tones/440hz_short.mp3,tone_number_task+delay_block+tone_number_task_remaining_before_delay+empty_block,a,896.0,k,947.0,False
0.0,32.0,tone_number_task,150.0,0.0,tones/880hz_short.mp3,61,tones/880hz_short.mp3,tone_number_task+empty_block+empty_block,s,823.0,k,1438.0,False
0.0,33.0,tone_number_task,150.0,0.0,tones/880hz_short.mp3,32,tones/880hz_short.mp3,tone_number_task+empty_block+empty_block,a,1345.0,j,1799.0,False
0.0,34.0,tone_number_task,252.5,102.5,tones/880hz_short.mp3,62,tones/880hz_short.mp3,tone_number_task+empty_block+empty_block,s,792.5,k,1117.0,False
0.0,35.0,tone_number_task,1142.5,992.5,tones/880hz_short.mp3,57,tones/880hz_short.mp3,tone_number_task+delay_block+tone_number_task_remaining_before_delay+empty_block,s,597.0,k,515.0,False
0.0,36.0,tone_number_task,150.0,0.0,tones/880hz_short.mp3,43,tones/880hz_short.mp3,tone_number_task+empty_block+empty_block,s,525.0,j,1070.0,False
0.0,37.0,tone_number_task,1142.5,992.5,tones/880hz_short.mp3,25,tones/880hz_short.mp3,tone_number_task+delay_block+tone_number_task_remaining_before_delay+empty_block,s,555.0,j,378.0,False
0.0,38.0,tone_number_task,1175.0,1025.0,tones/440hz_short.mp3,37,tones/440hz_short.mp3,tone_number_task+delay_block+tone_number_task_remaining_before_delay+empty_block,a,512.0,j,421.0,False
0.0,39.0,tone_number_task,252.5,102.5,tones/440hz_short.mp3,55,tones/440hz_short.mp3,tone_number_task+empty_block+empty_block,a,1010.5,k,1590.0,False
1.0,0.0,tone_number_task,1175.0,1025.0,tones/440hz_short.mp3,47,tones/440hz_short.mp3,tone_number_task+delay_block+tone_number_task_remaining_before_delay+empty_block,a,832.0,k,567.0,False
1.0,1.0,tone_number_task,1142.5,992.5,tones/880hz_short.mp3,26,tones/880hz_short.mp3,tone_number_task+delay_block+tone_number_task_remaining_before_delay+empty_block,s,757.0,j,460.0,False
1.0,2.0,tone_number_task,150.0,0.0,tones/440hz_short.mp3,33,tones/440hz_short.mp3,tone_number_task+empty_block+empty_block,a,630.0,j,1102.0,False
1.0,3.0,tone_number_task,1175.0,1025.0,tones/880hz_short.mp3,28,tones/880hz_short.mp3,tone_number_task+delay_block+tone_number_task_remaining_before_delay+empty_block,s,704.0,j,603.0,False
1.0,4.0,tone_number_task,252.5,102.5,tones/880hz_short.mp3,64,tones/880hz_short.mp3,tone_number_task+empty_block+empty_block,s,625.5,k,938.0,False
1.0,5.0,tone_number_task,150.0,0.0,tones/880hz_short.mp3,21,tones/880hz_short.mp3,tone_number_task+empty_block+empty_block,a,447.0,,,False
1.0,6.0,tone_number_task,150.0,0.0,tones/440hz_short.mp3,37,tones/440hz_short.mp3,tone_number_task+empty_block+empty_block,a,1008.0,j,1556.0,False
1.0,7.0,tone_number_task,1175.0,1025.0,tones/880hz_short.mp3,40,tones/880hz_short.mp3,tone_number_task+delay_block+tone_number_task_remaining_before_delay+empty_block,s,779.0,j,712.0,False
1.0,8.0,tone_number_task,1175.0,1025.0,tones/880hz_short.mp3,48,tones/880hz_short.mp3,tone_number_task+delay_block+tone_number_task_remaining_before_delay+empty_block,s,608.0,k,532.0,False
1.0,9.0,tone_number_task,1175.0,1025.0,tones/880hz_short.mp3,52,tones/880hz_short.mp3,tone_number_task+delay_block+tone_number_task_remaining_before_delay+empty_block,s,864.0,k,496.0,False
1.0,10.0,tone_number_task,1142.5,992.5,tones/880hz_short.mp3,40,tones/880hz_short.mp3,tone_number_task+delay_block+tone_number_task_remaining_before_delay+empty_block,s,523.0,j,492.0,False
1.0,11.0,tone_number_task,252.5,102.5,tones/440hz_short.mp3,66,tones/440hz_short.mp3,tone_number_task+empty_block+empty_block,a,955.5,k,1316.0,False
1.0,12.0,tone_number_task,150.0,0.0,tones/440hz_short.mp3,40,tones/440hz_short.mp3,tone_number_task+empty_block+empty_block,a,782.0,j,1335.0,False
1.0,13.0,tone_number_task,150.0,0.0,tones/440hz_short.mp3,68,tones/440hz_short.mp3,tone_number_task+empty_block+empty_block,a,863.0,k,1191.0,False
1.0,14.0,tone_number_task,1175.0,1025.0,tones/440hz_short.mp3,61,tones/440hz_short.mp3,tone_number_task+delay_block+tone_number_task_remaining_before_delay+empty_block,a,832.0,k,643.0,False
1.0,15.0,tone_number_task,150.0,0.0,tones/880hz_short.mp3,60,tones/880hz_short.mp3,tone_number_task+empty_block+empty_block,a,613.0,,,False
1.0,16.0,tone_number_task,1142.5,992.5,tones/880hz_short.mp3,46,tones/880hz_short.mp3,tone_number_task+delay_block+tone_number_task_remaining_before_delay+empty_block,s,629.0,k,968.0,False
1.0,17.0,tone_number_task,1175.0,1025.0,tones/880hz_short.mp3,64,tones/880hz_short.mp3,tone_number_task+delay_block+tone_number_task_remaining_before_delay+empty_block,s,832.0,k,527.0,False
1.0,18.0,tone_number_task,150.0,0.0,tones/880hz_short.mp3,36,tones/880hz_short.mp3,tone_number_task+empty_block+empty_block,s,721.0,j,1188.0,False
1.0,19.0,tone_number_task,150.0,0.0,tones/880hz_short.mp3,61,tones/880hz_short.mp3,tone_number_task+empty_block+empty_block,s,566.0,k,1051.0,False
1.0,20.0,tone_number_task,1175.0,1025.0,tones/880hz_short.mp3,69,tones/880hz_short.mp3,tone_number_task+delay_block+tone_number_task_remaining_before_delay+empty_block,s,619.0,k,376.0,False
1.0,21.0,tone_number_task,1142.5,992.5,tones/880hz_short.mp3,37,tones/880hz_short.mp3,tone_number_task+delay_block+tone_number_task_remaining_before_delay+empty_block,s,469.0,j,437.0,False
1.0,22.0,tone_number_task,252.5,102.5,tones/440hz_short.mp3,37,tones/440hz_short.mp3,tone_number_task+empty_block+empty_block,a,803.5,j,1131.0,False
1.0,23.0,tone_number_task,150.0,0.0,tones/880hz_short.mp3,30,tones/880hz_short.mp3,tone_number_task+empty_block+empty_block,s,482.0,j,1010.0,False
1.0,24.0,tone_number_task,252.5,102.5,tones/440hz_short.mp3,36,tones/440hz_short.mp3,tone_number_task+empty_block+empty_block,a,674.5,j,984.0,False
1.0,25.0,tone_number_task,252.5,102.5,tones/880hz_short.mp3,35,tones/880hz_short.mp3,tone_number_task+empty_block+empty_block,s,425.5,j,763.0,False
1.0,26.0,tone_number_task,1175.0,1025.0,tones/440hz_short.mp3,50,tones/440hz_short.mp3,tone_number_task+delay_block+tone_number_task_remaining_before_delay+empty_block,a,523.0,k,608.0,False
1.0,27.0,tone_number_task,1142.5,992.5,tones/440hz_short.mp3,47,tones/440hz_short.mp3,tone_number_task+delay_block+tone_number_task_remaining_before_delay+empty_block,a,651.0,k,632.0,False
1.0,28.0,tone_number_task,1142.5,992.5,tones/880hz_short.mp3,49,tones/880hz_short.mp3,tone_number_task+delay_block+tone_number_task_remaining_before_delay+empty_block,s,629.0,k,438.0,False
1.0,29.0,tone_number_task,1142.5,992.5,tones/440hz_short.mp3,66,tones/440hz_short.mp3,tone_number_task+delay_block+tone_number_task_remaining_before_delay+empty_block,a,971.0,k,628.0,False
1.0,30.0,tone_number_task,150.0,0.0,tones/440hz_short.mp3,55,tones/440hz_short.mp3,tone_number_task+empty_block+empty_block,a,521.0,k,1034.0,False
1.0,31.0,tone_number_task,252.5,102.5,tones/880hz_short.mp3,32,tones/880hz_short.mp3,tone_number_task+empty_block+empty_block,a,614.5,,,False
1.0,32.0,tone_number_task,252.5,102.5,tones/880hz_short.mp3,49,tones/880hz_short.mp3,tone_number_task+empty_block+empty_block,s,603.5,k,1211.0,False
1.0,33.0,tone_number_task,252.5,102.5,tones/880hz_short.mp3,28,tones/880hz_short.mp3,tone_number_task+empty_block+empty_block,s,493.5,j,886.0,False
1.0,34.0,tone_number_task,1142.5,992.5,tones/440hz_short.mp3,62,tones/440hz_short.mp3,tone_number_task+delay_block+tone_number_task_remaining_before_delay+empty_block,a,608.0,k,491.0,False
1.0,35.0,tone_number_task,1142.5,992.5,tones/440hz_short.mp3,22,tones/440hz_short.mp3,tone_number_task+delay_block+tone_number_task_remaining_before_delay+empty_block,a,960.0,j,639.0,False
1.0,36.0,tone_number_task,252.5,102.5,tones/440hz_short.mp3,53,tones/440hz_short.mp3,tone_number_task+empty_block+empty_block,a,613.5,k,972.0,False
1.0,37.0,tone_number_task,252.5,102.5,tones/440hz_short.mp3,29,tones/440hz_short.mp3,tone_number_task+empty_block+empty_block,a,560.5,k,916.0,False
1.0,38.0,tone_number_task,1142.5,992.5,tones/880hz_short.mp3,31,tones/880hz_short.mp3,tone_number_task+delay_block+tone_number_task_remaining_before_delay+empty_block,s,693.0,j,630.0,False
1.0,39.0,tone_number_task,1175.0,1025.0,tones/440hz_short.mp3,54,tones/440hz_short.mp3,tone_number_task+delay_block+tone_number_task_remaining_before_delay+empty_block,a,981.0,k,658.0,False
2.0,0.0,tone_number_task,1175.0,1025.0,tones/880hz_short.mp3,44,tones/880hz_short.mp3,tone_number_task+tone_number_task_remaining_after_delay+empty_block,s,1131.0,,,True
2.0,1.0,tone_number_task,150.0,0.0,tones/880hz_short.mp3,39,tones/880hz_short.mp3,tone_number_task+empty_block+empty_block,s,652.0,j,982.0,True
2.0,2.0,tone_number_task,252.5,102.5,tones/880hz_short.mp3,41,tones/880hz_short.mp3,tone_number_task+empty_block+empty_block,s,584.5,j,1173.0,True
2.0,3.0,tone_number_task,1142.5,992.5,tones/440hz_short.mp3,56,tones/440hz_short.mp3,tone_number_task+delay_block+tone_number_task_remaining_before_delay+empty_block,a,715.0,k,938.0,True
2.0,4.0,tone_number_task,1175.0,1025.0,tones/440hz_short.mp3,39,tones/440hz_short.mp3,tone_number_task+delay_block+tone_number_task_remaining_before_delay+empty_block,a,949.0,j,865.0,True
2.0,6.0,tone_number_task,150.0,0.0,tones/880hz_short.mp3,21,tones/880hz_short.mp3,tone_number_task+empty_block+empty_block,s,940.0,j,1593.0,True
2.0,9.0,tone_number_task,252.5,102.5,tones/880hz_short.mp3,53,tones/880hz_short.mp3,tone_number_task+empty_block+empty_block,s,1066.5,k,1438.0,True
2.0,10.0,tone_number_task,252.5,102.5,tones/880hz_short.mp3,63,tones/880hz_short.mp3,tone_number_task+empty_block+empty_block,s,877.5,k,1169.0,True
2.0,11.0,tone_number_task,1175.0,1025.0,tones/880hz_short.mp3,54,tones/880hz_short.mp3,tone_number_task+empty_block+empty_block,s,1841.0,k,1205.0,True
2.0,12.0,tone_number_task,1142.5,992.5,tones/880hz_short.mp3,21,tones/880hz_short.mp3,tone_number_task+tone_number_task_remaining_after_delay+empty_block,s,1013.0,j,758.0,True
2.0,13.0,tone_number_task,1142.5,992.5,tones/880hz_short.mp3,57,tones/880hz_short.mp3,tone_number_task+empty_block+empty_block,s,1371.5,k,885.0,True
2.0,14.0,tone_number_task,1142.5,992.5,tones/880hz_short.mp3,42,tones/880hz_short.mp3,tone_number_task+delay_block+tone_number_task_remaining_before_delay+empty_block,s,651.0,k,603.0,True
2.0,15.0,tone_number_task,1175.0,1025.0,tones/440hz_short.mp3,55,tones/440hz_short.mp3,tone_number_task+delay_block+tone_number_task_remaining_before_delay+empty_block,a,779.0,k,639.0,True
2.0,16.0,tone_number_task,252.5,102.5,tones/440hz_short.mp3,31,tones/440hz_short.mp3,tone_number_task+empty_block+empty_block,a,766.5,j,1302.0,True
2.0,17.0,tone_number_task,252.5,102.5,tones/880hz_short.mp3,22,tones/880hz_short.mp3,tone_number_task+empty_block+empty_block,s,689.5,j,1075.0,True
2.0,18.0,tone_number_task,150.0,0.0,tones/440hz_short.mp3,33,tones/440hz_short.mp3,tone_number_task+empty_block+empty_block,a,891.0,j,1542.0,True
2.0,19.0,tone_number_task,252.5,102.5,tones/880hz_short.mp3,36,tones/880hz_short.mp3,tone_number_task+empty_block+empty_block,s,999.5,j,1694.0,True
2.0,20.0,tone_number_task,1142.5,992.5,tones/440hz_short.mp3,55,tones/440hz_short.mp3,tone_number_task+delay_block+tone_number_task_remaining_before_delay+empty_block,a,917.0,k,612.0,True
2.0,21.0,tone_number_task,150.0,0.0,tones/880hz_short.mp3,56,tones/880hz_short.mp3,tone_number_task+empty_block+empty_block,s,661.0,k,1163.0,True
2.0,22.0,tone_number_task,1175.0,1025.0,tones/440hz_short.mp3,36,tones/440hz_short.mp3,tone_number_task+delay_block+tone_number_task_remaining_before_delay+empty_block,a,619.0,j,588.0,True
2.0,23.0,tone_number_task,1142.5,992.5,tones/440hz_short.mp3,63,tones/440hz_short.mp3,tone_number_task+delay_block+tone_number_task_remaining_before_delay+empty_block,a,651.0,j,501.0,True
2.0,24.0,tone_number_task,1175.0,1025.0,tones/880hz_short.mp3,30,tones/880hz_short.mp3,tone_number_task+delay_block+tone_number_task_remaining_before_delay+empty_block,s,949.0,j,1289.0,True
2.0,26.0,tone_number_task,252.5,102.5,tones/880hz_short.mp3,36,tones/880hz_short.mp3,tone_number_task+empty_block+empty_block,s,685.5,j,1210.0,True
2.0,27.0,tone_number_task,252.5,102.5,tones/880hz_short.mp3,50,tones/880hz_short.mp3,tone_number_task+empty_block+empty_block,s,845.5,k,1145.0,True
2.0,28.0,tone_number_task,1175.0,1025.0,tones/880hz_short.mp3,38,tones/880hz_short.mp3,tone_number_task+delay_block+tone_number_task_remaining_before_delay+empty_block,s,875.0,j,675.0,True
2.0,29.0,tone_number_task,150.0,0.0,tones/440hz_short.mp3,26,tones/440hz_short.mp3,tone_number_task+empty_block+empty_block,a,739.0,j,1213.0,True
2.0,30.0,tone_number_task,150.0,0.0,tones/440hz_short.mp3,31,tones/440hz_short.mp3,tone_number_task+empty_block+empty_block,a,632.0,j,1149.0,True
2.0,31.0,tone_number_task,1175.0,1025.0,tones/440hz_short.mp3,54,tones/440hz_short.mp3,tone_number_task+delay_block+tone_number_task_remaining_before_delay+empty_block,a,789.0,k,1136.0,True
2.0,32.0,tone_number_task,1142.5,992.5,tones/440hz_short.mp3,51,tones/440hz_short.mp3,tone_number_task+delay_block+tone_number_task_remaining_before_delay+empty_block,a,715.0,k,743.0,True
2.0,34.0,tone_number_task,1142.5,992.5,tones/880hz_short.mp3,40,tones/880hz_short.mp3,tone_number_task+tone_number_task_remaining_after_delay+empty_block,s,1056.0,,,True
2.0,35.0,tone_number_task,150.0,0.0,tones/440hz_short.mp3,59,tones/440hz_short.mp3,tone_number_task+empty_block+empty_block,a,1350.0,k,1858.0,True
2.0,36.0,tone_number_task,1142.5,992.5,tones/440hz_short.mp3,48,tones/440hz_short.mp3,tone_number_task+delay_block+tone_number_task_remaining_before_delay+empty_block,a,704.0,k,883.0,True
2.0,37.0,tone_number_task,252.5,102.5,tones/440hz_short.mp3,54,tones/440hz_short.mp3,tone_number_task+empty_block+empty_block,a,840.5,k,1318.0,True
2.0,38.0,tone_number_task,1175.0,1025.0,tones/880hz_short.mp3,22,tones/880hz_short.mp3,tone_number_task+delay_block+tone_number_task_remaining_before_delay+empty_block,s,715.0,j,716.0,True
2.0,39.0,tone_number_task,1175.0,1025.0,tones/440hz_short.mp3,33,tones/440hz_short.mp3,tone_number_task+delay_block+tone_number_task_remaining_before_delay+empty_block,a,672.0,j,1014.0,True
3.0,0.0,tone_number_task,1142.5,992.5,tones/440hz_short.mp3,59,tones/440hz_short.mp3,tone_number_task+empty_block+empty_block,a,1842.5,k,1482.0,True
3.0,1.0,tone_number_task,1175.0,1025.0,tones/880hz_short.mp3,55,tones/880hz_short.mp3,tone_number_task+delay_block+tone_number_task_remaining_before_delay+empty_block,s,736.0,k,904.0,True
3.0,3.0,tone_number_task,1175.0,1025.0,tones/880hz_short.mp3,55,tones/880hz_short.mp3,tone_number_task+delay_block+tone_number_task_remaining_before_delay+empty_block,s,917.0,k,937.0,True
3.0,4.0,tone_number_task,1142.5,992.5,tones/880hz_short.mp3,56,tones/880hz_short.mp3,tone_number_task+delay_block+tone_number_task_remaining_before_delay+empty_block,s,725.0,k,580.0,True
3.0,5.0,tone_number_task,150.0,0.0,tones/440hz_short.mp3,57,tones/440hz_short.mp3,tone_number_task+empty_block+empty_block,s,735.0,k,1310.0,True
3.0,6.0,tone_number_task,150.0,0.0,tones/440hz_short.mp3,38,tones/440hz_short.mp3,tone_number_task+empty_block+empty_block,a,662.0,j,1201.0,True
3.0,8.0,tone_number_task,1175.0,1025.0,tones/880hz_short.mp3,28,tones/880hz_short.mp3,tone_number_task+delay_block+tone_number_task_remaining_before_delay+empty_block,s,853.0,j,575.0,True
3.0,9.0,tone_number_task,150.0,0.0,tones/880hz_short.mp3,64,tones/880hz_short.mp3,tone_number_task+empty_block+empty_block,s,1005.0,k,1587.0,True
3.0,10.0,tone_number_task,252.5,102.5,tones/880hz_short.mp3,46,tones/880hz_short.mp3,tone_number_task+empty_block+empty_block,s,700.5,,,True
3.0,11.0,tone_number_task,252.5,102.5,tones/880hz_short.mp3,21,tones/880hz_short.mp3,tone_number_task+empty_block+empty_block,a,797.5,j,1436.0,True
3.0,12.0,tone_number_task,1142.5,992.5,tones/880hz_short.mp3,61,tones/880hz_short.mp3,tone_number_task+delay_block+tone_number_task_remaining_before_delay+empty_block,a,875.0,k,1100.0,True
3.0,13.0,tone_number_task,150.0,0.0,tones/880hz_short.mp3,31,tones/880hz_short.mp3,tone_number_task+empty_block+empty_block,s,631.0,j,1049.0,True
3.0,14.0,tone_number_task,150.0,0.0,tones/440hz_short.mp3,64,tones/440hz_short.mp3,tone_number_task+empty_block+empty_block,a,1000.0,k,1528.0,True
3.0,15.0,tone_number_task,1142.5,992.5,tones/880hz_short.mp3,31,tones/880hz_short.mp3,tone_number_task+delay_block+tone_number_task_remaining_before_delay+empty_block,s,757.0,j,706.0,True
3.0,16.0,tone_number_task,252.5,102.5,tones/880hz_short.mp3,29,tones/880hz_short.mp3,tone_number_task+empty_block+empty_block,s,661.5,j,1039.0,True
3.0,18.0,tone_number_task,1175.0,1025.0,tones/440hz_short.mp3,62,tones/440hz_short.mp3,tone_number_task+empty_block+empty_block,a,1330.0,k,976.0,True
3.0,19.0,tone_number_task,1175.0,1025.0,tones/880hz_short.mp3,25,tones/880hz_short.mp3,tone_number_task+delay_block+tone_number_task_remaining_before_delay+empty_block,s,544.0,j,631.0,True
3.0,20.0,tone_number_task,1175.0,1025.0,tones/440hz_short.mp3,27,tones/440hz_short.mp3,tone_number_task+delay_block+tone_number_task_remaining_before_delay+empty_block,a,619.0,j,957.0,True
3.0,21.0,tone_number_task,252.5,102.5,tones/880hz_short.mp3,30,tones/880hz_short.mp3,tone_number_task+empty_block+empty_block,s,885.5,j,1263.0,True
3.0,22.0,tone_number_task,1142.5,992.5,tones/880hz_short.mp3,47,tones/880hz_short.mp3,tone_number_task+delay_block+tone_number_task_remaining_before_delay+empty_block,s,683.0,k,724.0,True
3.0,23.0,tone_number_task,150.0,0.0,tones/880hz_short.mp3,65,tones/880hz_short.mp3,tone_number_task+empty_block+empty_block,s,731.0,k,1320.0,True
3.0,24.0,tone_number_task,150.0,0.0,tones/880hz_short.mp3,60,tones/880hz_short.mp3,tone_number_task+empty_block+empty_block,s,609.0,k,1013.0,True
3.0,25.0,tone_number_task,252.5,102.5,tones/880hz_short.mp3,32,tones/880hz_short.mp3,tone_number_task+empty_block+empty_block,s,544.5,j,888.0,True
3.0,26.0,tone_number_task,1142.5,992.5,tones/440hz_short.mp3,25,tones/440hz_short.mp3,tone_number_task+delay_block+tone_number_task_remaining_before_delay+empty_block,a,864.0,j,678.0,True
3.0,27.0,tone_number_task,252.5,102.5,tones/880hz_short.mp3,37,tones/880hz_short.mp3,tone_number_task+empty_block+empty_block,a,1373.5,j,1824.0,True
3.0,28.0,tone_number_task,1142.5,992.5,tones/440hz_short.mp3,32,tones/440hz_short.mp3,tone_number_task+delay_block+tone_number_task_remaining_before_delay+empty_block,a,672.0,j,506.0,True
3.0,29.0,tone_number_task,1175.0,1025.0,tones/440hz_short.mp3,69,tones/440hz_short.mp3,tone_number_task+delay_block+tone_number_task_remaining_before_delay+empty_block,a,811.0,k,677.0,True
3.0,30.0,tone_number_task,1175.0,1025.0,tones/440hz_short.mp3,29,tones/440hz_short.mp3,tone_number_task+delay_block+tone_number_task_remaining_before_delay+empty_block,a,629.0,j,658.0,True
3.0,31.0,tone_number_task,252.5,102.5,tones/440hz_short.mp3,35,tones/440hz_short.mp3,tone_number_task+empty_block+empty_block,a,525.5,j,876.0,True
3.0,32.0,tone_number_task,252.5,102.5,tones/440hz_short.mp3,54,tones/440hz_short.mp3,tone_number_task+empty_block+empty_block,a,562.5,k,1147.0,True
3.0,33.0,tone_number_task,252.5,102.5,tones/440hz_short.mp3,62,tones/440hz_short.mp3,tone_number_task+empty_block+empty_block,a,552.5,k,1014.0,True
3.0,34.0,tone_number_task,1142.5,992.5,tones/440hz_short.mp3,59,tones/440hz_short.mp3,tone_number_task+delay_block+tone_number_task_remaining_before_delay+empty_block,a,747.0,k,640.0,True
3.0,35.0,tone_number_task,1142.5,992.5,tones/440hz_short.mp3,33,tones/440hz_short.mp3,tone_number_task+delay_block+tone_number_task_remaining_before_delay+empty_block,a,619.0,j,601.0,True
3.0,36.0,tone_number_task,1142.5,992.5,tones/440hz_short.mp3,24,tones/440hz_short.mp3,tone_number_task+delay_block+tone_number_task_remaining_before_delay+empty_block,a,576.0,j,579.0,True
3.0,37.0,tone_number_task,150.0,0.0,tones/440hz_short.mp3,42,tones/440hz_short.mp3,tone_number_task+empty_block+empty_block,a,719.0,j,1193.0,True
3.0,38.0,tone_number_task,1175.0,1025.0,tones/880hz_short.mp3,29,tones/880hz_short.mp3,tone_number_task+delay_block+tone_number_task_remaining_before_delay+empty_block,s,661.0,j,719.0,True
3.0,39.0,tone_number_task,1175.0,1025.0,tones/880hz_short.mp3,32,tones/880hz_short.mp3,tone_number_task+delay_block+tone_number_task_remaining_before_delay+empty_block,s,576.0,j,558.0,True
