block,round,task,trial_duration,delay,audioFile,number,stimulus,type,response_1,rt_1,response_2,rt_2,is_word
0.0,0.0,tone_number_task,1142.5,992.5,tones/440hz_short.mp3,58,tones/440hz_short.mp3,tone_number_task+tone_number_task_remaining_after_delay+empty_block,a,1131.0,k,1184.0,False
0.0,1.0,tone_number_task,252.5,102.5,tones/880hz_short.mp3,37,tones/880hz_short.mp3,tone_number_task+empty_block+empty_block,s,1361.5,j,1736.0,False
0.0,2.0,tone_number_task,1175.0,1025.0,tones/440hz_short.mp3,27,tones/440hz_short.mp3,tone_number_task+delay_block+tone_number_task_remaining_before_delay+empty_block,a,712.0,j,826.0,False
0.0,3.0,tone_number_task,252.5,102.5,tones/880hz_short.mp3,62,tones/880hz_short.mp3,tone_number_task+empty_block+empty_block,s,1447.5,k,1853.0,False
0.0,4.0,tone_number_task,1175.0,1025.0,tones/880hz_short.mp3,52,tones/880hz_short.mp3,tone_number_task+tone_number_task_remaining_after_delay+empty_block,s,1040.0,k,704.0,False
0.0,5.0,tone_number_task,1175.0,1025.0,tones/440hz_short.mp3,64,tones/440hz_short.mp3,tone_number_task+tone_number_task_remaining_after_delay+empty_block,a,1091.0,k,733.0,False
0.0,6.0,tone_number_task,252.5,102.5,tones/440hz_short.mp3,23,tones/440hz_short.mp3,tone_number_task+empty_block+empty_block,a,546.5,j,1092.0,False
0.0,7.0,tone_number_task,252.5,102.5,tones/880hz_short.mp3,22,tones/880hz_short.mp3,tone_number_task+empty_block+empty_block,a,835.5,j,1457.0,False
0.0,8.0,tone_number_task,1142.5,992.5,tones/440hz_short.mp3,24,tones/440hz_short.mp3,tone_number_task+empty_block+empty_block,a,1340.5,j,1053.0,False
0.0,9.0,tone_number_task,1142.5,992.5,tones/440hz_short.mp3,56,tones/440hz_short.mp3,tone_number_task+empty_block+empty_block,a,1245.5,k,838.0,False
0.0,10.0,tone_number_task,150.0,0.0,tones/880hz_short.mp3,59,tones/880hz_short.mp3,tone_number_task+empty_block+empty_block,s,1347.0,k,2107.0,False
0.0,13.0,tone_number_task,150.0,0.0,tones/880hz_short.mp3,65,tones/880hz_short.mp3,tone_number_task+empty_block+empty_block,s,1354.0,k,1907.0,False
0.0,15.0,tone_number_task,150.0,0.0,tones/440hz_short.mp3,40,tones/440hz_short.mp3,tone_number_task+empty_block+empty_block,a,1169.0,j,1839.0,False
0.0,16.0,tone_number_task,1142.5,992.5,tones/880hz_short.mp3,64,tones/880hz_short.mp3,tone_number_task+empty_block+empty_block,s,1198.5,k,844.0,False
0.0,17.0,tone_number_task,1175.0,1025.0,tones/880hz_short.mp3,32,tones/880hz_short.mp3,tone_number_task+delay_block+tone_number_task_remaining_before_delay+empty_block,s,771.0,,,False
0.0,18.0,tone_number_task,1142.5,992.5,tones/440hz_short.mp3,44,tones/440hz_short.mp3,tone_number_task+empty_block+empty_block,a,1568.5,j,1365.0,False
0.0,19.0,tone_number_task,1175.0,1025.0,tones/880hz_short.mp3,54,tones/880hz_short.mp3,tone_number_task+empty_block+empty_block,s,1499.0,k,1104.0,False
0.0,20.0,tone_number_task,1175.0,1025.0,tones/440hz_short.mp3,55,tones/440hz_short.mp3,tone_number_task+delay_block+tone_number_task_remaining_before_delay+empty_block,a,989.0,k,688.0,False
0.0,21.0,tone_number_task,252.5,102.5,tones/880hz_short.mp3,35,tones/880hz_short.mp3,tone_number_task+empty_block+empty_block,s,1450.5,j,1978.0,False
0.0,22.0,tone_number_task,252.5,102.5,tones/880hz_short.mp3,52,tones/880hz_short.mp3,tone_number_task+empty_block+empty_block,s,1283.5,k,1712.0,False
0.0,24.0,tone_number_task,1175.0,1025.0,tones/880hz_short.mp3,40,tones/880hz_short.mp3,tone_number_task+empty_block+empty_block,s,2157.0,j,1564.0,False
0.0,25.0,tone_number_task,1142.5,992.5,tones/880hz_short.mp3,58,tones/880hz_short.mp3,tone_number_task+delay_block+tone_number_task_remaining_before_delay+empty_block,s,979.0,k,1296.0,False
0.0,26.0,tone_number_task,150.0,0.0,tones/880hz_short.mp3,56,tones/880hz_short.mp3,tone_number_task+empty_block+empty_block,s,866.0,k,1548.0,False
0.0,28.0,tone_number_task,252.5,102.5,tones/440hz_short.mp3,47,tones/440hz_short.mp3,tone_number_task+empty_block+empty_block,,,,,False
0.0,29.0,tone_number_task,1175.0,1025.0,tones/880hz_short.mp3,66,tones/880hz_short.mp3,tone_number_task+tone_number_task_remaining_after_delay+empty_block,s,1109.0,k,571.0,False
0.0,30.0,tone_number_task,150.0,0.0,tones/880hz_short.mp3,47,tones/880hz_short.mp3,tone_number_task+empty_block+empty_block,s,935.0,k,1329.0,False
0.0,31.0,tone_number_task,1142.5,992.5,tones/440hz_short.mp3,54,tones/440hz_short.mp3,tone_number_task+empty_block+empty_block,a,2303.5,k,1768.0,False
0.0,32.0,tone_number_task,252.5,102.5,tones/880hz_short.mp3,44,tones/880hz_short.mp3,tone_number_task+empty_block+empty_block,s,1149.5,j,1889.0,False
0.0,33.0,tone_number_task,1175.0,1025.0,tones/440hz_short.mp3,52,tones/440hz_short.mp3,tone_number_task+empty_block+empty_block,a,1196.0,k,742.0,False
0.0,34.0,tone_number_task,1142.5,992.5,tones/880hz_short.mp3,39,tones/880hz_short.mp3,tone_number_task+empty_block+empty_block,s,1383.5,j,974.0,False
0.0,35.0,tone_number_task,150.0,0.0,tones/440hz_short.mp3,59,tones/440hz_short.mp3,tone_number_task+empty_block+empty_block,,,,,False
0.0,37.0,tone_number_task,1142.5,992.5,tones/440hz_short.mp3,37,tones/440hz_short.mp3,tone_number_task+tone_number_task_remaining_after_delay+empty_block,a,1069.0,j,702.0,False
0.0,38.0,tone_number_task,150.0,0.0,tones/880hz_short.mp3,69,tones/880hz_short.mp3,tone_number_task+empty_block+empty_block,s,888.0,k,1450.0,False
0.0,39.0,tone_number_task,1175.0,1025.0,tones/440hz_short.mp3,31,tones/440hz_short.mp3,tone_number_task+empty_block+empty_block,a,1574.0,j,1097.0,False
1.0,0.0,tone_number_task,252.5,102.5,tones/440hz_short.mp3,38,tones/440hz_short.mp3,tone_number_task+empty_block+empty_block,a,1060.5,j,1432.0,False
1.0,2.0,tone_number_task,1175.0,1025.0,tones/440hz_short.mp3,55,tones/440hz_short.mp3,tone_number_task+delay_block+tone_number_task_remaining_before_delay+empty_block,a,869.0,k,658.0,False
1.0,3.0,tone_number_task,1175.0,1025.0,tones/440hz_short.mp3,30,tones/440hz_short.mp3,tone_number_task+delay_block+tone_number_task_remaining_before_delay+empty_block,a,1000.0,j,864.0,False
1.0,4.0,tone_number_task,1175.0,1025.0,tones/880hz_short.mp3,65,tones/880hz_short.mp3,tone_number_task+delay_block+tone_number_task_remaining_before_delay+empty_block,s,840.0,k,448.0,False
1.0,5.0,tone_number_task,1175.0,1025.0,tones/880hz_short.mp3,59,tones/880hz_short.mp3,tone_number_task+empty_block+empty_block,s,1270.0,k,761.0,False
1.0,6.0,tone_number_task,1142.5,992.5,tones/880hz_short.mp3,36,tones/880hz_short.mp3,tone_number_task+empty_block+empty_block,s,1327.5,j,852.0,False
1.0,7.0,tone_number_task,1142.5,992.5,tones/880hz_short.mp3,43,tones/880hz_short.mp3,tone_number_task+tone_number_task_remaining_after_delay+empty_block,s,1029.0,,,False
1.0,8.0,tone_number_task,1175.0,1025.0,tones/880hz_short.mp3,21,tones/880hz_short.mp3,tone_number_task+empty_block+empty_block,a,1661.0,,,False
1.0,10.0,tone_number_task,1142.5,992.5,tones/880hz_short.mp3,55,tones/880hz_short.mp3,tone_number_task+empty_block+empty_block,s,1196.5,k,903.0,False
1.0,11.0,tone_number_task,1142.5,992.5,tones/440hz_short.mp3,46,tones/440hz_short.mp3,tone_number_task+empty_block+empty_block,a,2273.5,k,1872.0,False
1.0,14.0,tone_number_task,252.5,102.5,tones/440hz_short.mp3,23,tones/440hz_short.mp3,tone_number_task+empty_block+empty_block,a,1326.5,j,1767.0,False
1.0,15.0,tone_number_task,150.0,0.0,tones/440hz_short.mp3,33,tones/440hz_short.mp3,tone_number_task+empty_block+empty_block,a,1150.0,,,False
1.0,16.0,tone_number_task,1142.5,992.5,tones/440hz_short.mp3,64,tones/440hz_short.mp3,tone_number_task+delay_block+tone_number_task_remaining_before_delay+empty_block,a,680.0,j,305.0,False
1.0,17.0,tone_number_task,252.5,102.5,tones/880hz_short.mp3,59,tones/880hz_short.mp3,tone_number_task+empty_block+empty_block,a,1191.5,k,2193.0,False
1.0,19.0,tone_number_task,1175.0,1025.0,tones/880hz_short.mp3,40,tones/880hz_short.mp3,tone_number_task+empty_block+empty_block,s,1626.0,,,False
1.0,21.0,tone_number_task,1142.5,992.5,tones/880hz_short.mp3,39,tones/880hz_short.mp3,tone_number_task+empty_block+empty_block,a,1764.5,k,1264.0,False
1.0,22.0,tone_number_task,252.5,102.5,tones/440hz_short.mp3,50,tones/440hz_short.mp3,tone_number_task+empty_block+empty_block,a,1362.5,j,1658.0,False
1.0,23.0,tone_number_task,252.5,102.5,tones/440hz_short.mp3,39,tones/440hz_short.mp3,tone_number_task+empty_block+empty_block,a,1128.5,j,1655.0,False
1.0,24.0,tone_number_task,1142.5,992.5,tones/880hz_short.mp3,51,tones/880hz_short.mp3,tone_number_task+empty_block+empty_block,s,1399.5,k,1104.0,False
1.0,26.0,tone_number_task,1175.0,1025.0,tones/440hz_short.mp3,69,tones/440hz_short.mp3,tone_number_task+empty_block+empty_block,a,1405.0,k,1048.0,False
1.0,27.0,tone_number_task,1142.5,992.5,tones/880hz_short.mp3,68,tones/880hz_short.mp3,tone_number_task+tone_number_task_remaining_after_delay+empty_block,s,1059.0,k,680.0,False
1.0,28.0,tone_number_task,252.5,102.5,tones/880hz_short.mp3,24,tones/880hz_short.mp3,tone_number_task+empty_block+empty_block,a,1086.5,j,1455.0,False
1.0,31.0,tone_number_task,252.5,102.5,tones/880hz_short.mp3,28,tones/880hz_short.mp3,tone_number_task+empty_block+empty_block,s,1377.5,j,1751.0,False
1.0,33.0,tone_number_task,252.5,102.5,tones/880hz_short.mp3,69,tones/880hz_short.mp3,tone_number_task+empty_block+empty_block,s,1244.5,k,1495.0,False
1.0,34.0,tone_number_task,1175.0,1025.0,tones/880hz_short.mp3,24,tones/880hz_short.mp3,tone_number_task+empty_block+empty_block,s,1323.0,j,683.0,False
1.0,35.0,tone_number_task,150.0,0.0,tones/880hz_short.mp3,22,tones/880hz_short.mp3,tone_number_task+empty_block+empty_block,s,854.0,j,1254.0,False
1.0,36.0,tone_number_task,1142.5,992.5,tones/440hz_short.mp3,29,tones/440hz_short.mp3,tone_number_task+empty_block+empty_block,a,1237.5,j,1189.0,False
1.0,37.0,tone_number_task,1175.0,1025.0,tones/880hz_short.mp3,68,tones/880hz_short.mp3,tone_number_task+empty_block+empty_block,s,1263.0,k,685.0,False
1.0,38.0,tone_number_task,1142.5,992.5,tones/880hz_short.mp3,54,tones/880hz_short.mp3,tone_number_task+empty_block+empty_block,s,1880.5,k,1187.0,False
1.0,39.0,tone_number_task,252.5,102.5,tones/440hz_short.mp3,55,tones/440hz_short.mp3,tone_number_task+empty_block+empty_block,a,1089.5,k,1453.0,False
2.0,0.0,tone_number_task,150.0,0.0,tones/440hz_short.mp3,60,tones/440hz_short.mp3,tone_number_task+empty_block+empty_block,,,k,,True
2.0,1.0,tone_number_task,1142.5,992.5,tones/440hz_short.mp3,34,tones/440hz_short.mp3,tone_number_task+empty_block+empty_block,a,1239.5,,,True
2.0,2.0,tone_number_task,1175.0,1025.0,tones/880hz_short.mp3,50,tones/880hz_short.mp3,tone_number_task+delay_block+tone_number_task_remaining_before_delay+empty_block,s,891.0,,,True
2.0,3.0,tone_number_task,1175.0,1025.0,tones/880hz_short.mp3,38,tones/880hz_short.mp3,tone_number_task+empty_block+empty_block,s,1277.0,,,True
2.0,4.0,tone_number_task,1175.0,1025.0,tones/440hz_short.mp3,39,tones/440hz_short.mp3,tone_number_task+empty_block+empty_block,a,1206.0,j,1151.0,True
2.0,5.0,tone_number_task,252.5,102.5,tones/440hz_short.mp3,67,tones/440hz_short.mp3,tone_number_task+empty_block+empty_block,a,798.5,k,1361.0,True
2.0,6.0,tone_number_task,1142.5,992.5,tones/440hz_short.mp3,49,tones/440hz_short.mp3,tone_number_task+empty_block+empty_block,a,1231.5,k,1156.0,True
2.0,7.0,tone_number_task,252.5,102.5,tones/880hz_short.mp3,63,tones/880hz_short.mp3,tone_number_task+empty_block+empty_block,s,788.5,k,1440.0,True
2.0,8.0,tone_number_task,1142.5,992.5,tones/880hz_short.mp3,23,tones/880hz_short.mp3,tone_number_task+empty_block+empty_block,s,1741.5,j,1495.0,True
2.0,10.0,tone_number_task,252.5,102.5,tones/880hz_short.mp3,57,tones/880hz_short.mp3,tone_number_task+empty_block+empty_block,s,1086.5,k,1625.0,True
2.0,12.0,tone_number_task,1175.0,1025.0,tones/440hz_short.mp3,53,tones/440hz_short.mp3,tone_number_task+empty_block+empty_block,a,1284.0,k,949.0,True
2.0,15.0,tone_number_task,1142.5,992.5,tones/440hz_short.mp3,64,tones/440hz_short.mp3,tone_number_task+tone_number_task_remaining_after_delay+empty_block,a,1088.0,k,1060.0,True
2.0,16.0,tone_number_task,1175.0,1025.0,tones/880hz_short.mp3,62,tones/880hz_short.mp3,tone_number_task+tone_number_task_remaining_after_delay+empty_block,s,1160.0,,,True
2.0,17.0,tone_number_task,150.0,0.0,tones/880hz_short.mp3,38,tones/880hz_short.mp3,tone_number_task+empty_block+empty_block,,,,,True
2.0,18.0,tone_number_task,1142.5,992.5,tones/880hz_short.mp3,57,tones/880hz_short.mp3,tone_number_task+tone_number_task_remaining_after_delay+empty_block,s,1072.0,k,1124.0,True
2.0,19.0,tone_number_task,1175.0,1025.0,tones/880hz_short.mp3,49,tones/880hz_short.mp3,tone_number_task+empty_block+empty_block,s,1801.0,k,1821.0,True
2.0,21.0,tone_number_task,1175.0,1025.0,tones/440hz_short.mp3,29,tones/440hz_short.mp3,tone_number_task+empty_block+empty_block,a,1630.0,j,1231.0,True
2.0,23.0,tone_number_task,1175.0,1025.0,tones/440hz_short.mp3,53,tones/440hz_short.mp3,tone_number_task+empty_block+empty_block,a,1259.0,k,910.0,True
2.0,24.0,tone_number_task,1175.0,1025.0,tones/440hz_short.mp3,54,tones/440hz_short.mp3,tone_number_task+empty_block+empty_block,a,1727.0,k,1787.0,True
2.0,25.0,tone_number_task,150.0,0.0,tones/440hz_short.mp3,64,tones/440hz_short.mp3,tone_number_task+empty_block+empty_block,a,1229.0,k,1796.0,True
2.0,26.0,tone_number_task,252.5,102.5,tones/440hz_short.mp3,63,tones/440hz_short.mp3,tone_number_task+empty_block+empty_block,a,1082.5,k,1481.0,True
2.0,28.0,tone_number_task,252.5,102.5,tones/880hz_short.mp3,55,tones/880hz_short.mp3,tone_number_task+empty_block+empty_block,a,898.5,,,True
2.0,29.0,tone_number_task,252.5,102.5,tones/880hz_short.mp3,51,tones/880hz_short.mp3,tone_number_task+empty_block+empty_block,s,1146.5,k,1598.0,True
2.0,30.0,tone_number_task,1142.5,992.5,tones/880hz_short.mp3,59,tones/880hz_short.mp3,tone_number_task+empty_block+empty_block,s,1204.5,k,798.0,True
2.0,34.0,tone_number_task,1142.5,992.5,tones/880hz_short.mp3,52,tones/880hz_short.mp3,tone_number_task+empty_block+empty_block,s,1522.5,k,1154.0,True
2.0,36.0,tone_number_task,252.5,102.5,tones/880hz_short.mp3,33,tones/880hz_short.mp3,tone_number_task+empty_block+empty_block,a,1282.5,j,1851.0,True
2.0,37.0,tone_number_task,1142.5,992.5,tones/880hz_short.mp3,24,tones/880hz_short.mp3,tone_number_task+empty_block+empty_block,s,1431.5,j,988.0,True
2.0,39.0,tone_number_task,1175.0,1025.0,tones/440hz_short.mp3,29,tones/440hz_short.mp3,tone_number_task+empty_block+empty_block,a,1336.0,j,915.0,True
3.0,0.0,tone_number_task,1142.5,992.5,tones/440hz_short.mp3,40,tones/440hz_short.mp3,tone_number_task+delay_block+tone_number_task_remaining_before_delay+empty_block,a,701.0,j,1238.0,True
3.0,1.0,tone_number_task,150.0,0.0,tones/440hz_short.mp3,50,tones/440hz_short.mp3,tone_number_task+empty_block+empty_block,a,982.0,j,1757.0,True
3.0,2.0,tone_number_task,1175.0,1025.0,tones/880hz_short.mp3,26,tones/880hz_short.mp3,tone_number_task+tone_number_task_remaining_after_delay+empty_block,s,1051.0,j,908.0,True
3.0,3.0,tone_number_task,1175.0,1025.0,tones/880hz_short.mp3,35,tones/880hz_short.mp3,tone_number_task+delay_block+tone_number_task_remaining_before_delay+empty_block,s,949.0,j,910.0,True
3.0,4.0,tone_number_task,1175.0,1025.0,tones/880hz_short.mp3,58,tones/880hz_short.mp3,tone_number_task+tone_number_task_remaining_after_delay+empty_block,s,1051.0,k,847.0,True
3.0,5.0,tone_number_task,252.5,102.5,tones/880hz_short.mp3,60,tones/880hz_short.mp3,tone_number_task+empty_block+empty_block,s,764.5,k,1390.0,True
3.0,6.0,tone_number_task,1142.5,992.5,tones/440hz_short.mp3,63,tones/440hz_short.mp3,tone_number_task+tone_number_task_remaining_after_delay+empty_block,a,1069.0,,,True
3.0,7.0,tone_number_task,1142.5,992.5,tones/880hz_short.mp3,46,tones/880hz_short.mp3,tone_number_task+empty_block+empty_block,s,1952.5,,,True
3.0,8.0,tone_number_task,1175.0,1025.0,tones/440hz_short.mp3,68,tones/440hz_short.mp3,tone_number_task+tone_number_task_remaining_after_delay+empty_block,a,1128.0,k,823.0,True
3.0,10.0,tone_number_task,1142.5,992.5,tones/440hz_short.mp3,62,tones/440hz_short.mp3,tone_number_task+delay_block+tone_number_task_remaining_before_delay+empty_block,a,872.0,k,853.0,True
3.0,11.0,tone_number_task,1142.5,992.5,tones/880hz_short.mp3,66,tones/880hz_short.mp3,tone_number_task+empty_block+empty_block,s,1472.5,k,1189.0,True
3.0,15.0,tone_number_task,1142.5,992.5,tones/440hz_short.mp3,48,tones/440hz_short.mp3,tone_number_task+empty_block+empty_block,a,1658.5,k,1344.0,True
3.0,16.0,tone_number_task,1175.0,1025.0,tones/440hz_short.mp3,29,tones/440hz_short.mp3,tone_number_task+tone_number_task_remaining_after_delay+empty_block,a,1061.0,j,757.0,True
3.0,17.0,tone_number_task,150.0,0.0,tones/440hz_short.mp3,30,tones/440hz_short.mp3,tone_number_task+empty_block+empty_block,a,899.0,j,1480.0,True
3.0,18.0,tone_number_task,1175.0,1025.0,tones/880hz_short.mp3,54,tones/880hz_short.mp3,tone_number_task+empty_block+empty_block,s,1558.0,k,1281.0,True
3.0,20.0,tone_number_task,1175.0,1025.0,tones/440hz_short.mp3,40,tones/440hz_short.mp3,tone_number_task+empty_block+empty_block,a,2267.0,j,1661.0,True
3.0,21.0,tone_number_task,1175.0,1025.0,tones/880hz_short.mp3,62,tones/880hz_short.mp3,tone_number_task+empty_block+empty_block,s,1520.0,k,949.0,True
3.0,22.0,tone_number_task,252.5,102.5,tones/880hz_short.mp3,60,tones/880hz_short.mp3,tone_number_task+empty_block+empty_block,s,963.5,k,1409.0,True
3.0,23.0,tone_number_task,1142.5,992.5,tones/440hz_short.mp3,41,tones/440hz_short.mp3,tone_number_task+empty_block+empty_block,a,1690.5,k,1421.0,True
3.0,24.0,tone_number_task,1175.0,1025.0,tones/880hz_short.mp3,67,tones/880hz_short.mp3,tone_number_task+delay_block+tone_number_task_remaining_before_delay+empty_block,s,939.0,k,691.0,True
3.0,25.0,tone_number_task,252.5,102.5,tones/880hz_short.mp3,59,tones/880hz_short.mp3,tone_number_task+empty_block+empty_block,s,1040.5,k,1379.0,True
3.0,26.0,tone_number_task,1142.5,992.5,tones/440hz_short.mp3,49,tones/440hz_short.mp3,tone_number_task+empty_block+empty_block,a,1568.5,,,True
3.0,27.0,tone_number_task,252.5,102.5,tones/880hz_short.mp3,60,tones/880hz_short.mp3,tone_number_task+empty_block+empty_block,s,1381.5,k,1704.0,True
3.0,31.0,tone_number_task,1142.5,992.5,tones/880hz_short.mp3,27,tones/880hz_short.mp3,tone_number_task+tone_number_task_remaining_after_delay+empty_block,s,1109.0,j,687.0,True
3.0,32.0,tone_number_task,1142.5,992.5,tones/880hz_short.mp3,53,tones/880hz_short.mp3,tone_number_task+empty_block+empty_block,s,1504.5,k,1090.0,True
3.0,34.0,tone_number_task,252.5,102.5,tones/880hz_short.mp3,42,tones/880hz_short.mp3,tone_number_task+empty_block+empty_block,,,,,True
3.0,37.0,tone_number_task,252.5,102.5,tones/440hz_short.mp3,43,tones/440hz_short.mp3,tone_number_task+empty_block+empty_block,a,1411.5,k,1782.0,True
3.0,38.0,tone_number_task,1175.0,1025.0,tones/440hz_short.mp3,65,tones/440hz_short.mp3,tone_number_task+empty_block+empty_block,a,1610.0,k,1362.0,True
3.0,39.0,tone_number_task,150.0,0.0,tones/880hz_short.mp3,65,tones/880hz_short.mp3,tone_number_task+empty_block+empty_block,a,829.0,k,1823.0,True
