block,round,task,trial_duration,delay,audioFile,number,stimulus,type,response_1,rt_1,response_2,rt_2
0.0,0.0,tone_number_task,1175.0,1025.0,tones/440hz_short.mp3,48,tones/440hz_short.mp3,tone_number_task+tone_number_task_remaining_after_delay+empty_block,a,1048.0,,
0.0,1.0,tone_number_task,1142.5,992.5,tones/440hz_short.mp3,22,tones/440hz_short.mp3,tone_number_task+delay_block+tone_number_task_remaining_before_delay+empty_block,a,539.0,j,699.0
0.0,2.0,tone_number_task,1142.5,992.5,tones/880hz_short.mp3,31,tones/880hz_short.mp3,tone_number_task+empty_block+empty_block,s,1809.5,j,1429.0
0.0,3.0,tone_number_task,150.0,0.0,tones/440hz_short.mp3,66,tones/440hz_short.mp3,tone_number_task+empty_block+empty_block,a,1059.0,k,1480.0
0.0,4.0,tone_number_task,1175.0,1025.0,tones/880hz_short.mp3,38,tones/880hz_short.mp3,tone_number_task+empty_block+empty_block,s,1261.0,j,846.0
0.0,6.0,tone_number_task,1175.0,1025.0,tones/440hz_short.mp3,30,tones/440hz_short.mp3,tone_number_task+tone_number_task_remaining_after_delay+empty_block,a,1131.0,,
0.0,7.0,tone_number_task,252.5,102.5,tones/440hz_short.mp3,46,tones/440hz_short.mp3,tone_number_task+empty_block+empty_block,a,780.5,k,1054.0
0.0,8.0,tone_number_task,1142.5,992.5,tones/880hz_short.mp3,37,tones/880hz_short.mp3,tone_number_task+tone_number_task_remaining_after_delay+empty_block,s,1059.0,j,683.0
0.0,9.0,tone_number_task,252.5,102.5,tones/880hz_short.mp3,21,tones/880hz_short.mp3,tone_number_task+empty_block+empty_block,s,1328.5,j,1652.0
0.0,10.0,tone_number_task,1175.0,1025.0,tones/880hz_short.mp3,26,tones/880hz_short.mp3,tone_number_task+delay_block+tone_number_task_remaining_before_delay+empty_block,s,989.0,j,631.0
0.0,11.0,tone_number_task,150.0,0.0,tones/440hz_short.mp3,66,tones/440hz_short.mp3,tone_number_task+empty_block+empty_block,a,800.0,k,1239.0
0.0,12.0,tone_number_task,1175.0,1025.0,tones/440hz_short.mp3,26,tones/440hz_short.mp3,tone_number_task+delay_block+tone_number_task_remaining_before_delay+empty_block,a,789.0,j,1144.0
0.0,13.0,tone_number_task,252.5,102.5,tones/440hz_short.mp3,59,tones/440hz_short.mp3,tone_number_task+empty_block+empty_block,a,1129.5,k,1533.0
0.0,14.0,tone_number_task,1175.0,1025.0,tones/880hz_short.mp3,42,tones/880hz_short.mp3,tone_number_task+empty_block+empty_block,s,1507.0,j,1368.0
0.0,15.0,tone_number_task,150.0,0.0,tones/440hz_short.mp3,38,tones/440hz_short.mp3,tone_number_task+empty_block+empty_block,a,1081.0,j,1813.0
0.0,16.0,tone_number_task,150.0,0.0,tones/880hz_short.mp3,67,tones/880hz_short.mp3,tone_number_task+empty_block+empty_block,s,754.0,k,1508.0
0.0,18.0,tone_number_task,252.5,102.5,tones/440hz_short.mp3,40,tones/440hz_short.mp3,tone_number_task+empty_block+empty_block,a,1166.5,j,1550.0
0.0,19.0,tone_number_task,150.0,0.0,tones/440hz_short.mp3,32,tones/440hz_short.mp3,tone_number_task+empty_block+empty_block,a,986.0,j,1334.0
0.0,20.0,tone_number_task,1142.5,992.5,tones/440hz_short.mp3,49,tones/440hz_short.mp3,tone_number_task+delay_block+tone_number_task_remaining_before_delay+empty_block,a,691.0,k,1167.0
0.0,21.0,tone_number_task,252.5,102.5,tones/440hz_short.mp3,28,tones/440hz_short.mp3,tone_number_task+empty_block+empty_block,a,955.5,j,1192.0
0.0,22.0,tone_number_task,1175.0,1025.0,tones/440hz_short.mp3,33,tones/440hz_short.mp3,tone_number_task+delay_block+tone_number_task_remaining_before_delay+empty_block,a,680.0,j,867.0
0.0,23.0,tone_number_task,1142.5,992.5,tones/440hz_short.mp3,52,tones/440hz_short.mp3,tone_number_task+delay_block+tone_number_task_remaining_before_delay+empty_block,a,880.0,,
0.0,25.0,tone_number_task,150.0,0.0,tones/880hz_short.mp3,24,tones/880hz_short.mp3,tone_number_task+empty_block+empty_block,s,1127.0,j,1454.0
0.0,26.0,tone_number_task,1142.5,992.5,tones/880hz_short.mp3,56,tones/880hz_short.mp3,tone_number_task+delay_block+tone_number_task_remaining_before_delay+empty_block,s,709.0,k,1246.0
0.0,27.0,tone_number_task,1142.5,992.5,tones/880hz_short.mp3,40,tones/880hz_short.mp3,tone_number_task+delay_block+tone_number_task_remaining_before_delay+empty_block,s,779.0,j,1011.0
0.0,28.0,tone_number_task,1175.0,1025.0,tones/880hz_short.mp3,69,tones/880hz_short.mp3,tone_number_task+delay_block+tone_number_task_remaining_before_delay+empty_block,s,531.0,k,947.0
0.0,29.0,tone_number_task,1175.0,1025.0,tones/880hz_short.mp3,48,tones/880hz_short.mp3,tone_number_task+empty_block+empty_block,s,1504.0,,
0.0,30.0,tone_number_task,1142.5,992.5,tones/440hz_short.mp3,58,tones/440hz_short.mp3,tone_number_task+delay_block+tone_number_task_remaining_before_delay+empty_block,a,768.0,j,665.0
0.0,33.0,tone_number_task,252.5,102.5,tones/440hz_short.mp3,38,tones/440hz_short.mp3,tone_number_task+empty_block+empty_block,a,1346.5,j,1603.0
0.0,34.0,tone_number_task,1175.0,1025.0,tones/440hz_short.mp3,21,tones/440hz_short.mp3,tone_number_task+delay_block+tone_number_task_remaining_before_delay+empty_block,a,792.0,j,785.0
0.0,35.0,tone_number_task,252.5,102.5,tones/440hz_short.mp3,24,tones/440hz_short.mp3,tone_number_task+empty_block+empty_block,a,1040.5,j,1292.0
0.0,36.0,tone_number_task,1142.5,992.5,tones/440hz_short.mp3,28,tones/440hz_short.mp3,tone_number_task+delay_block+tone_number_task_remaining_before_delay+empty_block,a,651.0,j,601.0
0.0,37.0,tone_number_task,252.5,102.5,tones/880hz_short.mp3,42,tones/880hz_short.mp3,tone_number_task+empty_block+empty_block,a,1276.5,j,1833.0
0.0,38.0,tone_number_task,1142.5,992.5,tones/880hz_short.mp3,65,tones/880hz_short.mp3,tone_number_task+delay_block+tone_number_task_remaining_before_delay+empty_block,s,971.0,k,1054.0
0.0,39.0,tone_number_task,150.0,0.0,tones/880hz_short.mp3,68,tones/880hz_short.mp3,tone_number_task+empty_block+empty_block,s,1199.0,k,2168.0
1.0,0.0,tone_number_task,252.5,102.5,tones/880hz_short.mp3,57,tones/880hz_short.mp3,tone_number_task+empty_block+empty_block,s,1348.5,k,1805.0
1.0,1.0,tone_number_task,150.0,0.0,tones/880hz_short.mp3,47,tones/880hz_short.mp3,tone_number_task+empty_block+empty_block,s,1000.0,,
1.0,2.0,tone_number_task,1175.0,1025.0,tones/880hz_short.mp3,52,tones/880hz_short.mp3,tone_number_task+delay_block+tone_number_task_remaining_before_delay+empty_block,s,987.0,k,1259.0
1.0,3.0,tone_number_task,1175.0,1025.0,tones/880hz_short.mp3,66,tones/880hz_short.mp3,tone_number_task+delay_block+tone_number_task_remaining_before_delay+empty_block,s,792.0,k,734.0
1.0,4.0,tone_number_task,1175.0,1025.0,tones/440hz_short.mp3,39,tones/440hz_short.mp3,tone_number_task+delay_block+tone_number_task_remaining_before_delay+empty_block,a,640.0,j,862.0
1.0,5.0,tone_number_task,150.0,0.0,tones/880hz_short.mp3,41,tones/880hz_short.mp3,tone_number_task+empty_block+empty_block,s,575.0,,
1.0,6.0,tone_number_task,150.0,0.0,tones/440hz_short.mp3,22,tones/440hz_short.mp3,tone_number_task+empty_block+empty_block,a,900.0,j,1300.0
1.0,7.0,tone_number_task,1175.0,1025.0,tones/440hz_short.mp3,56,tones/440hz_short.mp3,tone_number_task+delay_block+tone_number_task_remaining_before_delay+empty_block,a,741.0,k,753.0
1.0,8.0,tone_number_task,150.0,0.0,tones/440hz_short.mp3,27,tones/440hz_short.mp3,tone_number_task+empty_block+empty_block,a,1080.0,j,1441.0
1.0,9.0,tone_number_task,1175.0,1025.0,tones/440hz_short.mp3,30,tones/440hz_short.mp3,tone_number_task+delay_block+tone_number_task_remaining_before_delay+empty_block,a,771.0,j,1185.0
1.0,10.0,tone_number_task,150.0,0.0,tones/440hz_short.mp3,66,tones/440hz_short.mp3,tone_number_task+empty_block+empty_block,a,892.0,k,1304.0
1.0,11.0,tone_number_task,1142.5,992.5,tones/880hz_short.mp3,36,tones/880hz_short.mp3,tone_number_task+delay_block+tone_number_task_remaining_before_delay+empty_block,s,669.0,j,923.0
1.0,12.0,tone_number_task,1142.5,992.5,tones/440hz_short.mp3,48,tones/440hz_short.mp3,tone_number_task+delay_block+tone_number_task_remaining_before_delay+empty_block,a,912.0,k,1085.0
1.0,13.0,tone_number_task,252.5,102.5,tones/880hz_short.mp3,58,tones/880hz_short.mp3,tone_number_task+empty_block+empty_block,s,1256.5,k,1611.0
1.0,15.0,tone_number_task,150.0,0.0,tones/880hz_short.mp3,60,tones/880hz_short.mp3,tone_number_task+empty_block+empty_block,s,1270.0,k,1629.0
1.0,16.0,tone_number_task,1142.5,992.5,tones/440hz_short.mp3,51,tones/440hz_short.mp3,tone_number_task+delay_block+tone_number_task_remaining_before_delay+empty_block,a,771.0,k,896.0
1.0,17.0,tone_number_task,150.0,0.0,tones/880hz_short.mp3,29,tones/880hz_short.mp3,tone_number_task+empty_block+empty_block,a,1029.0,j,1740.0
1.0,19.0,tone_number_task,252.5,102.5,tones/440hz_short.mp3,25,tones/440hz_short.mp3,tone_number_task+empty_block+empty_block,a,1007.5,j,1223.0
1.0,21.0,tone_number_task,1142.5,992.5,tones/440hz_short.mp3,47,tones/440hz_short.mp3,tone_number_task+delay_block+tone_number_task_remaining_before_delay+empty_block,a,640.0,k,794.0
1.0,22.0,tone_number_task,252.5,102.5,tones/880hz_short.mp3,26,tones/880hz_short.mp3,tone_number_task+empty_block+empty_block,s,1219.5,j,1416.0
1.0,23.0,tone_number_task,252.5,102.5,tones/880hz_short.mp3,46,tones/880hz_short.mp3,tone_number_task+empty_block+empty_block,s,917.5,k,1913.0
1.0,24.0,tone_number_task,1142.5,992.5,tones/880hz_short.mp3,44,tones/880hz_short.mp3,tone_number_task+tone_number_task_remaining_after_delay+empty_block,s,1109.0,j,949.0
1.0,25.0,tone_number_task,1175.0,1025.0,tones/880hz_short.mp3,69,tones/880hz_short.mp3,tone_number_task+tone_number_task_remaining_after_delay+empty_block,s,1141.0,k,1268.0
1.0,26.0,tone_number_task,150.0,0.0,tones/440hz_short.mp3,30,tones/440hz_short.mp3,tone_number_task+empty_block+empty_block,a,902.0,,
1.0,27.0,tone_number_task,1142.5,992.5,tones/440hz_short.mp3,31,tones/440hz_short.mp3,tone_number_task+delay_block+tone_number_task_remaining_before_delay+empty_block,a,819.0,j,823.0
1.0,29.0,tone_number_task,1142.5,992.5,tones/440hz_short.mp3,32,tones/440hz_short.mp3,tone_number_task+empty_block+empty_block,a,1163.5,j,1105.0
1.0,30.0,tone_number_task,1142.5,992.5,tones/440hz_short.mp3,60,tones/440hz_short.mp3,tone_number_task+delay_block+tone_number_task_remaining_before_delay+empty_block,a,891.0,k,664.0
1.0,31.0,tone_number_task,1175.0,1025.0,tones/440hz_short.mp3,61,tones/440hz_short.mp3,tone_number_task+delay_block+tone_number_task_remaining_before_delay+empty_block,a,909.0,k,609.0
1.0,32.0,tone_number_task,252.5,102.5,tones/880hz_short.mp3,50,tones/880hz_short.mp3,tone_number_task+empty_block+empty_block,s,1366.5,k,1668.0
1.0,33.0,tone_number_task,252.5,102.5,tones/440hz_short.mp3,47,tones/440hz_short.mp3,tone_number_task+empty_block+empty_block,a,925.5,k,1274.0
1.0,34.0,tone_number_task,1175.0,1025.0,tones/880hz_short.mp3,50,tones/880hz_short.mp3,tone_number_task+delay_block+tone_number_task_remaining_before_delay+empty_block,s,680.0,k,1121.0
1.0,35.0,tone_number_task,1175.0,1025.0,tones/880hz_short.mp3,44,tones/880hz_short.mp3,tone_number_task+delay_block+tone_number_task_remaining_before_delay+empty_block,s,712.0,j,728.0
1.0,37.0,tone_number_task,1175.0,1025.0,tones/440hz_short.mp3,53,tones/440hz_short.mp3,tone_number_task+delay_block+tone_number_task_remaining_before_delay+empty_block,a,579.0,k,598.0
1.0,39.0,tone_number_task,1142.5,992.5,tones/880hz_short.mp3,55,tones/880hz_short.mp3,tone_number_task+tone_number_task_remaining_after_delay+empty_block,s,1141.0,k,801.0
2.0,0.0,tone_number_task,1142.5,992.5,tones/440hz_short.mp3,veintinueve,tones/440hz_short.mp3,tone_number_task+delay_block+tone_number_task_remaining_before_delay+empty_block,a,800.0,k,1219.0
2.0,3.0,tone_number_task,1142.5,992.5,tones/440hz_short.mp3,cincuenta y cuatro,tones/440hz_short.mp3,tone_number_task+empty_block+empty_block,a,1183.5,,
2.0,4.0,tone_number_task,150.0,0.0,tones/880hz_short.mp3,veintiocho,tones/880hz_short.mp3,tone_number_task+empty_block+empty_block,,,,
2.0,7.0,tone_number_task,150.0,0.0,tones/440hz_short.mp3,cuarenta y siete,tones/440hz_short.mp3,tone_number_task+empty_block+empty_block,a,1246.0,,
2.0,9.0,tone_number_task,1175.0,1025.0,tones/440hz_short.mp3,cuarenta y seis,tones/440hz_short.mp3,tone_number_task+tone_number_task_remaining_after_delay+empty_block,a,1131.0,,
2.0,10.0,tone_number_task,1142.5,992.5,tones/440hz_short.mp3,veintiuno,tones/440hz_short.mp3,tone_number_task+empty_block+empty_block,a,1355.5,j,1101.0
2.0,12.0,tone_number_task,150.0,0.0,tones/440hz_short.mp3,cuarenta y tres,tones/440hz_short.mp3,tone_number_task+empty_block+empty_block,a,932.0,j,1878.0
2.0,14.0,tone_number_task,1175.0,1025.0,tones/880hz_short.mp3,sesenta y uno,tones/880hz_short.mp3,tone_number_task+empty_block+empty_block,s,1535.0,,
2.0,18.0,tone_number_task,1175.0,1025.0,tones/880hz_short.mp3,treinta y tres,tones/880hz_short.mp3,tone_number_task+tone_number_task_remaining_after_delay+empty_block,s,1061.0,,
2.0,19.0,tone_number_task,1142.5,992.5,tones/440hz_short.mp3,cincuenta y seis,tones/440hz_short.mp3,tone_number_task+delay_block+tone_number_task_remaining_before_delay+empty_block,a,971.0,,
2.0,20.0,tone_number_task,150.0,0.0,tones/880hz_short.mp3,veintiuno,tones/880hz_short.mp3,tone_number_task+empty_block+empty_block,s,685.0,j,1109.0
2.0,21.0,tone_number_task,252.5,102.5,tones/440hz_short.mp3,cincuenta y nueve,tones/440hz_short.mp3,tone_number_task+empty_block+empty_block,a,1239.5,k,1938.0
2.0,23.0,tone_number_task,1175.0,1025.0,tones/440hz_short.mp3,cincuenta y dos,tones/440hz_short.mp3,tone_number_task+empty_block+empty_block,a,1747.0,,
2.0,24.0,tone_number_task,252.5,102.5,tones/880hz_short.mp3,cuarenta y seis,tones/880hz_short.mp3,tone_number_task+empty_block+empty_block,s,923.5,k,1878.0
2.0,25.0,tone_number_task,252.5,102.5,tones/880hz_short.mp3,sesenta y siete,tones/880hz_short.mp3,tone_number_task+empty_block+empty_block,s,1029.5,k,2114.0
2.0,26.0,tone_number_task,252.5,102.5,tones/880hz_short.mp3,treinta y tres,tones/880hz_short.mp3,tone_number_task+empty_block+empty_block,s,941.5,k,1642.0
2.0,27.0,tone_number_task,252.5,102.5,tones/880hz_short.mp3,sesenta y tres,tones/880hz_short.mp3,tone_number_task+empty_block+empty_block,s,920.5,,
2.0,28.0,tone_number_task,1175.0,1025.0,tones/440hz_short.mp3,veintiuno,tones/440hz_short.mp3,tone_number_task+delay_block+tone_number_task_remaining_before_delay+empty_block,a,869.0,j,790.0
2.0,29.0,tone_number_task,1142.5,992.5,tones/880hz_short.mp3,sesenta y uno,tones/880hz_short.mp3,tone_number_task+delay_block+tone_number_task_remaining_before_delay+empty_block,s,779.0,k,1186.0
2.0,30.0,tone_number_task,150.0,0.0,tones/440hz_short.mp3,veintisiete,tones/440hz_short.mp3,tone_number_task+empty_block+empty_block,a,775.0,j,1334.0
2.0,31.0,tone_number_task,1175.0,1025.0,tones/440hz_short.mp3,cuarenta y siete,tones/440hz_short.mp3,tone_number_task+delay_block+tone_number_task_remaining_before_delay+empty_block,a,789.0,,
2.0,32.0,tone_number_task,1142.5,992.5,tones/440hz_short.mp3,cincuenta y cuatro,tones/440hz_short.mp3,tone_number_task+delay_block+tone_number_task_remaining_before_delay+empty_block,a,851.0,j,1138.0
2.0,33.0,tone_number_task,1142.5,992.5,tones/880hz_short.mp3,cuarenta y dos,tones/880hz_short.mp3,tone_number_task+delay_block+tone_number_task_remaining_before_delay+empty_block,s,819.0,,
2.0,34.0,tone_number_task,1175.0,1025.0,tones/880hz_short.mp3,treinta y ocho,tones/880hz_short.mp3,tone_number_task+empty_block+empty_block,s,1414.0,j,1120.0
2.0,35.0,tone_number_task,1175.0,1025.0,tones/880hz_short.mp3,treinta y seis,tones/880hz_short.mp3,tone_number_task+delay_block+tone_number_task_remaining_before_delay+empty_block,s,768.0,j,938.0
2.0,36.0,tone_number_task,252.5,102.5,tones/440hz_short.mp3,veintiseis,tones/440hz_short.mp3,tone_number_task+empty_block+empty_block,a,688.5,j,1216.0
2.0,37.0,tone_number_task,1175.0,1025.0,tones/440hz_short.mp3,sesenta y ocho,tones/440hz_short.mp3,tone_number_task+delay_block+tone_number_task_remaining_before_delay+empty_block,a,851.0,k,794.0
2.0,38.0,tone_number_task,1142.5,992.5,tones/440hz_short.mp3,sesenta y ocho,tones/440hz_short.mp3,tone_number_task+delay_block+tone_number_task_remaining_before_delay+empty_block,a,819.0,k,843.0
2.0,39.0,tone_number_task,1175.0,1025.0,tones/440hz_short.mp3,sesenta y cinco,tones/440hz_short.mp3,tone_number_task+delay_block+tone_number_task_remaining_before_delay+empty_block,a,629.0,k,936.0
3.0,0.0,tone_number_task,1175.0,1025.0,tones/440hz_short.mp3,cincuenta y dos,tones/440hz_short.mp3,tone_number_task+delay_block+tone_number_task_remaining_before_delay+empty_block,a,549.0,,
3.0,1.0,tone_number_task,1142.5,992.5,tones/440hz_short.mp3,cincuenta y cuatro,tones/440hz_short.mp3,tone_number_task+delay_block+tone_number_task_remaining_before_delay+empty_block,a,752.0,,
3.0,2.0,tone_number_task,1175.0,1025.0,tones/440hz_short.mp3,cincuenta y siete,tones/440hz_short.mp3,tone_number_task+delay_block+tone_number_task_remaining_before_delay+empty_block,a,779.0,k,1129.0
3.0,3.0,tone_number_task,1175.0,1025.0,tones/880hz_short.mp3,veintisiete,tones/880hz_short.mp3,tone_number_task+tone_number_task_remaining_after_delay+empty_block,s,1069.0,j,875.0
3.0,4.0,tone_number_task,1175.0,1025.0,tones/440hz_short.mp3,treinta y seis,tones/440hz_short.mp3,tone_number_task+delay_block+tone_number_task_remaining_before_delay+empty_block,a,792.0,j,1009.0
3.0,5.0,tone_number_task,150.0,0.0,tones/880hz_short.mp3,sesenta y uno,tones/880hz_short.mp3,tone_number_task+empty_block+empty_block,s,681.0,k,1528.0
3.0,6.0,tone_number_task,1175.0,1025.0,tones/880hz_short.mp3,cincuenta y uno,tones/880hz_short.mp3,tone_number_task+delay_block+tone_number_task_remaining_before_delay+empty_block,s,800.0,k,1268.0
3.0,7.0,tone_number_task,1142.5,992.5,tones/880hz_short.mp3,treinta y uno,tones/880hz_short.mp3,tone_number_task+delay_block+tone_number_task_remaining_before_delay+empty_block,s,651.0,j,641.0
3.0,8.0,tone_number_task,252.5,102.5,tones/440hz_short.mp3,cuarenta y ocho,tones/440hz_short.mp3,tone_number_task+empty_block+empty_block,a,1074.5,,
3.0,9.0,tone_number_task,1142.5,992.5,tones/880hz_short.mp3,sesenta y siete,tones/880hz_short.mp3,tone_number_task+tone_number_task_remaining_after_delay+empty_block,a,1000.0,,
3.0,11.0,tone_number_task,1175.0,1025.0,tones/880hz_short.mp3,veintinueve,tones/880hz_short.mp3,tone_number_task+empty_block+empty_block,s,1776.0,j,1322.0
3.0,12.0,tone_number_task,150.0,0.0,tones/880hz_short.mp3,cuarenta y nueve,tones/880hz_short.mp3,tone_number_task+empty_block+empty_block,s,914.0,j,1641.0
3.0,13.0,tone_number_task,1142.5,992.5,tones/440hz_short.mp3,cuarenta y cuatro,tones/440hz_short.mp3,tone_number_task+empty_block+empty_block,a,1142.5,,
3.0,15.0,tone_number_task,1142.5,992.5,tones/880hz_short.mp3,treinta y siete,tones/880hz_short.mp3,tone_number_task+empty_block+empty_block,s,1270.5,j,967.0
3.0,18.0,tone_number_task,1142.5,992.5,tones/440hz_short.mp3,veintiseis,tones/440hz_short.mp3,tone_number_task+empty_block+empty_block,a,1347.5,j,924.0
3.0,19.0,tone_number_task,1142.5,992.5,tones/880hz_short.mp3,sesenta y dos,tones/880hz_short.mp3,tone_number_task+empty_block+empty_block,s,1375.5,k,1264.0
3.0,20.0,tone_number_task,1175.0,1025.0,tones/880hz_short.mp3,treinta y dos,tones/880hz_short.mp3,tone_number_task+delay_block+tone_number_task_remaining_before_delay+empty_block,s,1000.0,j,1254.0
3.0,21.0,tone_number_task,252.5,102.5,tones/880hz_short.mp3,treinta y siete,tones/880hz_short.mp3,tone_number_task+empty_block+empty_block,s,1052.5,j,1559.0
3.0,23.0,tone_number_task,252.5,102.5,tones/440hz_short.mp3,treinta y cuatro,tones/440hz_short.mp3,tone_number_task+empty_block+empty_block,a,628.5,j,993.0
3.0,24.0,tone_number_task,252.5,102.5,tones/440hz_short.mp3,sesenta y dos,tones/440hz_short.mp3,tone_number_task+empty_block+empty_block,a,790.5,k,1257.0
3.0,25.0,tone_number_task,1142.5,992.5,tones/440hz_short.mp3,veintiocho,tones/440hz_short.mp3,tone_number_task+delay_block+tone_number_task_remaining_before_delay+empty_block,a,869.0,j,629.0
3.0,26.0,tone_number_task,252.5,102.5,tones/880hz_short.mp3,treinta y cinco,tones/880hz_short.mp3,tone_number_task+empty_block+empty_block,s,609.5,j,1020.0
3.0,27.0,tone_number_task,252.5,102.5,tones/880hz_short.mp3,veintiseis,tones/880hz_short.mp3,tone_number_task+empty_block+empty_block,s,864.5,j,1173.0
3.0,28.0,tone_number_task,1142.5,992.5,tones/880hz_short.mp3,sesenta y cinco,tones/880hz_short.mp3,tone_number_task+tone_number_task_remaining_after_delay+empty_block,s,1019.0,,
3.0,29.0,tone_number_task,1175.0,1025.0,tones/440hz_short.mp3,treinta,tones/440hz_short.mp3,tone_number_task+delay_block+tone_number_task_remaining_before_delay+empty_block,a,1011.0,j,1039.0
3.0,30.0,tone_number_task,150.0,0.0,tones/440hz_short.mp3,veinticuatro,tones/440hz_short.mp3,tone_number_task+empty_block+empty_block,a,787.0,,
3.0,31.0,tone_number_task,150.0,0.0,tones/880hz_short.mp3,veintitres,tones/880hz_short.mp3,tone_number_task+empty_block+empty_block,s,976.0,j,1354.0
3.0,32.0,tone_number_task,1175.0,1025.0,tones/440hz_short.mp3,treinta y siete,tones/440hz_short.mp3,tone_number_task+tone_number_task_remaining_after_delay+empty_block,a,1088.0,j,998.0
3.0,33.0,tone_number_task,1175.0,1025.0,tones/880hz_short.mp3,cuarenta,tones/880hz_short.mp3,tone_number_task+delay_block+tone_number_task_remaining_before_delay+empty_block,s,709.0,j,1330.0
3.0,35.0,tone_number_task,150.0,0.0,tones/880hz_short.mp3,veintiocho,tones/880hz_short.mp3,tone_number_task+empty_block+empty_block,s,761.0,j,1497.0
3.0,36.0,tone_number_task,1142.5,992.5,tones/440hz_short.mp3,veintinueve,tones/440hz_short.mp3,tone_number_task+delay_block+tone_number_task_remaining_before_delay+empty_block,a,680.0,j,1000.0
3.0,37.0,tone_number_task,150.0,0.0,tones/440hz_short.mp3,cincuenta y siete,tones/440hz_short.mp3,tone_number_task+empty_block+empty_block,a,981.0,k,1561.0
3.0,38.0,tone_number_task,252.5,102.5,tones/880hz_short.mp3,cincuenta,tones/880hz_short.mp3,tone_number_task+empty_block+empty_block,s,1046.5,k,1639.0
3.0,39.0,tone_number_task,252.5,102.5,tones/880hz_short.mp3,treinta y dos,tones/880hz_short.mp3,tone_number_task+empty_block+empty_block,s,1247.5,j,1531.0
