block,round,task,trial_duration,delay,audioFile,number,stimulus,type,response_1,rt_1,response_2,rt_2
0.0,0.0,tone_number_task,150.0,0.0,tones/880hz_short.mp3,35,tones/880hz_short.mp3,tone_number_task+empty_block+empty_block,,,,
0.0,1.0,tone_number_task,252.5,102.5,tones/440hz_short.mp3,55,tones/440hz_short.mp3,tone_number_task+empty_block+empty_block,,,,
0.0,2.0,tone_number_task,1175.0,1025.0,tones/440hz_short.mp3,30,tones/440hz_short.mp3,tone_number_task+empty_block+empty_block,,,,
0.0,3.0,tone_number_task,1142.5,992.5,tones/440hz_short.mp3,66,tones/440hz_short.mp3,tone_number_task+empty_block+empty_block,,,,
0.0,4.0,tone_number_task,150.0,0.0,tones/440hz_short.mp3,33,tones/440hz_short.mp3,tone_number_task+empty_block+empty_block,,,,
0.0,5.0,tone_number_task,252.5,102.5,tones/880hz_short.mp3,42,tones/880hz_short.mp3,tone_number_task+empty_block+empty_block,,,,
0.0,6.0,tone_number_task,1142.5,992.5,tones/880hz_short.mp3,63,tones/880hz_short.mp3,tone_number_task+empty_block+empty_block,,,,
0.0,7.0,tone_number_task,252.5,102.5,tones/880hz_short.mp3,61,tones/880hz_short.mp3,tone_number_task+empty_block+empty_block,,,,
0.0,8.0,tone_number_task,150.0,0.0,tones/440hz_short.mp3,51,tones/440hz_short.mp3,tone_number_task+empty_block+empty_block,,,,
0.0,9.0,tone_number_task,1142.5,992.5,tones/880hz_short.mp3,21,tones/880hz_short.mp3,tone_number_task+empty_block+empty_block,,,,
0.0,10.0,tone_number_task,1175.0,1025.0,tones/880hz_short.mp3,61,tones/880hz_short.mp3,tone_number_task+empty_block+empty_block,,,,
0.0,11.0,tone_number_task,252.5,102.5,tones/440hz_short.mp3,37,tones/440hz_short.mp3,tone_number_task+empty_block+empty_block,,,,
0.0,12.0,tone_number_task,252.5,102.5,tones/440hz_short.mp3,27,tones/440hz_short.mp3,tone_number_task+empty_block+empty_block,,,,
0.0,13.0,tone_number_task,252.5,102.5,tones/440hz_short.mp3,43,tones/440hz_short.mp3,tone_number_task+empty_block+empty_block,,,,
0.0,14.0,tone_number_task,150.0,0.0,tones/880hz_short.mp3,61,tones/880hz_short.mp3,tone_number_task+empty_block+empty_block,,,,
0.0,15.0,tone_number_task,1142.5,992.5,tones/440hz_short.mp3,62,tones/440hz_short.mp3,tone_number_task+empty_block+empty_block,,,,
0.0,16.0,tone_number_task,1175.0,1025.0,tones/880hz_short.mp3,54,tones/880hz_short.mp3,tone_number_task+empty_block+empty_block,,,,
0.0,17.0,tone_number_task,1175.0,1025.0,tones/440hz_short.mp3,56,tones/440hz_short.mp3,tone_number_task+empty_block+empty_block,,,,
0.0,18.0,tone_number_task,1142.5,992.5,tones/880hz_short.mp3,44,tones/880hz_short.mp3,tone_number_task+empty_block+empty_block,,,,
0.0,19.0,tone_number_task,1142.5,992.5,tones/880hz_short.mp3,68,tones/880hz_short.mp3,tone_number_task+empty_block+empty_block,,,,
0.0,20.0,tone_number_task,150.0,0.0,tones/440hz_short.mp3,23,tones/440hz_short.mp3,tone_number_task+empty_block+empty_block,,,,
0.0,21.0,tone_number_task,150.0,0.0,tones/440hz_short.mp3,33,tones/440hz_short.mp3,tone_number_task+empty_block+empty_block,,,,
0.0,22.0,tone_number_task,1175.0,1025.0,tones/440hz_short.mp3,47,tones/440hz_short.mp3,tone_number_task+empty_block+empty_block,,,,
0.0,23.0,tone_number_task,1142.5,992.5,tones/440hz_short.mp3,28,tones/440hz_short.mp3,tone_number_task+empty_block+empty_block,,,,
0.0,24.0,tone_number_task,1142.5,992.5,tones/880hz_short.mp3,47,tones/880hz_short.mp3,tone_number_task+empty_block+empty_block,,,,
0.0,25.0,tone_number_task,150.0,0.0,tones/880hz_short.mp3,48,tones/880hz_short.mp3,tone_number_task+empty_block+empty_block,,,,
0.0,26.0,tone_number_task,252.5,102.5,tones/440hz_short.mp3,63,tones/440hz_short.mp3,tone_number_task+empty_block+empty_block,,,,
0.0,27.0,tone_number_task,150.0,0.0,tones/440hz_short.mp3,41,tones/440hz_short.mp3,tone_number_task+empty_block+empty_block,,,,
0.0,28.0,tone_number_task,1142.5,992.5,tones/880hz_short.mp3,32,tones/880hz_short.mp3,tone_number_task+empty_block+empty_block,,,,
0.0,29.0,tone_number_task,1175.0,1025.0,tones/880hz_short.mp3,41,tones/880hz_short.mp3,tone_number_task+empty_block+empty_block,,,,
0.0,30.0,tone_number_task,252.5,102.5,tones/440hz_short.mp3,26,tones/440hz_short.mp3,tone_number_task+empty_block+empty_block,,,,
0.0,31.0,tone_number_task,150.0,0.0,tones/880hz_short.mp3,44,tones/880hz_short.mp3,tone_number_task+empty_block+empty_block,,,,
0.0,32.0,tone_number_task,1175.0,1025.0,tones/440hz_short.mp3,47,tones/440hz_short.mp3,tone_number_task+empty_block+empty_block,,,,
0.0,33.0,tone_number_task,1175.0,1025.0,tones/880hz_short.mp3,26,tones/880hz_short.mp3,tone_number_task+empty_block+empty_block,,,,
0.0,34.0,tone_number_task,252.5,102.5,tones/440hz_short.mp3,39,tones/440hz_short.mp3,tone_number_task+empty_block+empty_block,,,,
0.0,35.0,tone_number_task,1142.5,992.5,tones/440hz_short.mp3,35,tones/440hz_short.mp3,tone_number_task+empty_block+empty_block,,,,
0.0,36.0,tone_number_task,150.0,0.0,tones/440hz_short.mp3,60,tones/440hz_short.mp3,tone_number_task+empty_block+empty_block,,,,
0.0,37.0,tone_number_task,252.5,102.5,tones/880hz_short.mp3,43,tones/880hz_short.mp3,tone_number_task+empty_block+empty_block,,,,
0.0,38.0,tone_number_task,1175.0,1025.0,tones/440hz_short.mp3,41,tones/440hz_short.mp3,tone_number_task+empty_block+empty_block,,,,
0.0,39.0,tone_number_task,1175.0,1025.0,tones/440hz_short.mp3,38,tones/440hz_short.mp3,tone_number_task+empty_block+empty_block,,,,
1.0,0.0,tone_number_task,1175.0,1025.0,tones/440hz_short.mp3,42,tones/440hz_short.mp3,tone_number_task+empty_block+empty_block,,,,
1.0,1.0,tone_number_task,1142.5,992.5,tones/880hz_short.mp3,32,tones/880hz_short.mp3,tone_number_task+empty_block+empty_block,,,,
1.0,2.0,tone_number_task,1175.0,1025.0,tones/880hz_short.mp3,51,tones/880hz_short.mp3,tone_number_task+empty_block+empty_block,,,,
1.0,3.0,tone_number_task,1142.5,992.5,tones/880hz_short.mp3,56,tones/880hz_short.mp3,tone_number_task+empty_block+empty_block,,,,
1.0,4.0,tone_number_task,252.5,102.5,tones/880hz_short.mp3,28,tones/880hz_short.mp3,tone_number_task+empty_block+empty_block,,,,
1.0,5.0,tone_number_task,1175.0,1025.0,tones/880hz_short.mp3,65,tones/880hz_short.mp3,tone_number_task+empty_block+empty_block,,,,
1.0,6.0,tone_number_task,150.0,0.0,tones/880hz_short.mp3,22,tones/880hz_short.mp3,tone_number_task+empty_block+empty_block,,,,
1.0,7.0,tone_number_task,150.0,0.0,tones/880hz_short.mp3,62,tones/880hz_short.mp3,tone_number_task+empty_block+empty_block,,,,
1.0,8.0,tone_number_task,1142.5,992.5,tones/440hz_short.mp3,33,tones/440hz_short.mp3,tone_number_task+empty_block+empty_block,,,,
1.0,9.0,tone_number_task,1175.0,1025.0,tones/880hz_short.mp3,21,tones/880hz_short.mp3,tone_number_task+empty_block+empty_block,,,,
1.0,10.0,tone_number_task,252.5,102.5,tones/440hz_short.mp3,59,tones/440hz_short.mp3,tone_number_task+empty_block+empty_block,,,,
1.0,11.0,tone_number_task,1142.5,992.5,tones/880hz_short.mp3,61,tones/880hz_short.mp3,tone_number_task+empty_block+empty_block,,,,
1.0,12.0,tone_number_task,1175.0,1025.0,tones/880hz_short.mp3,57,tones/880hz_short.mp3,tone_number_task+empty_block+empty_block,,,,
1.0,13.0,tone_number_task,252.5,102.5,tones/440hz_short.mp3,33,tones/440hz_short.mp3,tone_number_task+empty_block+empty_block,,,,
1.0,14.0,tone_number_task,252.5,102.5,tones/880hz_short.mp3,33,tones/880hz_short.mp3,tone_number_task+empty_block+empty_block,,,,
1.0,15.0,tone_number_task,252.5,102.5,tones/880hz_short.mp3,47,tones/880hz_short.mp3,tone_number_task+empty_block+empty_block,,,,
1.0,16.0,tone_number_task,1142.5,992.5,tones/880hz_short.mp3,40,tones/880hz_short.mp3,tone_number_task+empty_block+empty_block,,,,
1.0,17.0,tone_number_task,150.0,0.0,tones/880hz_short.mp3,55,tones/880hz_short.mp3,tone_number_task+empty_block+empty_block,,,,
1.0,18.0,tone_number_task,252.5,102.5,tones/880hz_short.mp3,24,tones/880hz_short.mp3,tone_number_task+empty_block+empty_block,,,,
1.0,19.0,tone_number_task,150.0,0.0,tones/880hz_short.mp3,50,tones/880hz_short.mp3,tone_number_task+empty_block+empty_block,,,,
1.0,20.0,tone_number_task,150.0,0.0,tones/880hz_short.mp3,22,tones/880hz_short.mp3,tone_number_task+empty_block+empty_block,,,,
1.0,21.0,tone_number_task,1142.5,992.5,tones/440hz_short.mp3,36,tones/440hz_short.mp3,tone_number_task+empty_block+empty_block,,,,
1.0,22.0,tone_number_task,1142.5,992.5,tones/440hz_short.mp3,30,tones/440hz_short.mp3,tone_number_task+empty_block+empty_block,,,,
1.0,23.0,tone_number_task,150.0,0.0,tones/880hz_short.mp3,28,tones/880hz_short.mp3,tone_number_task+empty_block+empty_block,,,,
1.0,24.0,tone_number_task,150.0,0.0,tones/880hz_short.mp3,63,tones/880hz_short.mp3,tone_number_task+empty_block+empty_block,,,,
1.0,25.0,tone_number_task,252.5,102.5,tones/880hz_short.mp3,47,tones/880hz_short.mp3,tone_number_task+empty_block+empty_block,,,,
1.0,26.0,tone_number_task,1175.0,1025.0,tones/880hz_short.mp3,42,tones/880hz_short.mp3,tone_number_task+empty_block+empty_block,,,,
1.0,27.0,tone_number_task,150.0,0.0,tones/880hz_short.mp3,43,tones/880hz_short.mp3,tone_number_task+empty_block+empty_block,,,,
1.0,28.0,tone_number_task,252.5,102.5,tones/440hz_short.mp3,34,tones/440hz_short.mp3,tone_number_task+empty_block+empty_block,,,,
1.0,29.0,tone_number_task,150.0,0.0,tones/440hz_short.mp3,51,tones/440hz_short.mp3,tone_number_task+empty_block+empty_block,,,,
1.0,30.0,tone_number_task,1142.5,992.5,tones/880hz_short.mp3,23,tones/880hz_short.mp3,tone_number_task+empty_block+empty_block,,,,
1.0,31.0,tone_number_task,252.5,102.5,tones/440hz_short.mp3,55,tones/440hz_short.mp3,tone_number_task+empty_block+empty_block,,,,
1.0,32.0,tone_number_task,1175.0,1025.0,tones/440hz_short.mp3,28,tones/440hz_short.mp3,tone_number_task+empty_block+empty_block,,,,
1.0,33.0,tone_number_task,1142.5,992.5,tones/880hz_short.mp3,59,tones/880hz_short.mp3,tone_number_task+empty_block+empty_block,,,,
1.0,34.0,tone_number_task,1175.0,1025.0,tones/880hz_short.mp3,63,tones/880hz_short.mp3,tone_number_task+empty_block+empty_block,,,,
1.0,35.0,tone_number_task,1175.0,1025.0,tones/880hz_short.mp3,61,tones/880hz_short.mp3,tone_number_task+empty_block+empty_block,,,,
1.0,36.0,tone_number_task,1142.5,992.5,tones/880hz_short.mp3,63,tones/880hz_short.mp3,tone_number_task+empty_block+empty_block,,,,
1.0,37.0,tone_number_task,1175.0,1025.0,tones/880hz_short.mp3,59,tones/880hz_short.mp3,tone_number_task+empty_block+empty_block,,,,
1.0,38.0,tone_number_task,252.5,102.5,tones/440hz_short.mp3,53,tones/440hz_short.mp3,tone_number_task+empty_block+empty_block,,,,
1.0,39.0,tone_number_task,150.0,0.0,tones/880hz_short.mp3,52,tones/880hz_short.mp3,tone_number_task+empty_block+empty_block,,,,
2.0,5.0,tone_number_task,1175.0,1025.0,tones/880hz_short.mp3,sesenta y dos,tones/880hz_short.mp3,tone_number_task+empty_block+empty_block,,,,
2.0,8.0,tone_number_task,252.5,102.5,tones/440hz_short.mp3,veintiocho,tones/440hz_short.mp3,tone_number_task+empty_block+empty_block,a,1216.5,j,1118.0
2.0,11.0,tone_number_task,1142.5,992.5,tones/880hz_short.mp3,sesenta y tres,tones/880hz_short.mp3,tone_number_task+empty_block+empty_block,,,,
2.0,12.0,tone_number_task,1142.5,992.5,tones/440hz_short.mp3,cincuenta y nueve,tones/440hz_short.mp3,tone_number_task+empty_block+empty_block,,,k,
2.0,14.0,tone_number_task,1142.5,992.5,tones/880hz_short.mp3,veintiseis,tones/880hz_short.mp3,tone_number_task+empty_block+empty_block,a,1897.5,j,908.0
2.0,15.0,tone_number_task,150.0,0.0,tones/880hz_short.mp3,treinta y seis,tones/880hz_short.mp3,tone_number_task+empty_block+empty_block,a,1103.0,j,1103.0
2.0,16.0,tone_number_task,252.5,102.5,tones/440hz_short.mp3,cincuenta y nueve,tones/440hz_short.mp3,tone_number_task+empty_block+empty_block,,,k,
2.0,17.0,tone_number_task,252.5,102.5,tones/440hz_short.mp3,cuarenta y uno,tones/440hz_short.mp3,tone_number_task+empty_block+empty_block,a,1031.5,j,940.0
2.0,19.0,tone_number_task,1142.5,992.5,tones/880hz_short.mp3,treinta y cuatro,tones/880hz_short.mp3,tone_number_task+empty_block+empty_block,a,2184.5,j,1192.0
2.0,20.0,tone_number_task,150.0,0.0,tones/880hz_short.mp3,cincuenta y nueve,tones/880hz_short.mp3,tone_number_task+empty_block+empty_block,,,k,
2.0,21.0,tone_number_task,150.0,0.0,tones/440hz_short.mp3,veintinueve,tones/440hz_short.mp3,tone_number_task+empty_block+empty_block,a,1239.0,j,1242.0
2.0,23.0,tone_number_task,1175.0,1025.0,tones/440hz_short.mp3,veinticuatro,tones/440hz_short.mp3,tone_number_task+empty_block+empty_block,,,j,
2.0,25.0,tone_number_task,252.5,102.5,tones/440hz_short.mp3,cuarenta y tres,tones/440hz_short.mp3,tone_number_task+empty_block+empty_block,,,j,
2.0,26.0,tone_number_task,252.5,102.5,tones/440hz_short.mp3,treinta y siete,tones/440hz_short.mp3,tone_number_task+empty_block+empty_block,a,1141.5,j,1042.0
2.0,27.0,tone_number_task,1142.5,992.5,tones/440hz_short.mp3,veintitres,tones/440hz_short.mp3,tone_number_task+empty_block+empty_block,,,k,
2.0,31.0,tone_number_task,1142.5,992.5,tones/880hz_short.mp3,sesenta,tones/880hz_short.mp3,tone_number_task+empty_block+empty_block,,,j,
2.0,34.0,tone_number_task,252.5,102.5,tones/880hz_short.mp3,sesenta y siete,tones/880hz_short.mp3,tone_number_task+empty_block+empty_block,,,,
2.0,35.0,tone_number_task,1175.0,1025.0,tones/880hz_short.mp3,sesenta y cuatro,tones/880hz_short.mp3,tone_number_task+empty_block+empty_block,,,,
2.0,38.0,tone_number_task,1142.5,992.5,tones/880hz_short.mp3,veintiocho,tones/880hz_short.mp3,tone_number_task+empty_block+empty_block,a,1972.5,k,1214.0
2.0,39.0,tone_number_task,252.5,102.5,tones/440hz_short.mp3,treinta y uno,tones/440hz_short.mp3,tone_number_task+empty_block+empty_block,,,,
3.0,0.0,tone_number_task,252.5,102.5,tones/880hz_short.mp3,treinta y cinco,tones/880hz_short.mp3,tone_number_task+empty_block+empty_block,,,,
3.0,1.0,tone_number_task,1142.5,992.5,tones/440hz_short.mp3,cincuenta y siete,tones/440hz_short.mp3,tone_number_task+empty_block+empty_block,a,2327.5,j,1338.0
3.0,2.0,tone_number_task,150.0,0.0,tones/880hz_short.mp3,cincuenta y nueve,tones/880hz_short.mp3,tone_number_task+empty_block+empty_block,,,,
3.0,3.0,tone_number_task,1142.5,992.5,tones/880hz_short.mp3,cuarenta y ocho,tones/880hz_short.mp3,tone_number_task+empty_block+empty_block,,,,
3.0,5.0,tone_number_task,1142.5,992.5,tones/880hz_short.mp3,cincuenta y cinco,tones/880hz_short.mp3,tone_number_task+empty_block+empty_block,,,j,
3.0,6.0,tone_number_task,1175.0,1025.0,tones/880hz_short.mp3,treinta y tres,tones/880hz_short.mp3,tone_number_task+empty_block+empty_block,a,2083.0,j,1460.0
3.0,7.0,tone_number_task,150.0,0.0,tones/880hz_short.mp3,cuarenta y siete,tones/880hz_short.mp3,tone_number_task+empty_block+empty_block,,,j,
3.0,11.0,tone_number_task,150.0,0.0,tones/440hz_short.mp3,cuarenta y uno,tones/440hz_short.mp3,tone_number_task+empty_block+empty_block,,,j,
3.0,12.0,tone_number_task,252.5,102.5,tones/440hz_short.mp3,cuarenta y uno,tones/440hz_short.mp3,tone_number_task+empty_block+empty_block,,,j,
3.0,13.0,tone_number_task,252.5,102.5,tones/880hz_short.mp3,sesenta y seis,tones/880hz_short.mp3,tone_number_task+empty_block+empty_block,,,,
3.0,14.0,tone_number_task,1175.0,1025.0,tones/440hz_short.mp3,sesenta,tones/440hz_short.mp3,tone_number_task+empty_block+empty_block,,,k,
3.0,15.0,tone_number_task,252.5,102.5,tones/440hz_short.mp3,sesenta y dos,tones/440hz_short.mp3,tone_number_task+empty_block+empty_block,,,j,
3.0,19.0,tone_number_task,1142.5,992.5,tones/440hz_short.mp3,sesenta y cuatro,tones/440hz_short.mp3,tone_number_task+empty_block+empty_block,,,k,
3.0,24.0,tone_number_task,252.5,102.5,tones/880hz_short.mp3,cincuenta y cinco,tones/880hz_short.mp3,tone_number_task+empty_block+empty_block,,,,
3.0,25.0,tone_number_task,150.0,0.0,tones/440hz_short.mp3,cuarenta y tres,tones/440hz_short.mp3,tone_number_task+empty_block+empty_block,,,j,
3.0,27.0,tone_number_task,1142.5,992.5,tones/440hz_short.mp3,sesenta y nueve,tones/440hz_short.mp3,tone_number_task+empty_block+empty_block,,,k,
3.0,28.0,tone_number_task,1142.5,992.5,tones/880hz_short.mp3,veintidós,tones/880hz_short.mp3,tone_number_task+empty_block+empty_block,,,j,
3.0,30.0,tone_number_task,150.0,0.0,tones/880hz_short.mp3,cincuenta,tones/880hz_short.mp3,tone_number_task+empty_block+empty_block,,,k,
3.0,31.0,tone_number_task,1175.0,1025.0,tones/440hz_short.mp3,sesenta y siete,tones/440hz_short.mp3,tone_number_task+empty_block+empty_block,,,j,
3.0,32.0,tone_number_task,150.0,0.0,tones/880hz_short.mp3,cuarenta y nueve,tones/880hz_short.mp3,tone_number_task+empty_block+empty_block,,,k,
3.0,35.0,tone_number_task,1175.0,1025.0,tones/880hz_short.mp3,treinta y uno,tones/880hz_short.mp3,tone_number_task+empty_block+empty_block,a,1735.0,j,727.0
