block,round,task,trial_duration,delay,audioFile,number,stimulus,type,response_1,rt_1,response_2,rt_2
0.0,0.0,tone_number_task,150.0,0.0,tones/440hz_short.mp3,23,tones/440hz_short.mp3,tone_number_task+empty_block+empty_block,a,785.0,j,1083.0
0.0,1.0,tone_number_task,150.0,0.0,tones/880hz_short.mp3,54,tones/880hz_short.mp3,tone_number_task+empty_block+empty_block,s,793.0,k,1064.0
0.0,2.0,tone_number_task,1142.5,992.5,tones/440hz_short.mp3,32,tones/440hz_short.mp3,tone_number_task+delay_block+tone_number_task_remaining_before_delay+empty_block,a,848.0,j,594.0
0.0,3.0,tone_number_task,1175.0,1025.0,tones/440hz_short.mp3,50,tones/440hz_short.mp3,tone_number_task+delay_block+tone_number_task_remaining_before_delay+empty_block,a,549.0,k,982.0
0.0,4.0,tone_number_task,252.5,102.5,tones/880hz_short.mp3,49,tones/880hz_short.mp3,tone_number_task+empty_block+empty_block,a,788.5,j,1390.0
0.0,5.0,tone_number_task,1175.0,1025.0,tones/440hz_short.mp3,63,tones/440hz_short.mp3,tone_number_task+delay_block+tone_number_task_remaining_before_delay+empty_block,a,829.0,k,611.0
0.0,7.0,tone_number_task,252.5,102.5,tones/880hz_short.mp3,56,tones/880hz_short.mp3,tone_number_task+empty_block+empty_block,s,936.5,k,1328.0
0.0,8.0,tone_number_task,252.5,102.5,tones/440hz_short.mp3,30,tones/440hz_short.mp3,tone_number_task+empty_block+empty_block,a,681.5,j,1152.0
0.0,9.0,tone_number_task,252.5,102.5,tones/440hz_short.mp3,47,tones/440hz_short.mp3,tone_number_task+empty_block+empty_block,a,836.5,k,1324.0
0.0,10.0,tone_number_task,1175.0,1025.0,tones/880hz_short.mp3,59,tones/880hz_short.mp3,tone_number_task+delay_block+tone_number_task_remaining_before_delay+empty_block,s,629.0,k,489.0
0.0,11.0,tone_number_task,1175.0,1025.0,tones/440hz_short.mp3,23,tones/440hz_short.mp3,tone_number_task+empty_block+empty_block,a,1387.0,j,804.0
0.0,12.0,tone_number_task,1175.0,1025.0,tones/880hz_short.mp3,23,tones/880hz_short.mp3,tone_number_task+delay_block+tone_number_task_remaining_before_delay+empty_block,s,680.0,j,436.0
0.0,13.0,tone_number_task,252.5,102.5,tones/880hz_short.mp3,69,tones/880hz_short.mp3,tone_number_task+empty_block+empty_block,s,922.5,k,1114.0
0.0,14.0,tone_number_task,150.0,0.0,tones/880hz_short.mp3,47,tones/880hz_short.mp3,tone_number_task+empty_block+empty_block,s,663.0,j,968.0
0.0,15.0,tone_number_task,1142.5,992.5,tones/440hz_short.mp3,52,tones/440hz_short.mp3,tone_number_task+delay_block+tone_number_task_remaining_before_delay+empty_block,a,741.0,k,582.0
0.0,16.0,tone_number_task,150.0,0.0,tones/880hz_short.mp3,59,tones/880hz_short.mp3,tone_number_task+empty_block+empty_block,s,618.0,k,1136.0
0.0,17.0,tone_number_task,150.0,0.0,tones/440hz_short.mp3,43,tones/440hz_short.mp3,tone_number_task+empty_block+empty_block,a,713.0,j,977.0
0.0,18.0,tone_number_task,1142.5,992.5,tones/440hz_short.mp3,50,tones/440hz_short.mp3,tone_number_task+delay_block+tone_number_task_remaining_before_delay+empty_block,a,621.0,k,460.0
0.0,19.0,tone_number_task,150.0,0.0,tones/440hz_short.mp3,66,tones/440hz_short.mp3,tone_number_task+empty_block+empty_block,a,789.0,k,1189.0
0.0,20.0,tone_number_task,150.0,0.0,tones/440hz_short.mp3,37,tones/440hz_short.mp3,tone_number_task+empty_block+empty_block,a,889.0,j,1155.0
0.0,21.0,tone_number_task,1142.5,992.5,tones/440hz_short.mp3,57,tones/440hz_short.mp3,tone_number_task+delay_block+tone_number_task_remaining_before_delay+empty_block,a,472.0,k,558.0
0.0,22.0,tone_number_task,150.0,0.0,tones/880hz_short.mp3,54,tones/880hz_short.mp3,tone_number_task+empty_block+empty_block,s,719.0,k,1214.0
0.0,23.0,tone_number_task,252.5,102.5,tones/440hz_short.mp3,38,tones/440hz_short.mp3,tone_number_task+empty_block+empty_block,a,719.5,j,1397.0
0.0,24.0,tone_number_task,1142.5,992.5,tones/440hz_short.mp3,34,tones/440hz_short.mp3,tone_number_task+delay_block+tone_number_task_remaining_before_delay+empty_block,a,440.0,j,569.0
0.0,25.0,tone_number_task,1175.0,1025.0,tones/440hz_short.mp3,69,tones/440hz_short.mp3,tone_number_task+delay_block+tone_number_task_remaining_before_delay+empty_block,a,619.0,k,380.0
0.0,26.0,tone_number_task,1175.0,1025.0,tones/880hz_short.mp3,32,tones/880hz_short.mp3,tone_number_task+delay_block+tone_number_task_remaining_before_delay+empty_block,s,600.0,j,439.0
0.0,27.0,tone_number_task,1142.5,992.5,tones/440hz_short.mp3,33,tones/440hz_short.mp3,tone_number_task+delay_block+tone_number_task_remaining_before_delay+empty_block,a,829.0,j,418.0
0.0,28.0,tone_number_task,1142.5,992.5,tones/880hz_short.mp3,28,tones/880hz_short.mp3,tone_number_task+delay_block+tone_number_task_remaining_before_delay+empty_block,s,720.0,j,414.0
0.0,29.0,tone_number_task,252.5,102.5,tones/440hz_short.mp3,61,tones/440hz_short.mp3,tone_number_task+empty_block+empty_block,a,1418.5,k,1573.0
0.0,30.0,tone_number_task,252.5,102.5,tones/880hz_short.mp3,66,tones/880hz_short.mp3,tone_number_task+empty_block+empty_block,s,471.5,k,671.0
0.0,31.0,tone_number_task,1175.0,1025.0,tones/880hz_short.mp3,53,tones/880hz_short.mp3,tone_number_task+delay_block+tone_number_task_remaining_before_delay+empty_block,s,608.0,k,688.0
0.0,32.0,tone_number_task,1142.5,992.5,tones/440hz_short.mp3,62,tones/440hz_short.mp3,tone_number_task+delay_block+tone_number_task_remaining_before_delay+empty_block,a,571.0,k,587.0
0.0,33.0,tone_number_task,1175.0,1025.0,tones/880hz_short.mp3,44,tones/880hz_short.mp3,tone_number_task+delay_block+tone_number_task_remaining_before_delay+empty_block,s,451.0,j,461.0
0.0,34.0,tone_number_task,1175.0,1025.0,tones/880hz_short.mp3,34,tones/880hz_short.mp3,tone_number_task+delay_block+tone_number_task_remaining_before_delay+empty_block,s,749.0,j,415.0
0.0,35.0,tone_number_task,252.5,102.5,tones/440hz_short.mp3,31,tones/440hz_short.mp3,tone_number_task+empty_block+empty_block,a,656.5,j,874.0
0.0,36.0,tone_number_task,1142.5,992.5,tones/880hz_short.mp3,55,tones/880hz_short.mp3,tone_number_task+delay_block+tone_number_task_remaining_before_delay+empty_block,a,669.0,k,580.0
0.0,37.0,tone_number_task,252.5,102.5,tones/880hz_short.mp3,64,tones/880hz_short.mp3,tone_number_task+empty_block+empty_block,s,456.5,k,777.0
0.0,38.0,tone_number_task,1142.5,992.5,tones/880hz_short.mp3,27,tones/880hz_short.mp3,tone_number_task+delay_block+tone_number_task_remaining_before_delay+empty_block,s,429.0,j,516.0
0.0,39.0,tone_number_task,150.0,0.0,tones/880hz_short.mp3,28,tones/880hz_short.mp3,tone_number_task+empty_block+empty_block,s,575.0,j,806.0
1.0,0.0,tone_number_task,150.0,0.0,tones/440hz_short.mp3,37,tones/440hz_short.mp3,tone_number_task+empty_block+empty_block,a,1295.0,j,1465.0
1.0,1.0,tone_number_task,252.5,102.5,tones/880hz_short.mp3,68,tones/880hz_short.mp3,tone_number_task+empty_block+empty_block,s,471.5,k,556.0
1.0,2.0,tone_number_task,150.0,0.0,tones/440hz_short.mp3,68,tones/440hz_short.mp3,tone_number_task+empty_block+empty_block,a,903.0,k,1266.0
1.0,3.0,tone_number_task,1175.0,1025.0,tones/880hz_short.mp3,55,tones/880hz_short.mp3,tone_number_task+delay_block+tone_number_task_remaining_before_delay+empty_block,s,509.0,k,482.0
1.0,4.0,tone_number_task,150.0,0.0,tones/880hz_short.mp3,30,tones/880hz_short.mp3,tone_number_task+empty_block+empty_block,a,747.0,j,1315.0
1.0,5.0,tone_number_task,150.0,0.0,tones/880hz_short.mp3,61,tones/880hz_short.mp3,tone_number_task+empty_block+empty_block,s,918.0,k,1084.0
1.0,6.0,tone_number_task,1142.5,992.5,tones/440hz_short.mp3,35,tones/440hz_short.mp3,tone_number_task+delay_block+tone_number_task_remaining_before_delay+empty_block,a,752.0,j,498.0
1.0,7.0,tone_number_task,1142.5,992.5,tones/440hz_short.mp3,23,tones/440hz_short.mp3,tone_number_task+delay_block+tone_number_task_remaining_before_delay+empty_block,a,888.0,j,344.0
1.0,8.0,tone_number_task,1175.0,1025.0,tones/440hz_short.mp3,33,tones/440hz_short.mp3,tone_number_task+delay_block+tone_number_task_remaining_before_delay+empty_block,a,701.0,j,655.0
1.0,9.0,tone_number_task,1142.5,992.5,tones/440hz_short.mp3,55,tones/440hz_short.mp3,tone_number_task+delay_block+tone_number_task_remaining_before_delay+empty_block,a,629.0,k,437.0
1.0,10.0,tone_number_task,252.5,102.5,tones/440hz_short.mp3,69,tones/440hz_short.mp3,tone_number_task+empty_block+empty_block,a,1108.5,k,1218.0
1.0,11.0,tone_number_task,1175.0,1025.0,tones/880hz_short.mp3,28,tones/880hz_short.mp3,tone_number_task+delay_block+tone_number_task_remaining_before_delay+empty_block,s,709.0,k,611.0
1.0,12.0,tone_number_task,1175.0,1025.0,tones/440hz_short.mp3,46,tones/440hz_short.mp3,tone_number_task+delay_block+tone_number_task_remaining_before_delay+empty_block,a,771.0,j,427.0
1.0,13.0,tone_number_task,1175.0,1025.0,tones/440hz_short.mp3,68,tones/440hz_short.mp3,tone_number_task+delay_block+tone_number_task_remaining_before_delay+empty_block,a,800.0,k,424.0
1.0,14.0,tone_number_task,1175.0,1025.0,tones/440hz_short.mp3,32,tones/440hz_short.mp3,tone_number_task+delay_block+tone_number_task_remaining_before_delay+empty_block,a,749.0,j,512.0
1.0,15.0,tone_number_task,1175.0,1025.0,tones/440hz_short.mp3,44,tones/440hz_short.mp3,tone_number_task+delay_block+tone_number_task_remaining_before_delay+empty_block,a,699.0,j,868.0
1.0,16.0,tone_number_task,150.0,0.0,tones/880hz_short.mp3,60,tones/880hz_short.mp3,tone_number_task+empty_block+empty_block,s,891.0,k,1091.0
1.0,17.0,tone_number_task,1142.5,992.5,tones/880hz_short.mp3,66,tones/880hz_short.mp3,tone_number_task+delay_block+tone_number_task_remaining_before_delay+empty_block,s,840.0,k,501.0
1.0,18.0,tone_number_task,252.5,102.5,tones/440hz_short.mp3,33,tones/440hz_short.mp3,tone_number_task+empty_block+empty_block,a,908.5,j,978.0
1.0,19.0,tone_number_task,150.0,0.0,tones/880hz_short.mp3,66,tones/880hz_short.mp3,tone_number_task+empty_block+empty_block,s,755.0,k,1005.0
1.0,20.0,tone_number_task,252.5,102.5,tones/440hz_short.mp3,26,tones/440hz_short.mp3,tone_number_task+empty_block+empty_block,a,1255.5,j,1422.0
1.0,21.0,tone_number_task,1142.5,992.5,tones/440hz_short.mp3,46,tones/440hz_short.mp3,tone_number_task+delay_block+tone_number_task_remaining_before_delay+empty_block,a,720.0,k,507.0
1.0,23.0,tone_number_task,252.5,102.5,tones/880hz_short.mp3,49,tones/880hz_short.mp3,tone_number_task+empty_block+empty_block,s,599.5,k,805.0
1.0,24.0,tone_number_task,150.0,0.0,tones/440hz_short.mp3,32,tones/440hz_short.mp3,tone_number_task+empty_block+empty_block,s,722.0,j,1143.0
1.0,25.0,tone_number_task,1142.5,992.5,tones/440hz_short.mp3,27,tones/440hz_short.mp3,tone_number_task+delay_block+tone_number_task_remaining_before_delay+empty_block,a,731.0,j,821.0
1.0,26.0,tone_number_task,150.0,0.0,tones/880hz_short.mp3,63,tones/880hz_short.mp3,tone_number_task+empty_block+empty_block,s,608.0,k,898.0
1.0,27.0,tone_number_task,1175.0,1025.0,tones/880hz_short.mp3,48,tones/880hz_short.mp3,tone_number_task+delay_block+tone_number_task_remaining_before_delay+empty_block,s,800.0,k,570.0
1.0,28.0,tone_number_task,252.5,102.5,tones/440hz_short.mp3,60,tones/440hz_short.mp3,tone_number_task+empty_block+empty_block,a,526.5,k,880.0
1.0,29.0,tone_number_task,1142.5,992.5,tones/880hz_short.mp3,57,tones/880hz_short.mp3,tone_number_task+delay_block+tone_number_task_remaining_before_delay+empty_block,s,659.0,j,547.0
1.0,30.0,tone_number_task,252.5,102.5,tones/440hz_short.mp3,34,tones/440hz_short.mp3,tone_number_task+empty_block+empty_block,a,597.5,j,966.0
1.0,31.0,tone_number_task,252.5,102.5,tones/880hz_short.mp3,28,tones/880hz_short.mp3,tone_number_task+empty_block+empty_block,s,949.5,j,1117.0
1.0,32.0,tone_number_task,252.5,102.5,tones/880hz_short.mp3,49,tones/880hz_short.mp3,tone_number_task+empty_block+empty_block,s,967.5,k,1308.0
1.0,33.0,tone_number_task,1142.5,992.5,tones/440hz_short.mp3,28,tones/440hz_short.mp3,tone_number_task+delay_block+tone_number_task_remaining_before_delay+empty_block,a,600.0,j,366.0
1.0,34.0,tone_number_task,1175.0,1025.0,tones/880hz_short.mp3,56,tones/880hz_short.mp3,tone_number_task+delay_block+tone_number_task_remaining_before_delay+empty_block,s,1000.0,k,512.0
1.0,35.0,tone_number_task,1142.5,992.5,tones/880hz_short.mp3,48,tones/880hz_short.mp3,tone_number_task+delay_block+tone_number_task_remaining_before_delay+empty_block,s,829.0,j,439.0
1.0,36.0,tone_number_task,150.0,0.0,tones/440hz_short.mp3,37,tones/440hz_short.mp3,tone_number_task+empty_block+empty_block,a,683.0,j,1091.0
1.0,37.0,tone_number_task,252.5,102.5,tones/880hz_short.mp3,40,tones/880hz_short.mp3,tone_number_task+empty_block+empty_block,s,711.5,j,1154.0
1.0,38.0,tone_number_task,1142.5,992.5,tones/440hz_short.mp3,31,tones/440hz_short.mp3,tone_number_task+delay_block+tone_number_task_remaining_before_delay+empty_block,a,672.0,j,519.0
1.0,39.0,tone_number_task,1175.0,1025.0,tones/440hz_short.mp3,46,tones/440hz_short.mp3,tone_number_task+delay_block+tone_number_task_remaining_before_delay+empty_block,a,568.0,k,747.0
2.0,0.0,tone_number_task,150.0,0.0,tones/880hz_short.mp3,sesenta y uno,tones/880hz_short.mp3,tone_number_task+empty_block+empty_block,s,875.0,k,1170.0
2.0,1.0,tone_number_task,252.5,102.5,tones/440hz_short.mp3,veintitres,tones/440hz_short.mp3,tone_number_task+empty_block+empty_block,a,1285.5,j,1537.0
2.0,2.0,tone_number_task,1142.5,992.5,tones/440hz_short.mp3,sesenta y dos,tones/440hz_short.mp3,tone_number_task+delay_block+tone_number_task_remaining_before_delay+empty_block,a,488.0,k,642.0
2.0,3.0,tone_number_task,150.0,0.0,tones/440hz_short.mp3,cincuenta y ocho,tones/440hz_short.mp3,tone_number_task+empty_block+empty_block,a,429.0,k,933.0
2.0,4.0,tone_number_task,1142.5,992.5,tones/440hz_short.mp3,cincuenta y seis,tones/440hz_short.mp3,tone_number_task+delay_block+tone_number_task_remaining_before_delay+empty_block,a,440.0,k,565.0
2.0,5.0,tone_number_task,1142.5,992.5,tones/440hz_short.mp3,cincuenta y seis,tones/440hz_short.mp3,tone_number_task+delay_block+tone_number_task_remaining_before_delay+empty_block,a,429.0,k,466.0
2.0,6.0,tone_number_task,252.5,102.5,tones/440hz_short.mp3,treinta y siete,tones/440hz_short.mp3,tone_number_task+empty_block+empty_block,a,1337.5,j,1372.0
2.0,7.0,tone_number_task,1175.0,1025.0,tones/880hz_short.mp3,veintitres,tones/880hz_short.mp3,tone_number_task+delay_block+tone_number_task_remaining_before_delay+empty_block,s,512.0,j,549.0
2.0,8.0,tone_number_task,1142.5,992.5,tones/880hz_short.mp3,sesenta y nueve,tones/880hz_short.mp3,tone_number_task+delay_block+tone_number_task_remaining_before_delay+empty_block,a,451.0,k,520.0
2.0,9.0,tone_number_task,1175.0,1025.0,tones/440hz_short.mp3,veintitres,tones/440hz_short.mp3,tone_number_task+delay_block+tone_number_task_remaining_before_delay+empty_block,a,349.0,j,584.0
2.0,10.0,tone_number_task,252.5,102.5,tones/440hz_short.mp3,cincuenta y cinco,tones/440hz_short.mp3,tone_number_task+empty_block+empty_block,s,678.5,k,1170.0
2.0,11.0,tone_number_task,1175.0,1025.0,tones/880hz_short.mp3,treinta,tones/880hz_short.mp3,tone_number_task+delay_block+tone_number_task_remaining_before_delay+empty_block,s,691.0,j,528.0
2.0,12.0,tone_number_task,252.5,102.5,tones/440hz_short.mp3,cincuenta y dos,tones/440hz_short.mp3,tone_number_task+empty_block+empty_block,a,455.5,k,933.0
2.0,14.0,tone_number_task,1175.0,1025.0,tones/440hz_short.mp3,cincuenta y dos,tones/440hz_short.mp3,tone_number_task+delay_block+tone_number_task_remaining_before_delay+empty_block,a,669.0,k,610.0
2.0,15.0,tone_number_task,150.0,0.0,tones/440hz_short.mp3,cuarenta y tres,tones/440hz_short.mp3,tone_number_task+empty_block+empty_block,a,422.0,k,1038.0
2.0,16.0,tone_number_task,252.5,102.5,tones/440hz_short.mp3,veintinueve,tones/440hz_short.mp3,tone_number_task+empty_block+empty_block,a,847.5,j,1122.0
2.0,17.0,tone_number_task,1142.5,992.5,tones/880hz_short.mp3,cuarenta y dos,tones/880hz_short.mp3,tone_number_task+delay_block+tone_number_task_remaining_before_delay+empty_block,s,440.0,j,764.0
2.0,18.0,tone_number_task,150.0,0.0,tones/440hz_short.mp3,treinta y cuatro,tones/440hz_short.mp3,tone_number_task+empty_block+empty_block,a,1288.0,j,1955.0
2.0,19.0,tone_number_task,252.5,102.5,tones/880hz_short.mp3,sesenta y nueve,tones/880hz_short.mp3,tone_number_task+empty_block+empty_block,s,727.5,k,991.0
2.0,20.0,tone_number_task,1175.0,1025.0,tones/440hz_short.mp3,sesenta,tones/440hz_short.mp3,tone_number_task+delay_block+tone_number_task_remaining_before_delay+empty_block,a,589.0,k,507.0
2.0,21.0,tone_number_task,1175.0,1025.0,tones/440hz_short.mp3,sesenta,tones/440hz_short.mp3,tone_number_task+delay_block+tone_number_task_remaining_before_delay+empty_block,a,1000.0,k,460.0
2.0,22.0,tone_number_task,1175.0,1025.0,tones/880hz_short.mp3,cincuenta y siete,tones/880hz_short.mp3,tone_number_task+delay_block+tone_number_task_remaining_before_delay+empty_block,s,520.0,k,1190.0
2.0,23.0,tone_number_task,1142.5,992.5,tones/440hz_short.mp3,treinta,tones/440hz_short.mp3,tone_number_task+tone_number_task_remaining_after_delay+empty_block,a,1021.0,j,538.0
2.0,24.0,tone_number_task,252.5,102.5,tones/440hz_short.mp3,cincuenta y cuatro,tones/440hz_short.mp3,tone_number_task+empty_block+empty_block,a,537.5,k,893.0
2.0,25.0,tone_number_task,252.5,102.5,tones/880hz_short.mp3,cuarenta y dos,tones/880hz_short.mp3,tone_number_task+empty_block+empty_block,s,564.5,j,855.0
2.0,26.0,tone_number_task,1175.0,1025.0,tones/880hz_short.mp3,cincuenta y nueve,tones/880hz_short.mp3,tone_number_task+delay_block+tone_number_task_remaining_before_delay+empty_block,s,600.0,k,552.0
2.0,27.0,tone_number_task,1142.5,992.5,tones/880hz_short.mp3,cincuenta y tres,tones/880hz_short.mp3,tone_number_task+delay_block+tone_number_task_remaining_before_delay+empty_block,s,520.0,k,596.0
2.0,28.0,tone_number_task,252.5,102.5,tones/880hz_short.mp3,treinta y cuatro,tones/880hz_short.mp3,tone_number_task+empty_block+empty_block,s,1006.5,j,1344.0
2.0,29.0,tone_number_task,150.0,0.0,tones/880hz_short.mp3,treinta y cinco,tones/880hz_short.mp3,tone_number_task+empty_block+empty_block,s,473.0,j,1374.0
2.0,30.0,tone_number_task,150.0,0.0,tones/880hz_short.mp3,veintinueve,tones/880hz_short.mp3,tone_number_task+empty_block+empty_block,s,589.0,j,1045.0
2.0,31.0,tone_number_task,1175.0,1025.0,tones/880hz_short.mp3,sesenta y nueve,tones/880hz_short.mp3,tone_number_task+delay_block+tone_number_task_remaining_before_delay+empty_block,s,419.0,k,590.0
2.0,32.0,tone_number_task,150.0,0.0,tones/880hz_short.mp3,cuarenta y ocho,tones/880hz_short.mp3,tone_number_task+empty_block+empty_block,s,476.0,j,807.0
2.0,33.0,tone_number_task,150.0,0.0,tones/440hz_short.mp3,cincuenta y dos,tones/440hz_short.mp3,tone_number_task+empty_block+empty_block,a,762.0,j,1095.0
2.0,34.0,tone_number_task,1142.5,992.5,tones/880hz_short.mp3,treinta y ocho,tones/880hz_short.mp3,tone_number_task+delay_block+tone_number_task_remaining_before_delay+empty_block,s,600.0,j,582.0
2.0,36.0,tone_number_task,1142.5,992.5,tones/440hz_short.mp3,sesenta y cinco,tones/440hz_short.mp3,tone_number_task+delay_block+tone_number_task_remaining_before_delay+empty_block,a,480.0,k,1273.0
2.0,37.0,tone_number_task,150.0,0.0,tones/880hz_short.mp3,cincuenta y ocho,tones/880hz_short.mp3,tone_number_task+empty_block+empty_block,s,937.0,k,1419.0
2.0,38.0,tone_number_task,1142.5,992.5,tones/440hz_short.mp3,veintiocho,tones/440hz_short.mp3,tone_number_task+delay_block+tone_number_task_remaining_before_delay+empty_block,a,619.0,j,570.0
2.0,39.0,tone_number_task,1175.0,1025.0,tones/440hz_short.mp3,veintisiete,tones/440hz_short.mp3,tone_number_task+delay_block+tone_number_task_remaining_before_delay+empty_block,a,728.0,j,493.0
3.0,0.0,tone_number_task,1142.5,992.5,tones/880hz_short.mp3,treinta y nueve,tones/880hz_short.mp3,tone_number_task+delay_block+tone_number_task_remaining_before_delay+empty_block,s,648.0,j,617.0
3.0,1.0,tone_number_task,252.5,102.5,tones/880hz_short.mp3,cuarenta y ocho,tones/880hz_short.mp3,tone_number_task+empty_block+empty_block,s,995.5,k,1296.0
3.0,2.0,tone_number_task,252.5,102.5,tones/440hz_short.mp3,veintiocho,tones/440hz_short.mp3,tone_number_task+empty_block+empty_block,a,702.5,j,908.0
3.0,3.0,tone_number_task,1142.5,992.5,tones/880hz_short.mp3,cincuenta y nueve,tones/880hz_short.mp3,tone_number_task+delay_block+tone_number_task_remaining_before_delay+empty_block,s,712.0,k,963.0
3.0,4.0,tone_number_task,1142.5,992.5,tones/880hz_short.mp3,treinta,tones/880hz_short.mp3,tone_number_task+delay_block+tone_number_task_remaining_before_delay+empty_block,s,581.0,j,498.0
3.0,5.0,tone_number_task,252.5,102.5,tones/880hz_short.mp3,sesenta y cinco,tones/880hz_short.mp3,tone_number_task+empty_block+empty_block,s,891.5,k,1097.0
3.0,6.0,tone_number_task,1142.5,992.5,tones/880hz_short.mp3,treinta y cinco,tones/880hz_short.mp3,tone_number_task+delay_block+tone_number_task_remaining_before_delay+empty_block,s,429.0,j,603.0
3.0,7.0,tone_number_task,252.5,102.5,tones/880hz_short.mp3,veintiseis,tones/880hz_short.mp3,tone_number_task+empty_block+empty_block,s,1129.5,j,1251.0
3.0,9.0,tone_number_task,252.5,102.5,tones/440hz_short.mp3,sesenta y tres,tones/440hz_short.mp3,tone_number_task+empty_block+empty_block,a,456.5,k,718.0
3.0,10.0,tone_number_task,150.0,0.0,tones/880hz_short.mp3,cincuenta y dos,tones/880hz_short.mp3,tone_number_task+empty_block+empty_block,s,860.0,j,1163.0
3.0,11.0,tone_number_task,1175.0,1025.0,tones/880hz_short.mp3,veintinueve,tones/880hz_short.mp3,tone_number_task+delay_block+tone_number_task_remaining_before_delay+empty_block,s,571.0,j,455.0
3.0,12.0,tone_number_task,150.0,0.0,tones/440hz_short.mp3,cincuenta y cuatro,tones/440hz_short.mp3,tone_number_task+empty_block+empty_block,a,953.0,k,1272.0
3.0,13.0,tone_number_task,150.0,0.0,tones/440hz_short.mp3,treinta y seis,tones/440hz_short.mp3,tone_number_task+empty_block+empty_block,a,883.0,j,1248.0
3.0,14.0,tone_number_task,1142.5,992.5,tones/440hz_short.mp3,sesenta,tones/440hz_short.mp3,tone_number_task+delay_block+tone_number_task_remaining_before_delay+empty_block,a,448.0,k,488.0
3.0,15.0,tone_number_task,252.5,102.5,tones/440hz_short.mp3,cuarenta y seis,tones/440hz_short.mp3,tone_number_task+empty_block+empty_block,a,705.5,k,1280.0
3.0,16.0,tone_number_task,1175.0,1025.0,tones/880hz_short.mp3,sesenta y siete,tones/880hz_short.mp3,tone_number_task+delay_block+tone_number_task_remaining_before_delay+empty_block,s,731.0,k,595.0
3.0,17.0,tone_number_task,252.5,102.5,tones/440hz_short.mp3,cincuenta y dos,tones/440hz_short.mp3,tone_number_task+empty_block+empty_block,a,596.5,k,843.0
3.0,18.0,tone_number_task,1175.0,1025.0,tones/880hz_short.mp3,treinta y cinco,tones/880hz_short.mp3,tone_number_task+delay_block+tone_number_task_remaining_before_delay+empty_block,s,661.0,j,760.0
3.0,19.0,tone_number_task,1142.5,992.5,tones/880hz_short.mp3,cincuenta y nueve,tones/880hz_short.mp3,tone_number_task+delay_block+tone_number_task_remaining_before_delay+empty_block,s,632.0,k,631.0
3.0,20.0,tone_number_task,150.0,0.0,tones/880hz_short.mp3,cuarenta y siete,tones/880hz_short.mp3,tone_number_task+empty_block+empty_block,s,414.0,k,1042.0
3.0,21.0,tone_number_task,1175.0,1025.0,tones/880hz_short.mp3,sesenta y seis,tones/880hz_short.mp3,tone_number_task+delay_block+tone_number_task_remaining_before_delay+empty_block,s,720.0,k,500.0
3.0,22.0,tone_number_task,150.0,0.0,tones/440hz_short.mp3,sesenta y tres,tones/440hz_short.mp3,tone_number_task+empty_block+empty_block,a,394.0,k,833.0
3.0,23.0,tone_number_task,252.5,102.5,tones/880hz_short.mp3,cuarenta y tres,tones/880hz_short.mp3,tone_number_task+empty_block+empty_block,s,903.5,k,1260.0
3.0,24.0,tone_number_task,1142.5,992.5,tones/440hz_short.mp3,sesenta y tres,tones/440hz_short.mp3,tone_number_task+delay_block+tone_number_task_remaining_before_delay+empty_block,a,501.0,k,474.0
3.0,25.0,tone_number_task,1175.0,1025.0,tones/880hz_short.mp3,cuarenta y nueve,tones/880hz_short.mp3,tone_number_task+delay_block+tone_number_task_remaining_before_delay+empty_block,s,789.0,k,540.0
3.0,27.0,tone_number_task,1175.0,1025.0,tones/880hz_short.mp3,cuarenta y dos,tones/880hz_short.mp3,tone_number_task+delay_block+tone_number_task_remaining_before_delay+empty_block,s,459.0,j,688.0
3.0,28.0,tone_number_task,150.0,0.0,tones/440hz_short.mp3,veintiseis,tones/440hz_short.mp3,tone_number_task+empty_block+empty_block,a,624.0,j,1004.0
3.0,29.0,tone_number_task,252.5,102.5,tones/440hz_short.mp3,treinta y cuatro,tones/440hz_short.mp3,tone_number_task+empty_block+empty_block,a,638.5,j,1029.0
3.0,30.0,tone_number_task,1142.5,992.5,tones/880hz_short.mp3,treinta,tones/880hz_short.mp3,tone_number_task+delay_block+tone_number_task_remaining_before_delay+empty_block,s,531.0,j,396.0
3.0,31.0,tone_number_task,150.0,0.0,tones/880hz_short.mp3,cuarenta,tones/880hz_short.mp3,tone_number_task+empty_block+empty_block,s,1052.0,k,1347.0
3.0,32.0,tone_number_task,1175.0,1025.0,tones/440hz_short.mp3,cuarenta,tones/440hz_short.mp3,tone_number_task+delay_block+tone_number_task_remaining_before_delay+empty_block,a,691.0,j,573.0
3.0,33.0,tone_number_task,1175.0,1025.0,tones/880hz_short.mp3,veinticuatro,tones/880hz_short.mp3,tone_number_task+delay_block+tone_number_task_remaining_before_delay+empty_block,s,608.0,j,481.0
3.0,34.0,tone_number_task,252.5,102.5,tones/440hz_short.mp3,veinticuatro,tones/440hz_short.mp3,tone_number_task+empty_block+empty_block,a,671.5,j,982.0
3.0,36.0,tone_number_task,1175.0,1025.0,tones/880hz_short.mp3,sesenta y seis,tones/880hz_short.mp3,tone_number_task+delay_block+tone_number_task_remaining_before_delay+empty_block,s,589.0,k,541.0
3.0,37.0,tone_number_task,1175.0,1025.0,tones/440hz_short.mp3,treinta y nueve,tones/440hz_short.mp3,tone_number_task+delay_block+tone_number_task_remaining_before_delay+empty_block,s,440.0,j,552.0
3.0,38.0,tone_number_task,1142.5,992.5,tones/880hz_short.mp3,cincuenta y uno,tones/880hz_short.mp3,tone_number_task+delay_block+tone_number_task_remaining_before_delay+empty_block,s,600.0,k,659.0
3.0,39.0,tone_number_task,150.0,0.0,tones/440hz_short.mp3,treinta y nueve,tones/440hz_short.mp3,tone_number_task+empty_block+empty_block,a,553.0,j,991.0
