block,round,task,trial_duration,delay,audioFile,number,stimulus,type,response_1,rt_1,response_2,rt_2,is_word
0.0,3.0,tone_number_task,1175.0,1025.0,tones/440hz_short.mp3,21,tones/440hz_short.mp3,tone_number_task+empty_block+empty_block,a,1569.0,j,545.0,False
0.0,6.0,tone_number_task,1142.5,992.5,tones/440hz_short.mp3,25,tones/440hz_short.mp3,tone_number_task+empty_block+empty_block,a,1573.5,j,641.0,False
0.0,8.0,tone_number_task,252.5,102.5,tones/440hz_short.mp3,34,tones/440hz_short.mp3,tone_number_task+empty_block+empty_block,a,1194.5,j,1093.0,False
0.0,10.0,tone_number_task,1175.0,1025.0,tones/440hz_short.mp3,61,tones/440hz_short.mp3,tone_number_task+empty_block+empty_block,a,1972.0,k,948.0,False
0.0,11.0,tone_number_task,252.5,102.5,tones/880hz_short.mp3,34,tones/880hz_short.mp3,tone_number_task+empty_block+empty_block,,,j,,False
0.0,12.0,tone_number_task,252.5,102.5,tones/880hz_short.mp3,32,tones/880hz_short.mp3,tone_number_task+empty_block+empty_block,,,j,,False
0.0,15.0,tone_number_task,252.5,102.5,tones/440hz_short.mp3,49,tones/440hz_short.mp3,tone_number_task+empty_block+empty_block,a,1430.5,k,1333.0,False
0.0,16.0,tone_number_task,1175.0,1025.0,tones/440hz_short.mp3,29,tones/440hz_short.mp3,tone_number_task+empty_block+empty_block,a,1567.0,j,549.0,False
0.0,17.0,tone_number_task,1142.5,992.5,tones/440hz_short.mp3,21,tones/440hz_short.mp3,tone_number_task+empty_block+empty_block,,,j,,False
0.0,18.0,tone_number_task,150.0,0.0,tones/880hz_short.mp3,40,tones/880hz_short.mp3,tone_number_task+empty_block+empty_block,s,1312.0,j,1333.0,False
0.0,20.0,tone_number_task,150.0,0.0,tones/880hz_short.mp3,56,tones/880hz_short.mp3,tone_number_task+empty_block+empty_block,s,887.0,k,888.0,False
0.0,21.0,tone_number_task,150.0,0.0,tones/440hz_short.mp3,38,tones/440hz_short.mp3,tone_number_task+empty_block+empty_block,,,j,,False
0.0,23.0,tone_number_task,1175.0,1025.0,tones/880hz_short.mp3,37,tones/880hz_short.mp3,tone_number_task+empty_block+empty_block,s,2329.0,j,1339.0,False
0.0,27.0,tone_number_task,1142.5,992.5,tones/440hz_short.mp3,66,tones/440hz_short.mp3,tone_number_task+empty_block+empty_block,a,1421.5,k,441.0,False
0.0,28.0,tone_number_task,150.0,0.0,tones/880hz_short.mp3,43,tones/880hz_short.mp3,tone_number_task+empty_block+empty_block,,,,,False
0.0,29.0,tone_number_task,1142.5,992.5,tones/880hz_short.mp3,59,tones/880hz_short.mp3,tone_number_task+empty_block+empty_block,s,1468.5,k,551.0,False
0.0,30.0,tone_number_task,1175.0,1025.0,tones/440hz_short.mp3,30,tones/440hz_short.mp3,tone_number_task+empty_block+empty_block,a,1643.0,j,638.0,False
0.0,31.0,tone_number_task,150.0,0.0,tones/880hz_short.mp3,69,tones/880hz_short.mp3,tone_number_task+empty_block+empty_block,s,1166.0,k,1167.0,False
0.0,33.0,tone_number_task,1142.5,992.5,tones/440hz_short.mp3,33,tones/440hz_short.mp3,tone_number_task+empty_block+empty_block,a,1564.5,j,575.0,False
0.0,36.0,tone_number_task,252.5,102.5,tones/880hz_short.mp3,37,tones/880hz_short.mp3,tone_number_task+empty_block+empty_block,,,j,,False
0.0,37.0,tone_number_task,1142.5,992.5,tones/440hz_short.mp3,29,tones/440hz_short.mp3,tone_number_task+empty_block+empty_block,a,1922.5,j,931.0,False
0.0,38.0,tone_number_task,1142.5,992.5,tones/440hz_short.mp3,64,tones/440hz_short.mp3,tone_number_task+empty_block+empty_block,a,1866.5,k,875.0,False
1.0,0.0,tone_number_task,150.0,0.0,tones/440hz_short.mp3,25,tones/440hz_short.mp3,tone_number_task+empty_block+empty_block,a,860.0,j,860.0,False
1.0,1.0,tone_number_task,1175.0,1025.0,tones/880hz_short.mp3,35,tones/880hz_short.mp3,tone_number_task+empty_block+empty_block,s,1634.0,j,713.0,False
1.0,2.0,tone_number_task,150.0,0.0,tones/440hz_short.mp3,60,tones/440hz_short.mp3,tone_number_task+empty_block+empty_block,,,k,,False
1.0,3.0,tone_number_task,1142.5,992.5,tones/880hz_short.mp3,21,tones/880hz_short.mp3,tone_number_task+empty_block+empty_block,s,1888.5,j,921.0,False
1.0,4.0,tone_number_task,150.0,0.0,tones/440hz_short.mp3,64,tones/440hz_short.mp3,tone_number_task+empty_block+empty_block,a,1145.0,k,1163.0,False
1.0,6.0,tone_number_task,252.5,102.5,tones/880hz_short.mp3,23,tones/880hz_short.mp3,tone_number_task+empty_block+empty_block,s,1272.5,j,1197.0,False
1.0,8.0,tone_number_task,1142.5,992.5,tones/880hz_short.mp3,21,tones/880hz_short.mp3,tone_number_task+empty_block+empty_block,s,1486.5,j,528.0,False
1.0,10.0,tone_number_task,1142.5,992.5,tones/880hz_short.mp3,25,tones/880hz_short.mp3,tone_number_task+empty_block+empty_block,s,1366.5,j,391.0,False
1.0,11.0,tone_number_task,1142.5,992.5,tones/880hz_short.mp3,32,tones/880hz_short.mp3,tone_number_task+empty_block+empty_block,s,1550.5,j,560.0,False
1.0,13.0,tone_number_task,150.0,0.0,tones/880hz_short.mp3,41,tones/880hz_short.mp3,tone_number_task+empty_block+empty_block,,,,,False
1.0,14.0,tone_number_task,150.0,0.0,tones/880hz_short.mp3,35,tones/880hz_short.mp3,tone_number_task+empty_block+empty_block,,,j,,False
1.0,15.0,tone_number_task,1175.0,1025.0,tones/880hz_short.mp3,22,tones/880hz_short.mp3,tone_number_task+empty_block+empty_block,s,1635.0,j,707.0,False
1.0,16.0,tone_number_task,1142.5,992.5,tones/880hz_short.mp3,49,tones/880hz_short.mp3,tone_number_task+empty_block+empty_block,s,1550.5,k,559.0,False
1.0,17.0,tone_number_task,1175.0,1025.0,tones/440hz_short.mp3,29,tones/440hz_short.mp3,tone_number_task+empty_block+empty_block,,,j,,False
1.0,23.0,tone_number_task,1142.5,992.5,tones/880hz_short.mp3,40,tones/880hz_short.mp3,tone_number_task+empty_block+empty_block,s,1641.5,j,681.0,False
1.0,24.0,tone_number_task,1142.5,992.5,tones/880hz_short.mp3,54,tones/880hz_short.mp3,tone_number_task+empty_block+empty_block,s,1698.5,k,722.0,False
1.0,25.0,tone_number_task,252.5,102.5,tones/440hz_short.mp3,61,tones/440hz_short.mp3,tone_number_task+empty_block+empty_block,a,1076.5,k,998.0,False
1.0,29.0,tone_number_task,252.5,102.5,tones/440hz_short.mp3,51,tones/440hz_short.mp3,tone_number_task+empty_block+empty_block,a,1136.5,k,1035.0,False
1.0,31.0,tone_number_task,1175.0,1025.0,tones/440hz_short.mp3,56,tones/440hz_short.mp3,tone_number_task+empty_block+empty_block,,,k,,False
1.0,32.0,tone_number_task,252.5,102.5,tones/440hz_short.mp3,59,tones/440hz_short.mp3,tone_number_task+empty_block+empty_block,a,775.5,k,674.0,False
1.0,36.0,tone_number_task,1175.0,1025.0,tones/440hz_short.mp3,25,tones/440hz_short.mp3,tone_number_task+delay_block+tone_number_task_remaining_before_delay+empty_block,a,861.0,j,583.0,False
1.0,37.0,tone_number_task,1175.0,1025.0,tones/880hz_short.mp3,48,tones/880hz_short.mp3,tone_number_task+empty_block+empty_block,s,1368.0,k,590.0,False
1.0,38.0,tone_number_task,150.0,0.0,tones/880hz_short.mp3,69,tones/880hz_short.mp3,tone_number_task+empty_block+empty_block,s,762.0,k,857.0,False
1.0,39.0,tone_number_task,1175.0,1025.0,tones/440hz_short.mp3,57,tones/440hz_short.mp3,tone_number_task+empty_block+empty_block,a,1550.0,k,587.0,False
2.0,0.0,tone_number_task,150.0,0.0,tones/440hz_short.mp3,41,tones/440hz_short.mp3,tone_number_task+empty_block+empty_block,a,608.0,,,True
2.0,1.0,tone_number_task,1175.0,1025.0,tones/880hz_short.mp3,22,tones/880hz_short.mp3,tone_number_task+delay_block+tone_number_task_remaining_before_delay+empty_block,s,749.0,j,945.0,True
2.0,2.0,tone_number_task,1142.5,992.5,tones/880hz_short.mp3,22,tones/880hz_short.mp3,tone_number_task+delay_block+tone_number_task_remaining_before_delay+empty_block,s,992.0,j,531.0,True
2.0,3.0,tone_number_task,150.0,0.0,tones/880hz_short.mp3,65,tones/880hz_short.mp3,tone_number_task+empty_block+empty_block,,,k,,True
2.0,5.0,tone_number_task,1142.5,992.5,tones/440hz_short.mp3,58,tones/440hz_short.mp3,tone_number_task+empty_block+empty_block,a,1249.5,k,734.0,True
2.0,6.0,tone_number_task,1142.5,992.5,tones/440hz_short.mp3,42,tones/440hz_short.mp3,tone_number_task+tone_number_task_remaining_after_delay+empty_block,a,1131.0,j,1051.0,True
2.0,8.0,tone_number_task,1175.0,1025.0,tones/440hz_short.mp3,40,tones/440hz_short.mp3,tone_number_task+empty_block+empty_block,a,1456.0,j,1075.0,True
2.0,9.0,tone_number_task,1142.5,992.5,tones/880hz_short.mp3,28,tones/880hz_short.mp3,tone_number_task+empty_block+empty_block,s,1145.5,j,909.0,True
2.0,11.0,tone_number_task,150.0,0.0,tones/440hz_short.mp3,25,tones/440hz_short.mp3,tone_number_task+empty_block+empty_block,,,j,,True
2.0,14.0,tone_number_task,1175.0,1025.0,tones/440hz_short.mp3,32,tones/440hz_short.mp3,tone_number_task+empty_block+empty_block,a,1774.0,j,921.0,True
2.0,15.0,tone_number_task,150.0,0.0,tones/440hz_short.mp3,55,tones/440hz_short.mp3,tone_number_task+empty_block+empty_block,a,958.0,k,1073.0,True
2.0,16.0,tone_number_task,252.5,102.5,tones/440hz_short.mp3,63,tones/440hz_short.mp3,tone_number_task+empty_block+empty_block,a,1285.5,k,1266.0,True
2.0,17.0,tone_number_task,1142.5,992.5,tones/440hz_short.mp3,49,tones/440hz_short.mp3,tone_number_task+empty_block+empty_block,a,2028.5,k,1095.0,True
2.0,18.0,tone_number_task,1175.0,1025.0,tones/440hz_short.mp3,46,tones/440hz_short.mp3,tone_number_task+empty_block+empty_block,a,1982.0,k,1049.0,True
2.0,19.0,tone_number_task,1142.5,992.5,tones/880hz_short.mp3,63,tones/880hz_short.mp3,tone_number_task+empty_block+empty_block,s,1924.5,k,1047.0,True
2.0,20.0,tone_number_task,1142.5,992.5,tones/440hz_short.mp3,40,tones/440hz_short.mp3,tone_number_task+empty_block+empty_block,a,1811.5,j,942.0,True
2.0,21.0,tone_number_task,1142.5,992.5,tones/440hz_short.mp3,29,tones/440hz_short.mp3,tone_number_task+empty_block+empty_block,a,1835.5,j,966.0,True
2.0,29.0,tone_number_task,1175.0,1025.0,tones/880hz_short.mp3,51,tones/880hz_short.mp3,tone_number_task+empty_block+empty_block,s,1786.0,k,795.0,True
2.0,30.0,tone_number_task,1142.5,992.5,tones/880hz_short.mp3,36,tones/880hz_short.mp3,tone_number_task+empty_block+empty_block,s,1754.5,j,788.0,True
2.0,32.0,tone_number_task,1175.0,1025.0,tones/440hz_short.mp3,32,tones/440hz_short.mp3,tone_number_task+empty_block+empty_block,a,1884.0,j,869.0,True
2.0,35.0,tone_number_task,1175.0,1025.0,tones/440hz_short.mp3,59,tones/440hz_short.mp3,tone_number_task+empty_block+empty_block,a,1926.0,k,903.0,True
2.0,38.0,tone_number_task,150.0,0.0,tones/880hz_short.mp3,52,tones/880hz_short.mp3,tone_number_task+empty_block+empty_block,s,1113.0,k,1123.0,True
2.0,39.0,tone_number_task,150.0,0.0,tones/880hz_short.mp3,26,tones/880hz_short.mp3,tone_number_task+empty_block+empty_block,s,985.0,j,994.0,True
3.0,0.0,tone_number_task,1175.0,1025.0,tones/880hz_short.mp3,62,tones/880hz_short.mp3,tone_number_task+empty_block+empty_block,s,1677.0,k,860.0,True
3.0,5.0,tone_number_task,1175.0,1025.0,tones/880hz_short.mp3,51,tones/880hz_short.mp3,tone_number_task+empty_block+empty_block,s,1765.0,k,741.0,True
3.0,6.0,tone_number_task,252.5,102.5,tones/880hz_short.mp3,31,tones/880hz_short.mp3,tone_number_task+empty_block+empty_block,a,1387.5,j,1293.0,True
3.0,7.0,tone_number_task,1142.5,992.5,tones/880hz_short.mp3,23,tones/880hz_short.mp3,tone_number_task+empty_block+empty_block,s,1755.5,j,803.0,True
3.0,9.0,tone_number_task,1142.5,992.5,tones/440hz_short.mp3,62,tones/440hz_short.mp3,tone_number_task+empty_block+empty_block,a,1821.5,k,934.0,True
3.0,10.0,tone_number_task,1142.5,992.5,tones/440hz_short.mp3,38,tones/440hz_short.mp3,tone_number_task+empty_block+empty_block,a,1956.5,j,1069.0,True
3.0,11.0,tone_number_task,1142.5,992.5,tones/880hz_short.mp3,46,tones/880hz_short.mp3,tone_number_task+empty_block+empty_block,s,1534.5,k,647.0,True
3.0,12.0,tone_number_task,150.0,0.0,tones/880hz_short.mp3,64,tones/880hz_short.mp3,tone_number_task+empty_block+empty_block,s,1117.0,k,1198.0,True
3.0,13.0,tone_number_task,150.0,0.0,tones/880hz_short.mp3,30,tones/880hz_short.mp3,tone_number_task+empty_block+empty_block,s,1266.0,j,1298.0,True
3.0,14.0,tone_number_task,1175.0,1025.0,tones/880hz_short.mp3,26,tones/880hz_short.mp3,tone_number_task+empty_block+empty_block,s,1778.0,j,784.0,True
3.0,15.0,tone_number_task,150.0,0.0,tones/440hz_short.mp3,52,tones/440hz_short.mp3,tone_number_task+empty_block+empty_block,a,929.0,k,945.0,True
3.0,16.0,tone_number_task,1175.0,1025.0,tones/440hz_short.mp3,34,tones/440hz_short.mp3,tone_number_task+empty_block+empty_block,a,1948.0,j,964.0,True
3.0,17.0,tone_number_task,252.5,102.5,tones/880hz_short.mp3,33,tones/880hz_short.mp3,tone_number_task+empty_block+empty_block,s,1255.5,j,1185.0,True
3.0,20.0,tone_number_task,150.0,0.0,tones/440hz_short.mp3,65,tones/440hz_short.mp3,tone_number_task+empty_block+empty_block,,,k,,True
3.0,21.0,tone_number_task,1142.5,992.5,tones/880hz_short.mp3,22,tones/880hz_short.mp3,tone_number_task+empty_block+empty_block,s,2218.5,j,1258.0,True
3.0,22.0,tone_number_task,252.5,102.5,tones/440hz_short.mp3,46,tones/440hz_short.mp3,tone_number_task+empty_block+empty_block,,,,,True
3.0,23.0,tone_number_task,252.5,102.5,tones/880hz_short.mp3,42,tones/880hz_short.mp3,tone_number_task+empty_block+empty_block,s,1259.5,j,1158.0,True
3.0,26.0,tone_number_task,1142.5,992.5,tones/440hz_short.mp3,27,tones/440hz_short.mp3,tone_number_task+empty_block+empty_block,a,1695.5,j,726.0,True
3.0,27.0,tone_number_task,252.5,102.5,tones/440hz_short.mp3,63,tones/440hz_short.mp3,tone_number_task+empty_block+empty_block,a,1033.5,k,932.0,True
3.0,28.0,tone_number_task,1175.0,1025.0,tones/880hz_short.mp3,68,tones/880hz_short.mp3,tone_number_task+empty_block+empty_block,s,1806.0,k,788.0,True
3.0,32.0,tone_number_task,1142.5,992.5,tones/880hz_short.mp3,30,tones/880hz_short.mp3,tone_number_task+empty_block+empty_block,s,1608.5,j,617.0,True
3.0,33.0,tone_number_task,1175.0,1025.0,tones/440hz_short.mp3,69,tones/440hz_short.mp3,tone_number_task+empty_block+empty_block,a,1925.0,k,901.0,True
3.0,34.0,tone_number_task,1175.0,1025.0,tones/440hz_short.mp3,47,tones/440hz_short.mp3,tone_number_task+empty_block+empty_block,a,1874.0,k,850.0,True
3.0,35.0,tone_number_task,1175.0,1025.0,tones/880hz_short.mp3,56,tones/880hz_short.mp3,tone_number_task+empty_block+empty_block,s,1907.0,k,896.0,True
3.0,36.0,tone_number_task,252.5,102.5,tones/880hz_short.mp3,48,tones/880hz_short.mp3,tone_number_task+empty_block+empty_block,s,1362.5,k,1261.0,True
3.0,37.0,tone_number_task,150.0,0.0,tones/880hz_short.mp3,65,tones/880hz_short.mp3,tone_number_task+empty_block+empty_block,s,1122.0,k,1123.0,True
3.0,38.0,tone_number_task,150.0,0.0,tones/440hz_short.mp3,55,tones/440hz_short.mp3,tone_number_task+empty_block+empty_block,s,1162.0,k,1163.0,True
