block,round,task,trial_duration,delay,audioFile,number,stimulus,type,response_1,rt_1,response_2,rt_2
0.0,0.0,tone_number_task,1175.0,1025.0,tones/880hz_short.mp3,31,tones/880hz_short.mp3,tone_number_task+delay_block+tone_number_task_remaining_before_delay+empty_block,s,512.0,j,681.0
0.0,1.0,tone_number_task,150.0,0.0,tones/440hz_short.mp3,55,tones/440hz_short.mp3,tone_number_task+empty_block+empty_block,a,808.0,k,875.0
0.0,2.0,tone_number_task,150.0,0.0,tones/440hz_short.mp3,29,tones/440hz_short.mp3,tone_number_task+empty_block+empty_block,a,1157.0,j,1214.0
0.0,3.0,tone_number_task,1175.0,1025.0,tones/880hz_short.mp3,43,tones/880hz_short.mp3,tone_number_task+delay_block+tone_number_task_remaining_before_delay+empty_block,s,619.0,j,491.0
0.0,4.0,tone_number_task,1142.5,992.5,tones/880hz_short.mp3,43,tones/880hz_short.mp3,tone_number_task+delay_block+tone_number_task_remaining_before_delay+empty_block,s,736.0,j,464.0
0.0,5.0,tone_number_task,150.0,0.0,tones/880hz_short.mp3,25,tones/880hz_short.mp3,tone_number_task+empty_block+empty_block,s,643.0,j,1102.0
0.0,6.0,tone_number_task,252.5,102.5,tones/880hz_short.mp3,35,tones/880hz_short.mp3,tone_number_task+empty_block+empty_block,s,456.5,j,661.0
0.0,7.0,tone_number_task,150.0,0.0,tones/440hz_short.mp3,25,tones/440hz_short.mp3,tone_number_task+empty_block+empty_block,a,755.0,j,969.0
0.0,8.0,tone_number_task,1175.0,1025.0,tones/440hz_short.mp3,52,tones/440hz_short.mp3,tone_number_task+delay_block+tone_number_task_remaining_before_delay+empty_block,a,597.0,k,692.0
0.0,9.0,tone_number_task,1142.5,992.5,tones/440hz_short.mp3,60,tones/440hz_short.mp3,tone_number_task+delay_block+tone_number_task_remaining_before_delay+empty_block,a,672.0,k,655.0
0.0,10.0,tone_number_task,1175.0,1025.0,tones/880hz_short.mp3,65,tones/880hz_short.mp3,tone_number_task+delay_block+tone_number_task_remaining_before_delay+empty_block,s,597.0,k,501.0
0.0,11.0,tone_number_task,150.0,0.0,tones/880hz_short.mp3,66,tones/880hz_short.mp3,tone_number_task+empty_block+empty_block,s,819.0,k,917.0
0.0,12.0,tone_number_task,1175.0,1025.0,tones/440hz_short.mp3,23,tones/440hz_short.mp3,tone_number_task+delay_block+tone_number_task_remaining_before_delay+empty_block,a,640.0,j,585.0
0.0,13.0,tone_number_task,252.5,102.5,tones/880hz_short.mp3,34,tones/880hz_short.mp3,tone_number_task+empty_block+empty_block,s,953.5,k,1046.0
0.0,15.0,tone_number_task,1142.5,992.5,tones/440hz_short.mp3,24,tones/440hz_short.mp3,tone_number_task+delay_block+tone_number_task_remaining_before_delay+empty_block,a,661.0,j,409.0
0.0,16.0,tone_number_task,1175.0,1025.0,tones/880hz_short.mp3,40,tones/880hz_short.mp3,tone_number_task+delay_block+tone_number_task_remaining_before_delay+empty_block,s,896.0,j,956.0
0.0,17.0,tone_number_task,252.5,102.5,tones/880hz_short.mp3,24,tones/880hz_short.mp3,tone_number_task+empty_block+empty_block,s,953.5,j,1024.0
0.0,18.0,tone_number_task,1142.5,992.5,tones/440hz_short.mp3,67,tones/440hz_short.mp3,tone_number_task+delay_block+tone_number_task_remaining_before_delay+empty_block,a,565.0,k,410.0
0.0,19.0,tone_number_task,1142.5,992.5,tones/880hz_short.mp3,55,tones/880hz_short.mp3,tone_number_task+delay_block+tone_number_task_remaining_before_delay+empty_block,s,629.0,k,495.0
0.0,21.0,tone_number_task,1175.0,1025.0,tones/880hz_short.mp3,54,tones/880hz_short.mp3,tone_number_task+delay_block+tone_number_task_remaining_before_delay+empty_block,s,821.0,k,591.0
0.0,22.0,tone_number_task,1142.5,992.5,tones/880hz_short.mp3,37,tones/880hz_short.mp3,tone_number_task+delay_block+tone_number_task_remaining_before_delay+empty_block,s,715.0,j,394.0
0.0,23.0,tone_number_task,150.0,0.0,tones/880hz_short.mp3,63,tones/880hz_short.mp3,tone_number_task+empty_block+empty_block,s,617.0,k,806.0
0.0,24.0,tone_number_task,1175.0,1025.0,tones/880hz_short.mp3,62,tones/880hz_short.mp3,tone_number_task+delay_block+tone_number_task_remaining_before_delay+empty_block,s,437.0,k,422.0
0.0,25.0,tone_number_task,252.5,102.5,tones/440hz_short.mp3,41,tones/440hz_short.mp3,tone_number_task+empty_block+empty_block,s,1032.5,j,1000.0
0.0,26.0,tone_number_task,1175.0,1025.0,tones/880hz_short.mp3,42,tones/880hz_short.mp3,tone_number_task+delay_block+tone_number_task_remaining_before_delay+empty_block,s,587.0,j,1086.0
0.0,27.0,tone_number_task,150.0,0.0,tones/880hz_short.mp3,31,tones/880hz_short.mp3,tone_number_task+empty_block+empty_block,s,621.0,j,1386.0
0.0,28.0,tone_number_task,1142.5,992.5,tones/880hz_short.mp3,46,tones/880hz_short.mp3,tone_number_task+delay_block+tone_number_task_remaining_before_delay+empty_block,s,576.0,k,917.0
0.0,29.0,tone_number_task,252.5,102.5,tones/880hz_short.mp3,49,tones/880hz_short.mp3,tone_number_task+empty_block+empty_block,s,658.5,k,686.0
0.0,30.0,tone_number_task,150.0,0.0,tones/440hz_short.mp3,46,tones/440hz_short.mp3,tone_number_task+empty_block+empty_block,a,691.0,k,889.0
0.0,31.0,tone_number_task,252.5,102.5,tones/440hz_short.mp3,58,tones/440hz_short.mp3,tone_number_task+empty_block+empty_block,a,857.5,k,818.0
0.0,32.0,tone_number_task,1175.0,1025.0,tones/880hz_short.mp3,50,tones/880hz_short.mp3,tone_number_task+delay_block+tone_number_task_remaining_before_delay+empty_block,s,853.0,k,834.0
0.0,33.0,tone_number_task,252.5,102.5,tones/440hz_short.mp3,22,tones/440hz_short.mp3,tone_number_task+empty_block+empty_block,a,989.5,j,949.0
0.0,34.0,tone_number_task,252.5,102.5,tones/440hz_short.mp3,58,tones/440hz_short.mp3,tone_number_task+empty_block+empty_block,a,819.5,k,876.0
0.0,35.0,tone_number_task,1142.5,992.5,tones/880hz_short.mp3,46,tones/880hz_short.mp3,tone_number_task+delay_block+tone_number_task_remaining_before_delay+empty_block,s,651.0,k,818.0
0.0,36.0,tone_number_task,1142.5,992.5,tones/440hz_short.mp3,25,tones/440hz_short.mp3,tone_number_task+delay_block+tone_number_task_remaining_before_delay+empty_block,a,533.0,j,433.0
0.0,37.0,tone_number_task,252.5,102.5,tones/440hz_short.mp3,51,tones/440hz_short.mp3,tone_number_task+empty_block+empty_block,a,797.5,k,892.0
0.0,38.0,tone_number_task,150.0,0.0,tones/440hz_short.mp3,43,tones/440hz_short.mp3,tone_number_task+empty_block+empty_block,a,654.0,j,919.0
0.0,39.0,tone_number_task,150.0,0.0,tones/880hz_short.mp3,37,tones/880hz_short.mp3,tone_number_task+empty_block+empty_block,s,795.0,j,897.0
1.0,0.0,tone_number_task,150.0,0.0,tones/880hz_short.mp3,69,tones/880hz_short.mp3,tone_number_task+empty_block+empty_block,s,866.0,k,898.0
1.0,1.0,tone_number_task,150.0,0.0,tones/440hz_short.mp3,33,tones/440hz_short.mp3,tone_number_task+empty_block+empty_block,a,598.0,j,683.0
1.0,2.0,tone_number_task,1175.0,1025.0,tones/440hz_short.mp3,62,tones/440hz_short.mp3,tone_number_task+delay_block+tone_number_task_remaining_before_delay+empty_block,a,619.0,k,373.0
1.0,3.0,tone_number_task,150.0,0.0,tones/440hz_short.mp3,28,tones/440hz_short.mp3,tone_number_task+empty_block+empty_block,a,683.0,j,806.0
1.0,4.0,tone_number_task,252.5,102.5,tones/440hz_short.mp3,33,tones/440hz_short.mp3,tone_number_task+empty_block+empty_block,a,596.5,j,638.0
1.0,5.0,tone_number_task,1175.0,1025.0,tones/440hz_short.mp3,69,tones/440hz_short.mp3,tone_number_task+delay_block+tone_number_task_remaining_before_delay+empty_block,a,533.0,k,323.0
1.0,6.0,tone_number_task,252.5,102.5,tones/440hz_short.mp3,31,tones/440hz_short.mp3,tone_number_task+empty_block+empty_block,a,571.5,j,671.0
1.0,7.0,tone_number_task,1142.5,992.5,tones/880hz_short.mp3,27,tones/880hz_short.mp3,tone_number_task+delay_block+tone_number_task_remaining_before_delay+empty_block,s,587.0,j,398.0
1.0,8.0,tone_number_task,1142.5,992.5,tones/440hz_short.mp3,21,tones/440hz_short.mp3,tone_number_task+delay_block+tone_number_task_remaining_before_delay+empty_block,a,587.0,j,424.0
1.0,9.0,tone_number_task,252.5,102.5,tones/440hz_short.mp3,54,tones/440hz_short.mp3,tone_number_task+empty_block+empty_block,a,871.5,k,966.0
1.0,10.0,tone_number_task,1175.0,1025.0,tones/880hz_short.mp3,59,tones/880hz_short.mp3,tone_number_task+delay_block+tone_number_task_remaining_before_delay+empty_block,s,651.0,k,390.0
1.0,11.0,tone_number_task,1175.0,1025.0,tones/440hz_short.mp3,67,tones/440hz_short.mp3,tone_number_task+delay_block+tone_number_task_remaining_before_delay+empty_block,a,725.0,k,714.0
1.0,12.0,tone_number_task,1142.5,992.5,tones/880hz_short.mp3,61,tones/880hz_short.mp3,tone_number_task+tone_number_task_remaining_after_delay+empty_block,s,1056.0,k,1047.0
1.0,13.0,tone_number_task,252.5,102.5,tones/880hz_short.mp3,41,tones/880hz_short.mp3,tone_number_task+empty_block+empty_block,s,599.5,j,889.0
1.0,14.0,tone_number_task,1175.0,1025.0,tones/440hz_short.mp3,58,tones/440hz_short.mp3,tone_number_task+delay_block+tone_number_task_remaining_before_delay+empty_block,a,661.0,k,889.0
1.0,15.0,tone_number_task,150.0,0.0,tones/440hz_short.mp3,69,tones/440hz_short.mp3,tone_number_task+empty_block+empty_block,a,981.0,k,1122.0
1.0,16.0,tone_number_task,1175.0,1025.0,tones/440hz_short.mp3,21,tones/440hz_short.mp3,tone_number_task+delay_block+tone_number_task_remaining_before_delay+empty_block,a,608.0,j,370.0
1.0,17.0,tone_number_task,252.5,102.5,tones/880hz_short.mp3,64,tones/880hz_short.mp3,tone_number_task+empty_block+empty_block,s,645.5,k,838.0
1.0,18.0,tone_number_task,150.0,0.0,tones/440hz_short.mp3,50,tones/440hz_short.mp3,tone_number_task+empty_block+empty_block,a,743.0,k,903.0
1.0,19.0,tone_number_task,252.5,102.5,tones/440hz_short.mp3,63,tones/440hz_short.mp3,tone_number_task+empty_block+empty_block,a,524.5,k,731.0
1.0,20.0,tone_number_task,252.5,102.5,tones/880hz_short.mp3,59,tones/880hz_short.mp3,tone_number_task+empty_block+empty_block,s,397.5,k,498.0
1.0,21.0,tone_number_task,1142.5,992.5,tones/440hz_short.mp3,33,tones/440hz_short.mp3,tone_number_task+delay_block+tone_number_task_remaining_before_delay+empty_block,a,544.0,j,302.0
1.0,22.0,tone_number_task,150.0,0.0,tones/880hz_short.mp3,63,tones/880hz_short.mp3,tone_number_task+empty_block+empty_block,s,626.0,k,716.0
1.0,23.0,tone_number_task,1142.5,992.5,tones/440hz_short.mp3,68,tones/440hz_short.mp3,tone_number_task+delay_block+tone_number_task_remaining_before_delay+empty_block,a,683.0,k,436.0
1.0,24.0,tone_number_task,1142.5,992.5,tones/440hz_short.mp3,33,tones/440hz_short.mp3,tone_number_task+delay_block+tone_number_task_remaining_before_delay+empty_block,a,555.0,j,296.0
1.0,25.0,tone_number_task,150.0,0.0,tones/880hz_short.mp3,30,tones/880hz_short.mp3,tone_number_task+empty_block+empty_block,s,466.0,j,739.0
1.0,26.0,tone_number_task,150.0,0.0,tones/440hz_short.mp3,48,tones/440hz_short.mp3,tone_number_task+empty_block+empty_block,a,821.0,j,997.0
1.0,27.0,tone_number_task,1175.0,1025.0,tones/880hz_short.mp3,65,tones/880hz_short.mp3,tone_number_task+delay_block+tone_number_task_remaining_before_delay+empty_block,s,565.0,k,475.0
1.0,28.0,tone_number_task,1175.0,1025.0,tones/440hz_short.mp3,44,tones/440hz_short.mp3,tone_number_task+delay_block+tone_number_task_remaining_before_delay+empty_block,a,683.0,j,523.0
1.0,29.0,tone_number_task,1142.5,992.5,tones/440hz_short.mp3,68,tones/440hz_short.mp3,tone_number_task+delay_block+tone_number_task_remaining_before_delay+empty_block,a,619.0,k,437.0
1.0,30.0,tone_number_task,1142.5,992.5,tones/440hz_short.mp3,35,tones/440hz_short.mp3,tone_number_task+delay_block+tone_number_task_remaining_before_delay+empty_block,a,555.0,j,599.0
1.0,31.0,tone_number_task,150.0,0.0,tones/880hz_short.mp3,43,tones/880hz_short.mp3,tone_number_task+empty_block+empty_block,s,913.0,j,1004.0
1.0,32.0,tone_number_task,1142.5,992.5,tones/440hz_short.mp3,60,tones/440hz_short.mp3,tone_number_task+delay_block+tone_number_task_remaining_before_delay+empty_block,a,608.0,k,964.0
1.0,33.0,tone_number_task,252.5,102.5,tones/440hz_short.mp3,30,tones/440hz_short.mp3,tone_number_task+empty_block+empty_block,a,1055.5,j,1202.0
1.0,34.0,tone_number_task,1175.0,1025.0,tones/440hz_short.mp3,40,tones/440hz_short.mp3,tone_number_task+delay_block+tone_number_task_remaining_before_delay+empty_block,a,619.0,k,320.0
1.0,35.0,tone_number_task,1175.0,1025.0,tones/440hz_short.mp3,63,tones/440hz_short.mp3,tone_number_task+delay_block+tone_number_task_remaining_before_delay+empty_block,a,501.0,k,677.0
1.0,36.0,tone_number_task,1142.5,992.5,tones/440hz_short.mp3,40,tones/440hz_short.mp3,tone_number_task+delay_block+tone_number_task_remaining_before_delay+empty_block,a,608.0,j,358.0
1.0,37.0,tone_number_task,252.5,102.5,tones/440hz_short.mp3,52,tones/440hz_short.mp3,tone_number_task+empty_block+empty_block,a,1147.5,k,1289.0
1.0,39.0,tone_number_task,252.5,102.5,tones/440hz_short.mp3,52,tones/440hz_short.mp3,tone_number_task+empty_block+empty_block,a,1052.5,k,1014.0
2.0,0.0,tone_number_task,150.0,0.0,tones/440hz_short.mp3,sesenta y dos,tones/440hz_short.mp3,tone_number_task+empty_block+empty_block,a,1132.0,k,1347.0
2.0,1.0,tone_number_task,1175.0,1025.0,tones/440hz_short.mp3,cuarenta y uno,tones/440hz_short.mp3,tone_number_task+tone_number_task_remaining_after_delay+empty_block,a,1035.0,k,857.0
2.0,2.0,tone_number_task,150.0,0.0,tones/440hz_short.mp3,sesenta y seis,tones/440hz_short.mp3,tone_number_task+empty_block+empty_block,a,907.0,k,997.0
2.0,3.0,tone_number_task,252.5,102.5,tones/880hz_short.mp3,treinta y nueve,tones/880hz_short.mp3,tone_number_task+empty_block+empty_block,s,1332.5,j,1288.0
2.0,4.0,tone_number_task,252.5,102.5,tones/440hz_short.mp3,treinta y uno,tones/440hz_short.mp3,tone_number_task+empty_block+empty_block,a,863.5,j,835.0
2.0,5.0,tone_number_task,150.0,0.0,tones/880hz_short.mp3,cincuenta y dos,tones/880hz_short.mp3,tone_number_task+empty_block+empty_block,s,631.0,k,728.0
2.0,6.0,tone_number_task,150.0,0.0,tones/440hz_short.mp3,veintiocho,tones/440hz_short.mp3,tone_number_task+empty_block+empty_block,a,849.0,j,925.0
2.0,7.0,tone_number_task,1142.5,992.5,tones/880hz_short.mp3,cincuenta,tones/880hz_short.mp3,tone_number_task+delay_block+tone_number_task_remaining_before_delay+empty_block,s,768.0,k,569.0
2.0,8.0,tone_number_task,1175.0,1025.0,tones/880hz_short.mp3,veinticuatro,tones/880hz_short.mp3,tone_number_task+delay_block+tone_number_task_remaining_before_delay+empty_block,s,715.0,j,578.0
2.0,9.0,tone_number_task,252.5,102.5,tones/880hz_short.mp3,sesenta y ocho,tones/880hz_short.mp3,tone_number_task+empty_block+empty_block,s,1127.5,k,1086.0
2.0,10.0,tone_number_task,1175.0,1025.0,tones/880hz_short.mp3,cuarenta y siete,tones/880hz_short.mp3,tone_number_task+delay_block+tone_number_task_remaining_before_delay+empty_block,s,821.0,k,777.0
2.0,11.0,tone_number_task,1175.0,1025.0,tones/880hz_short.mp3,cincuenta y cinco,tones/880hz_short.mp3,tone_number_task+delay_block+tone_number_task_remaining_before_delay+empty_block,s,704.0,k,608.0
2.0,12.0,tone_number_task,1142.5,992.5,tones/440hz_short.mp3,treinta y dos,tones/440hz_short.mp3,tone_number_task+delay_block+tone_number_task_remaining_before_delay+empty_block,a,491.0,j,509.0
2.0,13.0,tone_number_task,252.5,102.5,tones/440hz_short.mp3,sesenta y ocho,tones/440hz_short.mp3,tone_number_task+empty_block+empty_block,a,1172.5,k,1165.0
2.0,14.0,tone_number_task,252.5,102.5,tones/880hz_short.mp3,veintidós,tones/880hz_short.mp3,tone_number_task+empty_block+empty_block,s,1146.5,j,1109.0
2.0,15.0,tone_number_task,150.0,0.0,tones/880hz_short.mp3,treinta y tres,tones/880hz_short.mp3,tone_number_task+empty_block+empty_block,s,891.0,j,955.0
2.0,16.0,tone_number_task,150.0,0.0,tones/880hz_short.mp3,cincuenta y ocho,tones/880hz_short.mp3,tone_number_task+empty_block+empty_block,s,768.0,k,857.0
2.0,17.0,tone_number_task,1142.5,992.5,tones/440hz_short.mp3,veintiuno,tones/440hz_short.mp3,tone_number_task+delay_block+tone_number_task_remaining_before_delay+empty_block,a,875.0,j,511.0
2.0,18.0,tone_number_task,1142.5,992.5,tones/880hz_short.mp3,cincuenta,tones/880hz_short.mp3,tone_number_task+empty_block+empty_block,s,1527.5,k,635.0
2.0,19.0,tone_number_task,252.5,102.5,tones/880hz_short.mp3,treinta y dos,tones/880hz_short.mp3,tone_number_task+empty_block+empty_block,s,1183.5,j,1171.0
2.0,20.0,tone_number_task,1142.5,992.5,tones/880hz_short.mp3,cuarenta y tres,tones/880hz_short.mp3,tone_number_task+delay_block+tone_number_task_remaining_before_delay+empty_block,s,821.0,k,1001.0
2.0,21.0,tone_number_task,1175.0,1025.0,tones/880hz_short.mp3,cincuenta y cuatro,tones/880hz_short.mp3,tone_number_task+delay_block+tone_number_task_remaining_before_delay+empty_block,s,789.0,k,1292.0
2.0,22.0,tone_number_task,252.5,102.5,tones/440hz_short.mp3,cuarenta,tones/440hz_short.mp3,tone_number_task+empty_block+empty_block,a,1374.5,j,1306.0
2.0,23.0,tone_number_task,1175.0,1025.0,tones/440hz_short.mp3,treinta y siete,tones/440hz_short.mp3,tone_number_task+delay_block+tone_number_task_remaining_before_delay+empty_block,a,960.0,j,1039.0
2.0,24.0,tone_number_task,1142.5,992.5,tones/440hz_short.mp3,veintiseis,tones/440hz_short.mp3,tone_number_task+delay_block+tone_number_task_remaining_before_delay+empty_block,a,661.0,j,608.0
2.0,25.0,tone_number_task,1175.0,1025.0,tones/880hz_short.mp3,sesenta y seis,tones/880hz_short.mp3,tone_number_task+delay_block+tone_number_task_remaining_before_delay+empty_block,s,395.0,k,617.0
2.0,26.0,tone_number_task,1175.0,1025.0,tones/440hz_short.mp3,veinticinco,tones/440hz_short.mp3,tone_number_task+tone_number_task_remaining_after_delay+empty_block,a,1109.0,j,610.0
2.0,27.0,tone_number_task,1142.5,992.5,tones/880hz_short.mp3,cincuenta y dos,tones/880hz_short.mp3,tone_number_task+empty_block+empty_block,s,1818.5,k,949.0
2.0,28.0,tone_number_task,150.0,0.0,tones/880hz_short.mp3,cincuenta y uno,tones/880hz_short.mp3,tone_number_task+empty_block+empty_block,s,556.0,k,838.0
2.0,29.0,tone_number_task,252.5,102.5,tones/880hz_short.mp3,cuarenta y cuatro,tones/880hz_short.mp3,tone_number_task+empty_block+empty_block,s,1318.5,k,1324.0
2.0,31.0,tone_number_task,150.0,0.0,tones/440hz_short.mp3,treinta y dos,tones/440hz_short.mp3,tone_number_task+empty_block+empty_block,a,1220.0,j,1295.0
2.0,32.0,tone_number_task,150.0,0.0,tones/880hz_short.mp3,veintiocho,tones/880hz_short.mp3,tone_number_task+empty_block+empty_block,s,1062.0,j,1149.0
2.0,33.0,tone_number_task,1142.5,992.5,tones/440hz_short.mp3,cincuenta y ocho,tones/440hz_short.mp3,tone_number_task+empty_block+empty_block,a,2080.5,k,1169.0
2.0,35.0,tone_number_task,252.5,102.5,tones/880hz_short.mp3,treinta y dos,tones/880hz_short.mp3,tone_number_task+empty_block+empty_block,s,1185.5,j,1167.0
2.0,36.0,tone_number_task,1142.5,992.5,tones/440hz_short.mp3,treinta y siete,tones/440hz_short.mp3,tone_number_task+delay_block+tone_number_task_remaining_before_delay+empty_block,a,459.0,j,566.0
2.0,37.0,tone_number_task,1175.0,1025.0,tones/440hz_short.mp3,cincuenta y seis,tones/440hz_short.mp3,tone_number_task+delay_block+tone_number_task_remaining_before_delay+empty_block,a,555.0,k,532.0
2.0,38.0,tone_number_task,1175.0,1025.0,tones/440hz_short.mp3,sesenta y dos,tones/440hz_short.mp3,tone_number_task+delay_block+tone_number_task_remaining_before_delay+empty_block,a,661.0,k,643.0
3.0,0.0,tone_number_task,252.5,102.5,tones/440hz_short.mp3,cuarenta y nueve,tones/440hz_short.mp3,tone_number_task+empty_block+empty_block,a,1431.5,k,1329.0
3.0,1.0,tone_number_task,252.5,102.5,tones/440hz_short.mp3,veintitres,tones/440hz_short.mp3,tone_number_task+empty_block+empty_block,a,757.5,j,720.0
3.0,2.0,tone_number_task,1175.0,1025.0,tones/440hz_short.mp3,treinta y cinco,tones/440hz_short.mp3,tone_number_task+delay_block+tone_number_task_remaining_before_delay+empty_block,a,651.0,j,686.0
3.0,3.0,tone_number_task,150.0,0.0,tones/880hz_short.mp3,cuarenta y cuatro,tones/880hz_short.mp3,tone_number_task+empty_block+empty_block,s,622.0,j,1001.0
3.0,4.0,tone_number_task,1142.5,992.5,tones/440hz_short.mp3,veinticinco,tones/440hz_short.mp3,tone_number_task+delay_block+tone_number_task_remaining_before_delay+empty_block,a,683.0,j,445.0
3.0,5.0,tone_number_task,150.0,0.0,tones/440hz_short.mp3,treinta y seis,tones/440hz_short.mp3,tone_number_task+empty_block+empty_block,a,617.0,j,685.0
3.0,6.0,tone_number_task,252.5,102.5,tones/440hz_short.mp3,sesenta y siete,tones/440hz_short.mp3,tone_number_task+empty_block+empty_block,a,1302.5,k,1265.0
3.0,7.0,tone_number_task,1175.0,1025.0,tones/880hz_short.mp3,treinta,tones/880hz_short.mp3,tone_number_task+delay_block+tone_number_task_remaining_before_delay+empty_block,s,875.0,j,453.0
3.0,9.0,tone_number_task,150.0,0.0,tones/880hz_short.mp3,treinta y seis,tones/880hz_short.mp3,tone_number_task+empty_block+empty_block,s,1010.0,j,1077.0
3.0,10.0,tone_number_task,1175.0,1025.0,tones/880hz_short.mp3,cincuenta y cinco,tones/880hz_short.mp3,tone_number_task+delay_block+tone_number_task_remaining_before_delay+empty_block,s,875.0,k,699.0
3.0,11.0,tone_number_task,252.5,102.5,tones/880hz_short.mp3,sesenta y nueve,tones/880hz_short.mp3,tone_number_task+empty_block+empty_block,s,526.5,k,796.0
3.0,12.0,tone_number_task,1142.5,992.5,tones/880hz_short.mp3,treinta y nueve,tones/880hz_short.mp3,tone_number_task+delay_block+tone_number_task_remaining_before_delay+empty_block,s,619.0,j,514.0
3.0,13.0,tone_number_task,1142.5,992.5,tones/440hz_short.mp3,cuarenta y cuatro,tones/440hz_short.mp3,tone_number_task+delay_block+tone_number_task_remaining_before_delay+empty_block,a,768.0,j,735.0
3.0,14.0,tone_number_task,252.5,102.5,tones/440hz_short.mp3,cuarenta y dos,tones/440hz_short.mp3,tone_number_task+empty_block+empty_block,a,728.5,j,737.0
3.0,15.0,tone_number_task,150.0,0.0,tones/880hz_short.mp3,treinta y cinco,tones/880hz_short.mp3,tone_number_task+empty_block+empty_block,s,657.0,j,785.0
3.0,18.0,tone_number_task,1175.0,1025.0,tones/440hz_short.mp3,sesenta y dos,tones/440hz_short.mp3,tone_number_task+delay_block+tone_number_task_remaining_before_delay+empty_block,a,832.0,k,714.0
3.0,19.0,tone_number_task,1175.0,1025.0,tones/440hz_short.mp3,veintisiete,tones/440hz_short.mp3,tone_number_task+delay_block+tone_number_task_remaining_before_delay+empty_block,a,619.0,j,509.0
3.0,20.0,tone_number_task,252.5,102.5,tones/880hz_short.mp3,cincuenta y uno,tones/880hz_short.mp3,tone_number_task+empty_block+empty_block,s,883.5,k,899.0
3.0,21.0,tone_number_task,150.0,0.0,tones/880hz_short.mp3,cincuenta y seis,tones/880hz_short.mp3,tone_number_task+empty_block+empty_block,s,935.0,k,1003.0
3.0,22.0,tone_number_task,252.5,102.5,tones/440hz_short.mp3,treinta y ocho,tones/440hz_short.mp3,tone_number_task+empty_block+empty_block,a,802.5,j,756.0
3.0,23.0,tone_number_task,1175.0,1025.0,tones/440hz_short.mp3,cincuenta y cuatro,tones/440hz_short.mp3,tone_number_task+delay_block+tone_number_task_remaining_before_delay+empty_block,a,576.0,k,1137.0
3.0,24.0,tone_number_task,1175.0,1025.0,tones/880hz_short.mp3,sesenta y seis,tones/880hz_short.mp3,tone_number_task+delay_block+tone_number_task_remaining_before_delay+empty_block,s,523.0,k,638.0
3.0,25.0,tone_number_task,252.5,102.5,tones/880hz_short.mp3,treinta y nueve,tones/880hz_short.mp3,tone_number_task+empty_block+empty_block,s,773.5,j,758.0
3.0,26.0,tone_number_task,1175.0,1025.0,tones/440hz_short.mp3,treinta y ocho,tones/440hz_short.mp3,tone_number_task+delay_block+tone_number_task_remaining_before_delay+empty_block,a,928.0,j,644.0
3.0,27.0,tone_number_task,1142.5,992.5,tones/440hz_short.mp3,veintinueve,tones/440hz_short.mp3,tone_number_task+delay_block+tone_number_task_remaining_before_delay+empty_block,a,608.0,j,612.0
3.0,28.0,tone_number_task,252.5,102.5,tones/440hz_short.mp3,treinta y ocho,tones/440hz_short.mp3,tone_number_task+empty_block+empty_block,a,1037.5,j,1073.0
3.0,29.0,tone_number_task,1142.5,992.5,tones/440hz_short.mp3,treinta y siete,tones/440hz_short.mp3,tone_number_task+delay_block+tone_number_task_remaining_before_delay+empty_block,a,491.0,j,607.0
3.0,30.0,tone_number_task,1175.0,1025.0,tones/880hz_short.mp3,treinta y siete,tones/880hz_short.mp3,tone_number_task+delay_block+tone_number_task_remaining_before_delay+empty_block,s,640.0,j,525.0
3.0,31.0,tone_number_task,1175.0,1025.0,tones/440hz_short.mp3,sesenta y tres,tones/440hz_short.mp3,tone_number_task+delay_block+tone_number_task_remaining_before_delay+empty_block,a,587.0,k,600.0
3.0,32.0,tone_number_task,1142.5,992.5,tones/880hz_short.mp3,sesenta y uno,tones/880hz_short.mp3,tone_number_task+delay_block+tone_number_task_remaining_before_delay+empty_block,s,597.0,k,570.0
3.0,33.0,tone_number_task,1142.5,992.5,tones/440hz_short.mp3,treinta y tres,tones/440hz_short.mp3,tone_number_task+delay_block+tone_number_task_remaining_before_delay+empty_block,a,565.0,j,487.0
3.0,34.0,tone_number_task,150.0,0.0,tones/880hz_short.mp3,cincuenta y uno,tones/880hz_short.mp3,tone_number_task+empty_block+empty_block,s,875.0,k,941.0
3.0,35.0,tone_number_task,150.0,0.0,tones/880hz_short.mp3,veintisiete,tones/880hz_short.mp3,tone_number_task+empty_block+empty_block,s,1015.0,j,1083.0
3.0,36.0,tone_number_task,1142.5,992.5,tones/440hz_short.mp3,treinta y seis,tones/440hz_short.mp3,tone_number_task+delay_block+tone_number_task_remaining_before_delay+empty_block,a,544.0,j,451.0
3.0,37.0,tone_number_task,1142.5,992.5,tones/440hz_short.mp3,sesenta y siete,tones/440hz_short.mp3,tone_number_task+delay_block+tone_number_task_remaining_before_delay+empty_block,a,619.0,k,465.0
3.0,38.0,tone_number_task,150.0,0.0,tones/880hz_short.mp3,treinta y cinco,tones/880hz_short.mp3,tone_number_task+empty_block+empty_block,s,834.0,j,941.0
3.0,39.0,tone_number_task,1142.5,992.5,tones/440hz_short.mp3,cincuenta y seis,tones/440hz_short.mp3,tone_number_task+delay_block+tone_number_task_remaining_before_delay+empty_block,a,704.0,k,608.0
