block,round,task,trial_duration,delay,audioFile,number,stimulus,type,response_1,rt_1,response_2,rt_2,is_word
0.0,0.0,tone_number_task,252.5,102.5,tones/880hz_short.mp3,35,tones/880hz_short.mp3,tone_number_task+empty_block+empty_block,s,1180.5,j,1614.0,False
0.0,1.0,tone_number_task,1142.5,992.5,tones/880hz_short.mp3,30,tones/880hz_short.mp3,tone_number_task+delay_block+tone_number_task_remaining_before_delay+empty_block,s,720.0,,,False
0.0,2.0,tone_number_task,1142.5,992.5,tones/880hz_short.mp3,51,tones/880hz_short.mp3,tone_number_task+delay_block+tone_number_task_remaining_before_delay+empty_block,s,600.0,,,False
0.0,3.0,tone_number_task,150.0,0.0,tones/440hz_short.mp3,63,tones/440hz_short.mp3,tone_number_task+empty_block+empty_block,s,697.0,k,1635.0,False
0.0,4.0,tone_number_task,150.0,0.0,tones/880hz_short.mp3,58,tones/880hz_short.mp3,tone_number_task+empty_block+empty_block,s,1064.0,k,1545.0,False
0.0,5.0,tone_number_task,252.5,102.5,tones/880hz_short.mp3,67,tones/880hz_short.mp3,tone_number_task+empty_block+empty_block,s,574.5,k,748.0,False
0.0,6.0,tone_number_task,150.0,0.0,tones/880hz_short.mp3,44,tones/880hz_short.mp3,tone_number_task+empty_block+empty_block,s,1064.0,j,1536.0,False
0.0,7.0,tone_number_task,1175.0,1025.0,tones/440hz_short.mp3,40,tones/440hz_short.mp3,tone_number_task+delay_block+tone_number_task_remaining_before_delay+empty_block,a,869.0,j,439.0,False
0.0,8.0,tone_number_task,252.5,102.5,tones/880hz_short.mp3,60,tones/880hz_short.mp3,tone_number_task+empty_block+empty_block,s,765.5,k,933.0,False
0.0,9.0,tone_number_task,252.5,102.5,tones/440hz_short.mp3,36,tones/440hz_short.mp3,tone_number_task+empty_block+empty_block,a,562.5,j,904.0,False
0.0,10.0,tone_number_task,1175.0,1025.0,tones/880hz_short.mp3,56,tones/880hz_short.mp3,tone_number_task+delay_block+tone_number_task_remaining_before_delay+empty_block,s,680.0,k,515.0,False
0.0,11.0,tone_number_task,252.5,102.5,tones/880hz_short.mp3,26,tones/880hz_short.mp3,tone_number_task+empty_block+empty_block,s,778.5,j,967.0,False
0.0,12.0,tone_number_task,150.0,0.0,tones/440hz_short.mp3,61,tones/440hz_short.mp3,tone_number_task+empty_block+empty_block,a,614.0,k,1143.0,False
0.0,13.0,tone_number_task,150.0,0.0,tones/880hz_short.mp3,69,tones/880hz_short.mp3,tone_number_task+empty_block+empty_block,s,534.0,k,879.0,False
0.0,14.0,tone_number_task,1142.5,992.5,tones/880hz_short.mp3,29,tones/880hz_short.mp3,tone_number_task+delay_block+tone_number_task_remaining_before_delay+empty_block,s,571.0,j,468.0,False
0.0,15.0,tone_number_task,1142.5,992.5,tones/880hz_short.mp3,23,tones/880hz_short.mp3,tone_number_task+delay_block+tone_number_task_remaining_before_delay+empty_block,s,981.0,,,False
0.0,16.0,tone_number_task,1142.5,992.5,tones/440hz_short.mp3,48,tones/440hz_short.mp3,tone_number_task+delay_block+tone_number_task_remaining_before_delay+empty_block,a,941.0,k,1059.0,False
0.0,17.0,tone_number_task,150.0,0.0,tones/440hz_short.mp3,22,tones/440hz_short.mp3,tone_number_task+empty_block+empty_block,a,795.0,j,1241.0,False
0.0,19.0,tone_number_task,252.5,102.5,tones/440hz_short.mp3,50,tones/440hz_short.mp3,tone_number_task+empty_block+empty_block,a,574.5,k,823.0,False
0.0,20.0,tone_number_task,1175.0,1025.0,tones/880hz_short.mp3,69,tones/880hz_short.mp3,tone_number_task+delay_block+tone_number_task_remaining_before_delay+empty_block,s,752.0,k,481.0,False
0.0,21.0,tone_number_task,1142.5,992.5,tones/880hz_short.mp3,65,tones/880hz_short.mp3,tone_number_task+delay_block+tone_number_task_remaining_before_delay+empty_block,s,611.0,k,613.0,False
0.0,22.0,tone_number_task,1175.0,1025.0,tones/440hz_short.mp3,63,tones/440hz_short.mp3,tone_number_task+delay_block+tone_number_task_remaining_before_delay+empty_block,a,851.0,k,849.0,False
0.0,23.0,tone_number_task,252.5,102.5,tones/440hz_short.mp3,44,tones/440hz_short.mp3,tone_number_task+empty_block+empty_block,a,1140.5,j,1393.0,False
0.0,24.0,tone_number_task,1175.0,1025.0,tones/880hz_short.mp3,40,tones/880hz_short.mp3,tone_number_task+delay_block+tone_number_task_remaining_before_delay+empty_block,s,581.0,j,464.0,False
0.0,25.0,tone_number_task,150.0,0.0,tones/440hz_short.mp3,36,tones/440hz_short.mp3,tone_number_task+empty_block+empty_block,a,877.0,j,1731.0,False
0.0,26.0,tone_number_task,150.0,0.0,tones/880hz_short.mp3,29,tones/880hz_short.mp3,tone_number_task+empty_block+empty_block,s,883.0,j,1753.0,False
0.0,27.0,tone_number_task,1142.5,992.5,tones/880hz_short.mp3,32,tones/880hz_short.mp3,tone_number_task+delay_block+tone_number_task_remaining_before_delay+empty_block,s,632.0,j,650.0,False
0.0,28.0,tone_number_task,252.5,102.5,tones/880hz_short.mp3,29,tones/880hz_short.mp3,tone_number_task+empty_block+empty_block,s,508.5,j,1097.0,False
0.0,29.0,tone_number_task,1142.5,992.5,tones/880hz_short.mp3,30,tones/880hz_short.mp3,tone_number_task+delay_block+tone_number_task_remaining_before_delay+empty_block,s,669.0,j,544.0,False
0.0,30.0,tone_number_task,252.5,102.5,tones/880hz_short.mp3,65,tones/880hz_short.mp3,tone_number_task+empty_block+empty_block,s,746.5,k,971.0,False
0.0,31.0,tone_number_task,1142.5,992.5,tones/880hz_short.mp3,61,tones/880hz_short.mp3,tone_number_task+delay_block+tone_number_task_remaining_before_delay+empty_block,s,629.0,k,539.0,False
0.0,32.0,tone_number_task,150.0,0.0,tones/880hz_short.mp3,31,tones/880hz_short.mp3,tone_number_task+empty_block+empty_block,s,630.0,j,1122.0,False
0.0,33.0,tone_number_task,1175.0,1025.0,tones/880hz_short.mp3,29,tones/880hz_short.mp3,tone_number_task+delay_block+tone_number_task_remaining_before_delay+empty_block,s,589.0,j,586.0,False
0.0,34.0,tone_number_task,150.0,0.0,tones/440hz_short.mp3,43,tones/440hz_short.mp3,tone_number_task+empty_block+empty_block,a,787.0,j,1400.0,False
0.0,35.0,tone_number_task,1175.0,1025.0,tones/440hz_short.mp3,31,tones/440hz_short.mp3,tone_number_task+delay_block+tone_number_task_remaining_before_delay+empty_block,a,821.0,j,508.0,False
0.0,36.0,tone_number_task,1175.0,1025.0,tones/440hz_short.mp3,23,tones/440hz_short.mp3,tone_number_task+delay_block+tone_number_task_remaining_before_delay+empty_block,a,480.0,j,526.0,False
0.0,37.0,tone_number_task,1142.5,992.5,tones/440hz_short.mp3,25,tones/440hz_short.mp3,tone_number_task+delay_block+tone_number_task_remaining_before_delay+empty_block,a,589.0,j,548.0,False
0.0,38.0,tone_number_task,1175.0,1025.0,tones/880hz_short.mp3,38,tones/880hz_short.mp3,tone_number_task+delay_block+tone_number_task_remaining_before_delay+empty_block,s,648.0,j,587.0,False
0.0,39.0,tone_number_task,252.5,102.5,tones/880hz_short.mp3,35,tones/880hz_short.mp3,tone_number_task+empty_block+empty_block,s,715.5,j,1123.0,False
1.0,0.0,tone_number_task,252.5,102.5,tones/880hz_short.mp3,44,tones/880hz_short.mp3,tone_number_task+empty_block+empty_block,s,478.5,j,818.0,False
1.0,1.0,tone_number_task,150.0,0.0,tones/440hz_short.mp3,57,tones/440hz_short.mp3,tone_number_task+empty_block+empty_block,a,836.0,k,1418.0,False
1.0,2.0,tone_number_task,1175.0,1025.0,tones/880hz_short.mp3,48,tones/880hz_short.mp3,tone_number_task+delay_block+tone_number_task_remaining_before_delay+empty_block,s,560.0,k,705.0,False
1.0,3.0,tone_number_task,252.5,102.5,tones/880hz_short.mp3,39,tones/880hz_short.mp3,tone_number_task+empty_block+empty_block,s,1003.5,j,1275.0,False
1.0,4.0,tone_number_task,1142.5,992.5,tones/440hz_short.mp3,60,tones/440hz_short.mp3,tone_number_task+delay_block+tone_number_task_remaining_before_delay+empty_block,a,728.0,,,False
1.0,6.0,tone_number_task,1142.5,992.5,tones/880hz_short.mp3,51,tones/880hz_short.mp3,tone_number_task+delay_block+tone_number_task_remaining_before_delay+empty_block,s,819.0,k,910.0,False
1.0,7.0,tone_number_task,252.5,102.5,tones/880hz_short.mp3,26,tones/880hz_short.mp3,tone_number_task+empty_block+empty_block,s,835.5,j,897.0,False
1.0,8.0,tone_number_task,150.0,0.0,tones/880hz_short.mp3,33,tones/880hz_short.mp3,tone_number_task+empty_block+empty_block,s,871.0,j,1295.0,False
1.0,9.0,tone_number_task,150.0,0.0,tones/440hz_short.mp3,32,tones/440hz_short.mp3,tone_number_task+empty_block+empty_block,a,1092.0,j,1450.0,False
1.0,10.0,tone_number_task,1175.0,1025.0,tones/880hz_short.mp3,47,tones/880hz_short.mp3,tone_number_task+delay_block+tone_number_task_remaining_before_delay+empty_block,s,832.0,k,1027.0,False
1.0,11.0,tone_number_task,252.5,102.5,tones/440hz_short.mp3,64,tones/440hz_short.mp3,tone_number_task+empty_block+empty_block,a,851.5,k,1093.0,False
1.0,12.0,tone_number_task,1175.0,1025.0,tones/440hz_short.mp3,31,tones/440hz_short.mp3,tone_number_task+delay_block+tone_number_task_remaining_before_delay+empty_block,a,869.0,j,709.0,False
1.0,13.0,tone_number_task,1142.5,992.5,tones/440hz_short.mp3,36,tones/440hz_short.mp3,tone_number_task+delay_block+tone_number_task_remaining_before_delay+empty_block,a,680.0,j,653.0,False
1.0,14.0,tone_number_task,150.0,0.0,tones/880hz_short.mp3,39,tones/880hz_short.mp3,tone_number_task+empty_block+empty_block,s,920.0,j,1345.0,False
1.0,15.0,tone_number_task,1175.0,1025.0,tones/440hz_short.mp3,24,tones/440hz_short.mp3,tone_number_task+delay_block+tone_number_task_remaining_before_delay+empty_block,a,651.0,j,480.0,False
1.0,16.0,tone_number_task,1175.0,1025.0,tones/440hz_short.mp3,58,tones/440hz_short.mp3,tone_number_task+delay_block+tone_number_task_remaining_before_delay+empty_block,a,592.0,k,519.0,False
1.0,17.0,tone_number_task,1175.0,1025.0,tones/880hz_short.mp3,31,tones/880hz_short.mp3,tone_number_task+delay_block+tone_number_task_remaining_before_delay+empty_block,s,611.0,j,526.0,False
1.0,18.0,tone_number_task,1142.5,992.5,tones/440hz_short.mp3,50,tones/440hz_short.mp3,tone_number_task+tone_number_task_remaining_after_delay+empty_block,a,1011.0,k,534.0,False
1.0,19.0,tone_number_task,252.5,102.5,tones/880hz_short.mp3,52,tones/880hz_short.mp3,tone_number_task+empty_block+empty_block,a,903.5,k,1474.0,False
1.0,20.0,tone_number_task,150.0,0.0,tones/880hz_short.mp3,62,tones/880hz_short.mp3,tone_number_task+empty_block+empty_block,s,863.0,k,1053.0,False
1.0,21.0,tone_number_task,252.5,102.5,tones/880hz_short.mp3,34,tones/880hz_short.mp3,tone_number_task+empty_block+empty_block,s,846.5,j,931.0,False
1.0,22.0,tone_number_task,1142.5,992.5,tones/440hz_short.mp3,32,tones/440hz_short.mp3,tone_number_task+delay_block+tone_number_task_remaining_before_delay+empty_block,a,691.0,j,679.0,False
1.0,23.0,tone_number_task,1142.5,992.5,tones/880hz_short.mp3,37,tones/880hz_short.mp3,tone_number_task+delay_block+tone_number_task_remaining_before_delay+empty_block,s,712.0,j,725.0,False
1.0,24.0,tone_number_task,1142.5,992.5,tones/440hz_short.mp3,30,tones/440hz_short.mp3,tone_number_task+delay_block+tone_number_task_remaining_before_delay+empty_block,a,869.0,j,411.0,False
1.0,25.0,tone_number_task,150.0,0.0,tones/440hz_short.mp3,31,tones/440hz_short.mp3,tone_number_task+empty_block+empty_block,a,836.0,j,1456.0,False
1.0,26.0,tone_number_task,150.0,0.0,tones/880hz_short.mp3,58,tones/880hz_short.mp3,tone_number_task+empty_block+empty_block,s,603.0,k,934.0,False
1.0,27.0,tone_number_task,1175.0,1025.0,tones/880hz_short.mp3,50,tones/880hz_short.mp3,tone_number_task+delay_block+tone_number_task_remaining_before_delay+empty_block,s,720.0,k,552.0,False
1.0,28.0,tone_number_task,1142.5,992.5,tones/440hz_short.mp3,30,tones/440hz_short.mp3,tone_number_task+delay_block+tone_number_task_remaining_before_delay+empty_block,a,901.0,j,507.0,False
1.0,30.0,tone_number_task,1175.0,1025.0,tones/880hz_short.mp3,43,tones/880hz_short.mp3,tone_number_task+delay_block+tone_number_task_remaining_before_delay+empty_block,s,840.0,k,626.0,False
1.0,31.0,tone_number_task,1142.5,992.5,tones/880hz_short.mp3,62,tones/880hz_short.mp3,tone_number_task+delay_block+tone_number_task_remaining_before_delay+empty_block,s,451.0,k,499.0,False
1.0,32.0,tone_number_task,1142.5,992.5,tones/880hz_short.mp3,41,tones/880hz_short.mp3,tone_number_task+delay_block+tone_number_task_remaining_before_delay+empty_block,s,648.0,j,1130.0,False
1.0,33.0,tone_number_task,252.5,102.5,tones/880hz_short.mp3,32,tones/880hz_short.mp3,tone_number_task+empty_block+empty_block,s,1150.5,j,1227.0,False
1.0,34.0,tone_number_task,252.5,102.5,tones/440hz_short.mp3,64,tones/440hz_short.mp3,tone_number_task+empty_block+empty_block,a,833.5,k,1045.0,False
1.0,35.0,tone_number_task,252.5,102.5,tones/440hz_short.mp3,57,tones/440hz_short.mp3,tone_number_task+empty_block+empty_block,a,763.5,k,947.0,False
1.0,36.0,tone_number_task,150.0,0.0,tones/440hz_short.mp3,58,tones/440hz_short.mp3,tone_number_task+empty_block+empty_block,a,945.0,k,1184.0,False
1.0,37.0,tone_number_task,150.0,0.0,tones/440hz_short.mp3,53,tones/440hz_short.mp3,tone_number_task+empty_block+empty_block,a,750.0,k,1020.0,False
1.0,38.0,tone_number_task,252.5,102.5,tones/880hz_short.mp3,57,tones/880hz_short.mp3,tone_number_task+empty_block+empty_block,s,1029.5,k,1066.0,False
1.0,39.0,tone_number_task,1175.0,1025.0,tones/440hz_short.mp3,59,tones/440hz_short.mp3,tone_number_task+delay_block+tone_number_task_remaining_before_delay+empty_block,a,811.0,k,412.0,False
2.0,0.0,tone_number_task,1142.5,992.5,tones/880hz_short.mp3,23,tones/880hz_short.mp3,tone_number_task+delay_block+tone_number_task_remaining_before_delay+empty_block,s,920.0,j,877.0,True
2.0,1.0,tone_number_task,1175.0,1025.0,tones/440hz_short.mp3,67,tones/440hz_short.mp3,tone_number_task+delay_block+tone_number_task_remaining_before_delay+empty_block,a,579.0,k,631.0,True
2.0,2.0,tone_number_task,1142.5,992.5,tones/880hz_short.mp3,27,tones/880hz_short.mp3,tone_number_task+delay_block+tone_number_task_remaining_before_delay+empty_block,s,512.0,j,789.0,True
2.0,3.0,tone_number_task,1175.0,1025.0,tones/440hz_short.mp3,33,tones/440hz_short.mp3,tone_number_task+delay_block+tone_number_task_remaining_before_delay+empty_block,a,840.0,j,851.0,True
2.0,4.0,tone_number_task,1142.5,992.5,tones/440hz_short.mp3,69,tones/440hz_short.mp3,tone_number_task+delay_block+tone_number_task_remaining_before_delay+empty_block,a,579.0,k,560.0,True
2.0,6.0,tone_number_task,1142.5,992.5,tones/440hz_short.mp3,29,tones/440hz_short.mp3,tone_number_task+delay_block+tone_number_task_remaining_before_delay+empty_block,a,531.0,j,694.0,True
2.0,7.0,tone_number_task,252.5,102.5,tones/440hz_short.mp3,64,tones/440hz_short.mp3,tone_number_task+empty_block+empty_block,a,934.5,k,1228.0,True
2.0,8.0,tone_number_task,1142.5,992.5,tones/440hz_short.mp3,36,tones/440hz_short.mp3,tone_number_task+delay_block+tone_number_task_remaining_before_delay+empty_block,a,611.0,j,627.0,True
2.0,9.0,tone_number_task,252.5,102.5,tones/440hz_short.mp3,40,tones/440hz_short.mp3,tone_number_task+empty_block+empty_block,a,778.5,j,1199.0,True
2.0,10.0,tone_number_task,252.5,102.5,tones/440hz_short.mp3,51,tones/440hz_short.mp3,tone_number_task+empty_block+empty_block,a,529.5,k,1040.0,True
2.0,11.0,tone_number_task,150.0,0.0,tones/440hz_short.mp3,41,tones/440hz_short.mp3,tone_number_task+empty_block+empty_block,a,396.0,j,1017.0,True
2.0,12.0,tone_number_task,252.5,102.5,tones/880hz_short.mp3,36,tones/880hz_short.mp3,tone_number_task+empty_block+empty_block,s,456.5,j,628.0,True
2.0,13.0,tone_number_task,1142.5,992.5,tones/440hz_short.mp3,24,tones/440hz_short.mp3,tone_number_task+delay_block+tone_number_task_remaining_before_delay+empty_block,a,619.0,j,651.0,True
2.0,14.0,tone_number_task,1142.5,992.5,tones/880hz_short.mp3,46,tones/880hz_short.mp3,tone_number_task+delay_block+tone_number_task_remaining_before_delay+empty_block,s,419.0,k,982.0,True
2.0,15.0,tone_number_task,1175.0,1025.0,tones/440hz_short.mp3,24,tones/440hz_short.mp3,tone_number_task+delay_block+tone_number_task_remaining_before_delay+empty_block,a,659.0,j,480.0,True
2.0,16.0,tone_number_task,1175.0,1025.0,tones/440hz_short.mp3,30,tones/440hz_short.mp3,tone_number_task+delay_block+tone_number_task_remaining_before_delay+empty_block,a,709.0,j,831.0,True
2.0,17.0,tone_number_task,150.0,0.0,tones/440hz_short.mp3,64,tones/440hz_short.mp3,tone_number_task+empty_block+empty_block,a,562.0,k,797.0,True
2.0,18.0,tone_number_task,1175.0,1025.0,tones/880hz_short.mp3,49,tones/880hz_short.mp3,tone_number_task+delay_block+tone_number_task_remaining_before_delay+empty_block,s,568.0,k,922.0,True
2.0,19.0,tone_number_task,252.5,102.5,tones/440hz_short.mp3,66,tones/440hz_short.mp3,tone_number_task+empty_block+empty_block,s,834.5,k,1852.0,True
2.0,20.0,tone_number_task,1142.5,992.5,tones/440hz_short.mp3,34,tones/440hz_short.mp3,tone_number_task+delay_block+tone_number_task_remaining_before_delay+empty_block,a,531.0,j,595.0,True
2.0,21.0,tone_number_task,252.5,102.5,tones/440hz_short.mp3,47,tones/440hz_short.mp3,tone_number_task+empty_block+empty_block,a,972.5,k,1596.0,True
2.0,23.0,tone_number_task,1175.0,1025.0,tones/440hz_short.mp3,46,tones/440hz_short.mp3,tone_number_task+delay_block+tone_number_task_remaining_before_delay+empty_block,a,589.0,k,880.0,True
2.0,24.0,tone_number_task,1175.0,1025.0,tones/440hz_short.mp3,43,tones/440hz_short.mp3,tone_number_task+delay_block+tone_number_task_remaining_before_delay+empty_block,a,709.0,j,664.0,True
2.0,25.0,tone_number_task,252.5,102.5,tones/440hz_short.mp3,49,tones/440hz_short.mp3,tone_number_task+empty_block+empty_block,a,514.5,k,827.0,True
2.0,26.0,tone_number_task,150.0,0.0,tones/440hz_short.mp3,34,tones/440hz_short.mp3,tone_number_task+empty_block+empty_block,a,786.0,j,1154.0,True
2.0,27.0,tone_number_task,252.5,102.5,tones/440hz_short.mp3,46,tones/440hz_short.mp3,tone_number_task+empty_block+empty_block,a,495.5,k,1236.0,True
2.0,28.0,tone_number_task,1175.0,1025.0,tones/880hz_short.mp3,69,tones/880hz_short.mp3,tone_number_task+delay_block+tone_number_task_remaining_before_delay+empty_block,s,712.0,k,648.0,True
2.0,29.0,tone_number_task,150.0,0.0,tones/880hz_short.mp3,23,tones/880hz_short.mp3,tone_number_task+empty_block+empty_block,s,622.0,j,989.0,True
2.0,30.0,tone_number_task,1142.5,992.5,tones/440hz_short.mp3,34,tones/440hz_short.mp3,tone_number_task+delay_block+tone_number_task_remaining_before_delay+empty_block,a,600.0,j,707.0,True
2.0,31.0,tone_number_task,252.5,102.5,tones/440hz_short.mp3,21,tones/440hz_short.mp3,tone_number_task+empty_block+empty_block,a,1000.5,j,1559.0,True
2.0,32.0,tone_number_task,150.0,0.0,tones/440hz_short.mp3,28,tones/440hz_short.mp3,tone_number_task+empty_block+empty_block,a,523.0,j,782.0,True
2.0,33.0,tone_number_task,1175.0,1025.0,tones/440hz_short.mp3,61,tones/440hz_short.mp3,tone_number_task+delay_block+tone_number_task_remaining_before_delay+empty_block,a,579.0,k,549.0,True
2.0,34.0,tone_number_task,150.0,0.0,tones/440hz_short.mp3,50,tones/440hz_short.mp3,tone_number_task+empty_block+empty_block,a,634.0,k,910.0,True
2.0,35.0,tone_number_task,1175.0,1025.0,tones/440hz_short.mp3,28,tones/440hz_short.mp3,tone_number_task+delay_block+tone_number_task_remaining_before_delay+empty_block,a,488.0,j,789.0,True
2.0,36.0,tone_number_task,150.0,0.0,tones/440hz_short.mp3,23,tones/440hz_short.mp3,tone_number_task+empty_block+empty_block,a,575.0,,,True
2.0,37.0,tone_number_task,1142.5,992.5,tones/880hz_short.mp3,32,tones/880hz_short.mp3,tone_number_task+delay_block+tone_number_task_remaining_before_delay+empty_block,s,731.0,j,812.0,True
2.0,38.0,tone_number_task,252.5,102.5,tones/440hz_short.mp3,43,tones/440hz_short.mp3,tone_number_task+empty_block+empty_block,a,1202.5,j,1782.0,True
2.0,39.0,tone_number_task,150.0,0.0,tones/440hz_short.mp3,22,tones/440hz_short.mp3,tone_number_task+empty_block+empty_block,a,1228.0,j,1396.0,True
3.0,0.0,tone_number_task,1175.0,1025.0,tones/440hz_short.mp3,23,tones/440hz_short.mp3,tone_number_task+delay_block+tone_number_task_remaining_before_delay+empty_block,a,779.0,j,450.0,True
3.0,1.0,tone_number_task,1142.5,992.5,tones/880hz_short.mp3,32,tones/880hz_short.mp3,tone_number_task+delay_block+tone_number_task_remaining_before_delay+empty_block,s,509.0,j,526.0,True
3.0,2.0,tone_number_task,150.0,0.0,tones/880hz_short.mp3,69,tones/880hz_short.mp3,tone_number_task+empty_block+empty_block,s,567.0,k,942.0,True
3.0,3.0,tone_number_task,252.5,102.5,tones/880hz_short.mp3,37,tones/880hz_short.mp3,tone_number_task+empty_block+empty_block,s,472.5,j,794.0,True
3.0,4.0,tone_number_task,252.5,102.5,tones/440hz_short.mp3,66,tones/440hz_short.mp3,tone_number_task+empty_block+empty_block,a,441.5,k,1216.0,True
3.0,5.0,tone_number_task,1175.0,1025.0,tones/880hz_short.mp3,57,tones/880hz_short.mp3,tone_number_task+delay_block+tone_number_task_remaining_before_delay+empty_block,s,469.0,k,795.0,True
3.0,6.0,tone_number_task,1175.0,1025.0,tones/440hz_short.mp3,57,tones/440hz_short.mp3,tone_number_task+delay_block+tone_number_task_remaining_before_delay+empty_block,a,651.0,k,541.0,True
3.0,7.0,tone_number_task,1142.5,992.5,tones/440hz_short.mp3,46,tones/440hz_short.mp3,tone_number_task+delay_block+tone_number_task_remaining_before_delay+empty_block,a,520.0,k,1182.0,True
3.0,8.0,tone_number_task,252.5,102.5,tones/880hz_short.mp3,60,tones/880hz_short.mp3,tone_number_task+empty_block+empty_block,s,1120.5,k,1141.0,True
3.0,9.0,tone_number_task,1142.5,992.5,tones/440hz_short.mp3,50,tones/440hz_short.mp3,tone_number_task+empty_block+empty_block,a,1857.5,j,1092.0,True
3.0,10.0,tone_number_task,1175.0,1025.0,tones/880hz_short.mp3,21,tones/880hz_short.mp3,tone_number_task+delay_block+tone_number_task_remaining_before_delay+empty_block,s,808.0,j,617.0,True
3.0,11.0,tone_number_task,1175.0,1025.0,tones/440hz_short.mp3,25,tones/440hz_short.mp3,tone_number_task+delay_block+tone_number_task_remaining_before_delay+empty_block,a,720.0,j,564.0,True
3.0,12.0,tone_number_task,1142.5,992.5,tones/880hz_short.mp3,60,tones/880hz_short.mp3,tone_number_task+delay_block+tone_number_task_remaining_before_delay+empty_block,s,560.0,k,465.0,True
3.0,13.0,tone_number_task,252.5,102.5,tones/440hz_short.mp3,24,tones/440hz_short.mp3,tone_number_task+empty_block+empty_block,a,403.5,j,694.0,True
3.0,14.0,tone_number_task,1175.0,1025.0,tones/880hz_short.mp3,63,tones/880hz_short.mp3,tone_number_task+delay_block+tone_number_task_remaining_before_delay+empty_block,s,400.0,k,452.0,True
3.0,15.0,tone_number_task,252.5,102.5,tones/880hz_short.mp3,31,tones/880hz_short.mp3,tone_number_task+empty_block+empty_block,s,1143.5,j,1508.0,True
3.0,16.0,tone_number_task,150.0,0.0,tones/440hz_short.mp3,37,tones/440hz_short.mp3,tone_number_task+empty_block+empty_block,a,660.0,j,1059.0,True
3.0,17.0,tone_number_task,150.0,0.0,tones/880hz_short.mp3,43,tones/880hz_short.mp3,tone_number_task+empty_block+empty_block,s,659.0,j,1011.0,True
3.0,18.0,tone_number_task,1142.5,992.5,tones/440hz_short.mp3,38,tones/440hz_short.mp3,tone_number_task+delay_block+tone_number_task_remaining_before_delay+empty_block,a,720.0,j,575.0,True
3.0,19.0,tone_number_task,252.5,102.5,tones/880hz_short.mp3,35,tones/880hz_short.mp3,tone_number_task+empty_block+empty_block,a,806.5,j,1709.0,True
3.0,20.0,tone_number_task,1175.0,1025.0,tones/440hz_short.mp3,27,tones/440hz_short.mp3,tone_number_task+delay_block+tone_number_task_remaining_before_delay+empty_block,a,1019.0,j,813.0,True
3.0,21.0,tone_number_task,150.0,0.0,tones/440hz_short.mp3,36,tones/440hz_short.mp3,tone_number_task+empty_block+empty_block,a,573.0,j,1429.0,True
3.0,22.0,tone_number_task,252.5,102.5,tones/440hz_short.mp3,60,tones/440hz_short.mp3,tone_number_task+empty_block+empty_block,a,957.5,k,1204.0,True
3.0,23.0,tone_number_task,150.0,0.0,tones/880hz_short.mp3,61,tones/880hz_short.mp3,tone_number_task+empty_block+empty_block,s,691.0,k,1190.0,True
3.0,24.0,tone_number_task,1142.5,992.5,tones/440hz_short.mp3,28,tones/440hz_short.mp3,tone_number_task+delay_block+tone_number_task_remaining_before_delay+empty_block,a,608.0,j,495.0,True
3.0,25.0,tone_number_task,1175.0,1025.0,tones/440hz_short.mp3,25,tones/440hz_short.mp3,tone_number_task+delay_block+tone_number_task_remaining_before_delay+empty_block,a,568.0,j,576.0,True
3.0,26.0,tone_number_task,150.0,0.0,tones/880hz_short.mp3,61,tones/880hz_short.mp3,tone_number_task+empty_block+empty_block,s,657.0,k,904.0,True
3.0,27.0,tone_number_task,1142.5,992.5,tones/440hz_short.mp3,60,tones/440hz_short.mp3,tone_number_task+delay_block+tone_number_task_remaining_before_delay+empty_block,a,931.0,k,691.0,True
3.0,28.0,tone_number_task,252.5,102.5,tones/440hz_short.mp3,38,tones/440hz_short.mp3,tone_number_task+empty_block+empty_block,a,1215.5,j,1523.0,True
3.0,29.0,tone_number_task,252.5,102.5,tones/880hz_short.mp3,46,tones/880hz_short.mp3,tone_number_task+empty_block+empty_block,s,1207.5,k,1753.0,True
3.0,30.0,tone_number_task,150.0,0.0,tones/880hz_short.mp3,64,tones/880hz_short.mp3,tone_number_task+empty_block+empty_block,s,772.0,j,1277.0,True
3.0,31.0,tone_number_task,1142.5,992.5,tones/880hz_short.mp3,47,tones/880hz_short.mp3,tone_number_task+delay_block+tone_number_task_remaining_before_delay+empty_block,s,680.0,,,True
3.0,32.0,tone_number_task,150.0,0.0,tones/440hz_short.mp3,42,tones/440hz_short.mp3,tone_number_task+empty_block+empty_block,a,454.0,j,1011.0,True
3.0,33.0,tone_number_task,1175.0,1025.0,tones/440hz_short.mp3,56,tones/440hz_short.mp3,tone_number_task+delay_block+tone_number_task_remaining_before_delay+empty_block,a,629.0,,,True
3.0,34.0,tone_number_task,150.0,0.0,tones/440hz_short.mp3,50,tones/440hz_short.mp3,tone_number_task+empty_block+empty_block,a,1135.0,k,1437.0,True
3.0,35.0,tone_number_task,1142.5,992.5,tones/440hz_short.mp3,25,tones/440hz_short.mp3,tone_number_task+empty_block+empty_block,a,1672.5,j,1082.0,True
3.0,36.0,tone_number_task,252.5,102.5,tones/440hz_short.mp3,35,tones/440hz_short.mp3,tone_number_task+empty_block+empty_block,a,579.5,j,879.0,True
3.0,37.0,tone_number_task,1175.0,1025.0,tones/440hz_short.mp3,55,tones/440hz_short.mp3,tone_number_task+delay_block+tone_number_task_remaining_before_delay+empty_block,a,680.0,,,True
3.0,38.0,tone_number_task,150.0,0.0,tones/880hz_short.mp3,22,tones/880hz_short.mp3,tone_number_task+empty_block+empty_block,a,659.0,j,1276.0,True
3.0,39.0,tone_number_task,1142.5,992.5,tones/880hz_short.mp3,40,tones/880hz_short.mp3,tone_number_task+delay_block+tone_number_task_remaining_before_delay+empty_block,s,491.0,k,506.0,True
