block,round,task,trial_duration,delay,audioFile,number,stimulus,type,response_1,rt_1,response_2,rt_2
0.0,0.0,tone_number_task,252.5,102.5,tones/440hz_short.mp3,25,tones/440hz_short.mp3,tone_number_task+empty_block+empty_block,a,472.5,j,713.0
0.0,1.0,tone_number_task,252.5,102.5,tones/880hz_short.mp3,47,tones/880hz_short.mp3,tone_number_task+empty_block+empty_block,s,700.5,,
0.0,2.0,tone_number_task,150.0,0.0,tones/440hz_short.mp3,29,tones/440hz_short.mp3,tone_number_task+empty_block+empty_block,a,736.0,j,887.0
0.0,3.0,tone_number_task,1175.0,1025.0,tones/440hz_short.mp3,29,tones/440hz_short.mp3,tone_number_task+delay_block+tone_number_task_remaining_before_delay+empty_block,a,691.0,j,764.0
0.0,4.0,tone_number_task,252.5,102.5,tones/440hz_short.mp3,56,tones/440hz_short.mp3,tone_number_task+empty_block+empty_block,a,707.5,k,853.0
0.0,5.0,tone_number_task,1175.0,1025.0,tones/880hz_short.mp3,59,tones/880hz_short.mp3,tone_number_task+empty_block+empty_block,s,1464.0,k,782.0
0.0,6.0,tone_number_task,150.0,0.0,tones/880hz_short.mp3,49,tones/880hz_short.mp3,tone_number_task+empty_block+empty_block,s,611.0,k,890.0
0.0,7.0,tone_number_task,252.5,102.5,tones/440hz_short.mp3,56,tones/440hz_short.mp3,tone_number_task+empty_block+empty_block,a,948.5,k,1117.0
0.0,8.0,tone_number_task,1142.5,992.5,tones/440hz_short.mp3,23,tones/440hz_short.mp3,tone_number_task+delay_block+tone_number_task_remaining_before_delay+empty_block,a,691.0,j,629.0
0.0,9.0,tone_number_task,150.0,0.0,tones/440hz_short.mp3,52,tones/440hz_short.mp3,tone_number_task+empty_block+empty_block,a,518.0,k,921.0
0.0,10.0,tone_number_task,150.0,0.0,tones/880hz_short.mp3,24,tones/880hz_short.mp3,tone_number_task+empty_block+empty_block,s,943.0,j,1363.0
0.0,11.0,tone_number_task,1142.5,992.5,tones/880hz_short.mp3,37,tones/880hz_short.mp3,tone_number_task+delay_block+tone_number_task_remaining_before_delay+empty_block,s,659.0,j,850.0
0.0,12.0,tone_number_task,150.0,0.0,tones/440hz_short.mp3,50,tones/440hz_short.mp3,tone_number_task+empty_block+empty_block,a,869.0,k,1140.0
0.0,13.0,tone_number_task,1175.0,1025.0,tones/440hz_short.mp3,61,tones/440hz_short.mp3,tone_number_task+delay_block+tone_number_task_remaining_before_delay+empty_block,a,789.0,k,542.0
0.0,14.0,tone_number_task,150.0,0.0,tones/880hz_short.mp3,57,tones/880hz_short.mp3,tone_number_task+empty_block+empty_block,s,695.0,k,897.0
0.0,15.0,tone_number_task,1175.0,1025.0,tones/880hz_short.mp3,40,tones/880hz_short.mp3,tone_number_task+delay_block+tone_number_task_remaining_before_delay+empty_block,s,648.0,,
0.0,16.0,tone_number_task,252.5,102.5,tones/880hz_short.mp3,65,tones/880hz_short.mp3,tone_number_task+empty_block+empty_block,s,893.5,k,1022.0
0.0,17.0,tone_number_task,1142.5,992.5,tones/440hz_short.mp3,67,tones/440hz_short.mp3,tone_number_task+delay_block+tone_number_task_remaining_before_delay+empty_block,a,640.0,k,501.0
0.0,18.0,tone_number_task,150.0,0.0,tones/880hz_short.mp3,62,tones/880hz_short.mp3,tone_number_task+empty_block+empty_block,s,912.0,k,1234.0
0.0,19.0,tone_number_task,150.0,0.0,tones/880hz_short.mp3,47,tones/880hz_short.mp3,tone_number_task+empty_block+empty_block,s,549.0,k,783.0
0.0,20.0,tone_number_task,1142.5,992.5,tones/440hz_short.mp3,54,tones/440hz_short.mp3,tone_number_task+delay_block+tone_number_task_remaining_before_delay+empty_block,a,501.0,k,492.0
0.0,21.0,tone_number_task,1142.5,992.5,tones/440hz_short.mp3,41,tones/440hz_short.mp3,tone_number_task+delay_block+tone_number_task_remaining_before_delay+empty_block,a,659.0,j,558.0
0.0,22.0,tone_number_task,150.0,0.0,tones/440hz_short.mp3,25,tones/440hz_short.mp3,tone_number_task+empty_block+empty_block,a,634.0,j,886.0
0.0,23.0,tone_number_task,1142.5,992.5,tones/440hz_short.mp3,41,tones/440hz_short.mp3,tone_number_task+delay_block+tone_number_task_remaining_before_delay+empty_block,a,539.0,j,550.0
0.0,24.0,tone_number_task,1175.0,1025.0,tones/440hz_short.mp3,58,tones/440hz_short.mp3,tone_number_task+delay_block+tone_number_task_remaining_before_delay+empty_block,a,389.0,k,341.0
0.0,25.0,tone_number_task,1175.0,1025.0,tones/440hz_short.mp3,66,tones/440hz_short.mp3,tone_number_task+delay_block+tone_number_task_remaining_before_delay+empty_block,a,621.0,k,468.0
0.0,26.0,tone_number_task,252.5,102.5,tones/440hz_short.mp3,52,tones/440hz_short.mp3,tone_number_task+empty_block+empty_block,a,558.5,k,1076.0
0.0,27.0,tone_number_task,1142.5,992.5,tones/440hz_short.mp3,36,tones/440hz_short.mp3,tone_number_task+delay_block+tone_number_task_remaining_before_delay+empty_block,a,440.0,j,732.0
0.0,28.0,tone_number_task,1175.0,1025.0,tones/440hz_short.mp3,22,tones/440hz_short.mp3,tone_number_task+delay_block+tone_number_task_remaining_before_delay+empty_block,a,579.0,j,592.0
0.0,29.0,tone_number_task,1175.0,1025.0,tones/880hz_short.mp3,52,tones/880hz_short.mp3,tone_number_task+delay_block+tone_number_task_remaining_before_delay+empty_block,s,741.0,k,461.0
0.0,30.0,tone_number_task,252.5,102.5,tones/440hz_short.mp3,39,tones/440hz_short.mp3,tone_number_task+empty_block+empty_block,a,415.5,k,735.0
0.0,31.0,tone_number_task,1175.0,1025.0,tones/440hz_short.mp3,67,tones/440hz_short.mp3,tone_number_task+delay_block+tone_number_task_remaining_before_delay+empty_block,a,960.0,k,584.0
0.0,32.0,tone_number_task,1142.5,992.5,tones/880hz_short.mp3,35,tones/880hz_short.mp3,tone_number_task+delay_block+tone_number_task_remaining_before_delay+empty_block,s,752.0,j,585.0
0.0,33.0,tone_number_task,1142.5,992.5,tones/880hz_short.mp3,32,tones/880hz_short.mp3,tone_number_task+delay_block+tone_number_task_remaining_before_delay+empty_block,s,701.0,j,612.0
0.0,34.0,tone_number_task,252.5,102.5,tones/440hz_short.mp3,32,tones/440hz_short.mp3,tone_number_task+empty_block+empty_block,a,648.5,j,1016.0
0.0,35.0,tone_number_task,252.5,102.5,tones/880hz_short.mp3,53,tones/880hz_short.mp3,tone_number_task+empty_block+empty_block,s,503.5,k,839.0
0.0,36.0,tone_number_task,252.5,102.5,tones/440hz_short.mp3,21,tones/440hz_short.mp3,tone_number_task+empty_block+empty_block,a,543.5,j,831.0
0.0,37.0,tone_number_task,150.0,0.0,tones/440hz_short.mp3,39,tones/440hz_short.mp3,tone_number_task+empty_block+empty_block,a,656.0,j,1234.0
0.0,38.0,tone_number_task,1175.0,1025.0,tones/880hz_short.mp3,66,tones/880hz_short.mp3,tone_number_task+delay_block+tone_number_task_remaining_before_delay+empty_block,s,560.0,k,366.0
0.0,39.0,tone_number_task,1142.5,992.5,tones/880hz_short.mp3,28,tones/880hz_short.mp3,tone_number_task+delay_block+tone_number_task_remaining_before_delay+empty_block,s,659.0,j,395.0
1.0,0.0,tone_number_task,252.5,102.5,tones/440hz_short.mp3,65,tones/440hz_short.mp3,tone_number_task+empty_block+empty_block,a,725.5,k,904.0
1.0,1.0,tone_number_task,150.0,0.0,tones/440hz_short.mp3,58,tones/440hz_short.mp3,tone_number_task+empty_block+empty_block,a,723.0,k,998.0
1.0,2.0,tone_number_task,1175.0,1025.0,tones/440hz_short.mp3,47,tones/440hz_short.mp3,tone_number_task+delay_block+tone_number_task_remaining_before_delay+empty_block,a,451.0,k,751.0
1.0,3.0,tone_number_task,1175.0,1025.0,tones/880hz_short.mp3,51,tones/880hz_short.mp3,tone_number_task+delay_block+tone_number_task_remaining_before_delay+empty_block,s,619.0,k,442.0
1.0,4.0,tone_number_task,150.0,0.0,tones/440hz_short.mp3,34,tones/440hz_short.mp3,tone_number_task+empty_block+empty_block,a,854.0,j,1298.0
1.0,5.0,tone_number_task,1142.5,992.5,tones/440hz_short.mp3,48,tones/440hz_short.mp3,tone_number_task+delay_block+tone_number_task_remaining_before_delay+empty_block,a,429.0,j,493.0
1.0,6.0,tone_number_task,1142.5,992.5,tones/440hz_short.mp3,66,tones/440hz_short.mp3,tone_number_task+delay_block+tone_number_task_remaining_before_delay+empty_block,a,509.0,k,404.0
1.0,7.0,tone_number_task,1175.0,1025.0,tones/440hz_short.mp3,56,tones/440hz_short.mp3,tone_number_task+delay_block+tone_number_task_remaining_before_delay+empty_block,a,528.0,k,453.0
1.0,8.0,tone_number_task,150.0,0.0,tones/440hz_short.mp3,30,tones/440hz_short.mp3,tone_number_task+empty_block+empty_block,a,636.0,j,1084.0
1.0,9.0,tone_number_task,1142.5,992.5,tones/440hz_short.mp3,54,tones/440hz_short.mp3,tone_number_task+delay_block+tone_number_task_remaining_before_delay+empty_block,a,419.0,k,393.0
1.0,10.0,tone_number_task,1142.5,992.5,tones/440hz_short.mp3,64,tones/440hz_short.mp3,tone_number_task+delay_block+tone_number_task_remaining_before_delay+empty_block,a,429.0,k,384.0
1.0,11.0,tone_number_task,1175.0,1025.0,tones/440hz_short.mp3,55,tones/440hz_short.mp3,tone_number_task+delay_block+tone_number_task_remaining_before_delay+empty_block,a,451.0,k,652.0
1.0,12.0,tone_number_task,252.5,102.5,tones/880hz_short.mp3,31,tones/880hz_short.mp3,tone_number_task+empty_block+empty_block,s,680.5,j,915.0
1.0,13.0,tone_number_task,1142.5,992.5,tones/440hz_short.mp3,36,tones/440hz_short.mp3,tone_number_task+delay_block+tone_number_task_remaining_before_delay+empty_block,a,528.0,j,710.0
1.0,14.0,tone_number_task,252.5,102.5,tones/440hz_short.mp3,41,tones/440hz_short.mp3,tone_number_task+empty_block+empty_block,a,767.5,j,1070.0
1.0,15.0,tone_number_task,252.5,102.5,tones/440hz_short.mp3,47,tones/440hz_short.mp3,tone_number_task+empty_block+empty_block,a,551.5,k,1599.0
1.0,16.0,tone_number_task,252.5,102.5,tones/880hz_short.mp3,33,tones/880hz_short.mp3,tone_number_task+empty_block+empty_block,s,878.5,j,1165.0
1.0,17.0,tone_number_task,150.0,0.0,tones/880hz_short.mp3,53,tones/880hz_short.mp3,tone_number_task+empty_block+empty_block,s,799.0,k,948.0
1.0,18.0,tone_number_task,1175.0,1025.0,tones/880hz_short.mp3,36,tones/880hz_short.mp3,tone_number_task+delay_block+tone_number_task_remaining_before_delay+empty_block,s,651.0,j,593.0
1.0,19.0,tone_number_task,1175.0,1025.0,tones/880hz_short.mp3,41,tones/880hz_short.mp3,tone_number_task+delay_block+tone_number_task_remaining_before_delay+empty_block,s,640.0,j,614.0
1.0,20.0,tone_number_task,150.0,0.0,tones/880hz_short.mp3,34,tones/880hz_short.mp3,tone_number_task+empty_block+empty_block,s,633.0,k,1016.0
1.0,21.0,tone_number_task,1175.0,1025.0,tones/880hz_short.mp3,54,tones/880hz_short.mp3,tone_number_task+delay_block+tone_number_task_remaining_before_delay+empty_block,s,731.0,k,547.0
1.0,22.0,tone_number_task,252.5,102.5,tones/440hz_short.mp3,41,tones/440hz_short.mp3,tone_number_task+empty_block+empty_block,a,870.5,j,1104.0
1.0,23.0,tone_number_task,150.0,0.0,tones/880hz_short.mp3,55,tones/880hz_short.mp3,tone_number_task+empty_block+empty_block,s,757.0,k,957.0
1.0,24.0,tone_number_task,1175.0,1025.0,tones/880hz_short.mp3,36,tones/880hz_short.mp3,tone_number_task+delay_block+tone_number_task_remaining_before_delay+empty_block,s,512.0,j,476.0
1.0,26.0,tone_number_task,252.5,102.5,tones/440hz_short.mp3,35,tones/440hz_short.mp3,tone_number_task+empty_block+empty_block,a,561.5,j,587.0
1.0,27.0,tone_number_task,1142.5,992.5,tones/880hz_short.mp3,21,tones/880hz_short.mp3,tone_number_task+delay_block+tone_number_task_remaining_before_delay+empty_block,s,709.0,j,431.0
1.0,28.0,tone_number_task,150.0,0.0,tones/880hz_short.mp3,67,tones/880hz_short.mp3,tone_number_task+empty_block+empty_block,s,504.0,k,737.0
1.0,29.0,tone_number_task,1142.5,992.5,tones/440hz_short.mp3,29,tones/440hz_short.mp3,tone_number_task+tone_number_task_remaining_after_delay+empty_block,a,1091.0,j,520.0
1.0,30.0,tone_number_task,1142.5,992.5,tones/440hz_short.mp3,28,tones/440hz_short.mp3,tone_number_task+delay_block+tone_number_task_remaining_before_delay+empty_block,a,541.0,j,506.0
1.0,31.0,tone_number_task,150.0,0.0,tones/440hz_short.mp3,34,tones/440hz_short.mp3,tone_number_task+empty_block+empty_block,a,504.0,j,604.0
1.0,32.0,tone_number_task,1142.5,992.5,tones/880hz_short.mp3,32,tones/880hz_short.mp3,tone_number_task+delay_block+tone_number_task_remaining_before_delay+empty_block,s,771.0,j,550.0
1.0,33.0,tone_number_task,1175.0,1025.0,tones/880hz_short.mp3,21,tones/880hz_short.mp3,tone_number_task+delay_block+tone_number_task_remaining_before_delay+empty_block,s,560.0,j,400.0
1.0,34.0,tone_number_task,252.5,102.5,tones/440hz_short.mp3,39,tones/440hz_short.mp3,tone_number_task+empty_block+empty_block,s,622.5,j,1441.0
1.0,35.0,tone_number_task,252.5,102.5,tones/440hz_short.mp3,27,tones/440hz_short.mp3,tone_number_task+empty_block+empty_block,a,651.5,j,781.0
1.0,38.0,tone_number_task,1175.0,1025.0,tones/880hz_short.mp3,34,tones/880hz_short.mp3,tone_number_task+tone_number_task_remaining_after_delay+empty_block,s,1139.0,j,678.0
1.0,39.0,tone_number_task,1142.5,992.5,tones/440hz_short.mp3,26,tones/440hz_short.mp3,tone_number_task+delay_block+tone_number_task_remaining_before_delay+empty_block,a,779.0,j,686.0
2.0,0.0,tone_number_task,1142.5,992.5,tones/880hz_short.mp3,veintisiete,tones/880hz_short.mp3,tone_number_task+delay_block+tone_number_task_remaining_before_delay+empty_block,s,640.0,j,1067.0
2.0,1.0,tone_number_task,1142.5,992.5,tones/880hz_short.mp3,cuarenta y seis,tones/880hz_short.mp3,tone_number_task+delay_block+tone_number_task_remaining_before_delay+empty_block,s,651.0,k,758.0
2.0,2.0,tone_number_task,252.5,102.5,tones/880hz_short.mp3,veinticuatro,tones/880hz_short.mp3,tone_number_task+empty_block+empty_block,a,956.5,j,1754.0
2.0,3.0,tone_number_task,252.5,102.5,tones/880hz_short.mp3,veintisiete,tones/880hz_short.mp3,tone_number_task+empty_block+empty_block,s,565.5,j,916.0
2.0,4.0,tone_number_task,1142.5,992.5,tones/880hz_short.mp3,sesenta y tres,tones/880hz_short.mp3,tone_number_task+delay_block+tone_number_task_remaining_before_delay+empty_block,s,669.0,k,945.0
2.0,5.0,tone_number_task,1175.0,1025.0,tones/880hz_short.mp3,cincuenta y siete,tones/880hz_short.mp3,tone_number_task+delay_block+tone_number_task_remaining_before_delay+empty_block,s,640.0,j,817.0
2.0,6.0,tone_number_task,1142.5,992.5,tones/440hz_short.mp3,cincuenta y ocho,tones/440hz_short.mp3,tone_number_task+delay_block+tone_number_task_remaining_before_delay+empty_block,a,880.0,k,1060.0
2.0,7.0,tone_number_task,1175.0,1025.0,tones/440hz_short.mp3,veinticuatro,tones/440hz_short.mp3,tone_number_task+delay_block+tone_number_task_remaining_before_delay+empty_block,a,832.0,j,759.0
2.0,8.0,tone_number_task,150.0,0.0,tones/440hz_short.mp3,veintidós,tones/440hz_short.mp3,tone_number_task+empty_block+empty_block,a,750.0,j,879.0
2.0,9.0,tone_number_task,1142.5,992.5,tones/880hz_short.mp3,cincuenta y uno,tones/880hz_short.mp3,tone_number_task+delay_block+tone_number_task_remaining_before_delay+empty_block,s,899.0,k,701.0
2.0,10.0,tone_number_task,1175.0,1025.0,tones/880hz_short.mp3,sesenta y tres,tones/880hz_short.mp3,tone_number_task+delay_block+tone_number_task_remaining_before_delay+empty_block,s,669.0,k,634.0
2.0,11.0,tone_number_task,1142.5,992.5,tones/880hz_short.mp3,treinta y siete,tones/880hz_short.mp3,tone_number_task+delay_block+tone_number_task_remaining_before_delay+empty_block,s,541.0,j,545.0
2.0,12.0,tone_number_task,252.5,102.5,tones/880hz_short.mp3,treinta y nueve,tones/880hz_short.mp3,tone_number_task+empty_block+empty_block,s,1196.5,j,1266.0
2.0,14.0,tone_number_task,150.0,0.0,tones/880hz_short.mp3,veintiuno,tones/880hz_short.mp3,tone_number_task+empty_block+empty_block,s,1235.0,j,1339.0
2.0,15.0,tone_number_task,1175.0,1025.0,tones/440hz_short.mp3,treinta y seis,tones/440hz_short.mp3,tone_number_task+delay_block+tone_number_task_remaining_before_delay+empty_block,a,669.0,j,651.0
2.0,16.0,tone_number_task,1175.0,1025.0,tones/880hz_short.mp3,cincuenta y dos,tones/880hz_short.mp3,tone_number_task+delay_block+tone_number_task_remaining_before_delay+empty_block,s,661.0,k,741.0
2.0,19.0,tone_number_task,150.0,0.0,tones/880hz_short.mp3,cincuenta y cuatro,tones/880hz_short.mp3,tone_number_task+empty_block+empty_block,s,991.0,k,1575.0
2.0,20.0,tone_number_task,252.5,102.5,tones/440hz_short.mp3,cincuenta y tres,tones/440hz_short.mp3,tone_number_task+empty_block+empty_block,a,797.5,j,1007.0
2.0,21.0,tone_number_task,1175.0,1025.0,tones/440hz_short.mp3,cincuenta y uno,tones/440hz_short.mp3,tone_number_task+delay_block+tone_number_task_remaining_before_delay+empty_block,a,552.0,k,671.0
2.0,22.0,tone_number_task,252.5,102.5,tones/880hz_short.mp3,veintitres,tones/880hz_short.mp3,tone_number_task+empty_block+empty_block,s,1169.5,j,1535.0
2.0,23.0,tone_number_task,1175.0,1025.0,tones/880hz_short.mp3,sesenta,tones/880hz_short.mp3,tone_number_task+delay_block+tone_number_task_remaining_before_delay+empty_block,s,560.0,k,562.0
2.0,24.0,tone_number_task,1175.0,1025.0,tones/440hz_short.mp3,veintiocho,tones/440hz_short.mp3,tone_number_task+delay_block+tone_number_task_remaining_before_delay+empty_block,a,739.0,j,774.0
2.0,25.0,tone_number_task,150.0,0.0,tones/880hz_short.mp3,treinta y cuatro,tones/880hz_short.mp3,tone_number_task+empty_block+empty_block,s,1151.0,j,2044.0
2.0,26.0,tone_number_task,1175.0,1025.0,tones/440hz_short.mp3,cincuenta y cuatro,tones/440hz_short.mp3,tone_number_task+delay_block+tone_number_task_remaining_before_delay+empty_block,a,552.0,k,539.0
2.0,27.0,tone_number_task,252.5,102.5,tones/440hz_short.mp3,veintinueve,tones/440hz_short.mp3,tone_number_task+empty_block+empty_block,a,898.5,j,1288.0
2.0,28.0,tone_number_task,1142.5,992.5,tones/880hz_short.mp3,veintinueve,tones/880hz_short.mp3,tone_number_task+delay_block+tone_number_task_remaining_before_delay+empty_block,s,571.0,j,539.0
2.0,29.0,tone_number_task,252.5,102.5,tones/880hz_short.mp3,treinta y siete,tones/880hz_short.mp3,tone_number_task+empty_block+empty_block,s,1367.5,j,1605.0
2.0,30.0,tone_number_task,1142.5,992.5,tones/880hz_short.mp3,sesenta,tones/880hz_short.mp3,tone_number_task+empty_block+empty_block,s,1304.5,k,771.0
2.0,31.0,tone_number_task,252.5,102.5,tones/880hz_short.mp3,cuarenta,tones/880hz_short.mp3,tone_number_task+empty_block+empty_block,s,776.5,k,1189.0
2.0,33.0,tone_number_task,1142.5,992.5,tones/440hz_short.mp3,veintitres,tones/440hz_short.mp3,tone_number_task+delay_block+tone_number_task_remaining_before_delay+empty_block,a,792.0,j,598.0
2.0,34.0,tone_number_task,150.0,0.0,tones/880hz_short.mp3,sesenta,tones/880hz_short.mp3,tone_number_task+empty_block+empty_block,s,751.0,k,1042.0
2.0,35.0,tone_number_task,252.5,102.5,tones/880hz_short.mp3,cuarenta y uno,tones/880hz_short.mp3,tone_number_task+empty_block+empty_block,s,862.5,k,910.0
2.0,36.0,tone_number_task,1142.5,992.5,tones/440hz_short.mp3,veintidós,tones/440hz_short.mp3,tone_number_task+delay_block+tone_number_task_remaining_before_delay+empty_block,a,579.0,j,797.0
2.0,37.0,tone_number_task,1175.0,1025.0,tones/880hz_short.mp3,veinticuatro,tones/880hz_short.mp3,tone_number_task+delay_block+tone_number_task_remaining_before_delay+empty_block,s,611.0,j,470.0
2.0,38.0,tone_number_task,150.0,0.0,tones/440hz_short.mp3,cincuenta y seis,tones/440hz_short.mp3,tone_number_task+empty_block+empty_block,a,671.0,j,1366.0
2.0,39.0,tone_number_task,150.0,0.0,tones/880hz_short.mp3,cincuenta y cinco,tones/880hz_short.mp3,tone_number_task+empty_block+empty_block,s,888.0,k,1510.0
3.0,0.0,tone_number_task,252.5,102.5,tones/880hz_short.mp3,sesenta y cuatro,tones/880hz_short.mp3,tone_number_task+empty_block+empty_block,s,747.5,k,1020.0
3.0,1.0,tone_number_task,252.5,102.5,tones/880hz_short.mp3,cincuenta y tres,tones/880hz_short.mp3,tone_number_task+empty_block+empty_block,s,755.5,k,781.0
3.0,2.0,tone_number_task,1175.0,1025.0,tones/440hz_short.mp3,veintisiete,tones/440hz_short.mp3,tone_number_task+delay_block+tone_number_task_remaining_before_delay+empty_block,a,680.0,j,572.0
3.0,3.0,tone_number_task,1142.5,992.5,tones/880hz_short.mp3,cuarenta y siete,tones/880hz_short.mp3,tone_number_task+delay_block+tone_number_task_remaining_before_delay+empty_block,a,520.0,,
3.0,4.0,tone_number_task,1142.5,992.5,tones/880hz_short.mp3,cuarenta y nueve,tones/880hz_short.mp3,tone_number_task+empty_block+empty_block,s,1222.5,k,1109.0
3.0,5.0,tone_number_task,1142.5,992.5,tones/880hz_short.mp3,cincuenta y seis,tones/880hz_short.mp3,tone_number_task+delay_block+tone_number_task_remaining_before_delay+empty_block,s,829.0,k,631.0
3.0,6.0,tone_number_task,1175.0,1025.0,tones/440hz_short.mp3,treinta,tones/440hz_short.mp3,tone_number_task+delay_block+tone_number_task_remaining_before_delay+empty_block,a,539.0,j,546.0
3.0,7.0,tone_number_task,150.0,0.0,tones/880hz_short.mp3,cuarenta y seis,tones/880hz_short.mp3,tone_number_task+empty_block+empty_block,s,536.0,k,1218.0
3.0,8.0,tone_number_task,1175.0,1025.0,tones/440hz_short.mp3,treinta y cinco,tones/440hz_short.mp3,tone_number_task+delay_block+tone_number_task_remaining_before_delay+empty_block,a,699.0,j,623.0
3.0,9.0,tone_number_task,1175.0,1025.0,tones/880hz_short.mp3,sesenta y nueve,tones/880hz_short.mp3,tone_number_task+delay_block+tone_number_task_remaining_before_delay+empty_block,s,909.0,k,647.0
3.0,10.0,tone_number_task,252.5,102.5,tones/880hz_short.mp3,treinta y ocho,tones/880hz_short.mp3,tone_number_task+empty_block+empty_block,s,1159.5,j,1414.0
3.0,11.0,tone_number_task,252.5,102.5,tones/440hz_short.mp3,cuarenta y nueve,tones/440hz_short.mp3,tone_number_task+empty_block+empty_block,a,642.5,k,1674.0
3.0,12.0,tone_number_task,1175.0,1025.0,tones/880hz_short.mp3,cuarenta,tones/880hz_short.mp3,tone_number_task+delay_block+tone_number_task_remaining_before_delay+empty_block,s,661.0,j,588.0
3.0,13.0,tone_number_task,150.0,0.0,tones/440hz_short.mp3,cincuenta y siete,tones/440hz_short.mp3,tone_number_task+empty_block+empty_block,a,807.0,k,1231.0
3.0,14.0,tone_number_task,150.0,0.0,tones/440hz_short.mp3,veintisiete,tones/440hz_short.mp3,tone_number_task+empty_block+empty_block,a,827.0,j,1077.0
3.0,15.0,tone_number_task,1175.0,1025.0,tones/880hz_short.mp3,cincuenta y cuatro,tones/880hz_short.mp3,tone_number_task+delay_block+tone_number_task_remaining_before_delay+empty_block,s,600.0,,
3.0,16.0,tone_number_task,1142.5,992.5,tones/880hz_short.mp3,cincuenta y ocho,tones/880hz_short.mp3,tone_number_task+delay_block+tone_number_task_remaining_before_delay+empty_block,s,728.0,k,836.0
3.0,17.0,tone_number_task,1142.5,992.5,tones/440hz_short.mp3,sesenta y ocho,tones/440hz_short.mp3,tone_number_task+delay_block+tone_number_task_remaining_before_delay+empty_block,a,589.0,k,538.0
3.0,18.0,tone_number_task,1142.5,992.5,tones/440hz_short.mp3,veinticinco,tones/440hz_short.mp3,tone_number_task+delay_block+tone_number_task_remaining_before_delay+empty_block,a,629.0,j,697.0
3.0,19.0,tone_number_task,1142.5,992.5,tones/440hz_short.mp3,cuarenta y cuatro,tones/440hz_short.mp3,tone_number_task+delay_block+tone_number_task_remaining_before_delay+empty_block,a,568.0,k,483.0
3.0,20.0,tone_number_task,150.0,0.0,tones/880hz_short.mp3,veintitres,tones/880hz_short.mp3,tone_number_task+empty_block+empty_block,a,566.0,j,984.0
3.0,21.0,tone_number_task,252.5,102.5,tones/880hz_short.mp3,treinta y ocho,tones/880hz_short.mp3,tone_number_task+empty_block+empty_block,s,726.5,j,1063.0
3.0,22.0,tone_number_task,252.5,102.5,tones/880hz_short.mp3,sesenta y uno,tones/880hz_short.mp3,tone_number_task+empty_block+empty_block,s,751.5,k,1029.0
3.0,23.0,tone_number_task,252.5,102.5,tones/440hz_short.mp3,treinta y uno,tones/440hz_short.mp3,tone_number_task+empty_block+empty_block,a,1079.5,j,1076.0
3.0,24.0,tone_number_task,150.0,0.0,tones/440hz_short.mp3,treinta y ocho,tones/440hz_short.mp3,tone_number_task+empty_block+empty_block,a,668.0,j,722.0
3.0,25.0,tone_number_task,150.0,0.0,tones/880hz_short.mp3,veintiuno,tones/880hz_short.mp3,tone_number_task+empty_block+empty_block,s,1324.0,j,1535.0
3.0,27.0,tone_number_task,150.0,0.0,tones/440hz_short.mp3,sesenta y cinco,tones/440hz_short.mp3,tone_number_task+empty_block+empty_block,s,1050.0,k,1240.0
3.0,29.0,tone_number_task,1142.5,992.5,tones/880hz_short.mp3,cuarenta y nueve,tones/880hz_short.mp3,tone_number_task+delay_block+tone_number_task_remaining_before_delay+empty_block,s,840.0,k,1004.0
3.0,30.0,tone_number_task,1175.0,1025.0,tones/440hz_short.mp3,veintitres,tones/440hz_short.mp3,tone_number_task+delay_block+tone_number_task_remaining_before_delay+empty_block,a,731.0,j,557.0
3.0,32.0,tone_number_task,1142.5,992.5,tones/440hz_short.mp3,cincuenta y tres,tones/440hz_short.mp3,tone_number_task+tone_number_task_remaining_after_delay+empty_block,a,1019.0,,
3.0,33.0,tone_number_task,150.0,0.0,tones/880hz_short.mp3,veintidós,tones/880hz_short.mp3,tone_number_task+empty_block+empty_block,s,1117.0,j,1397.0
3.0,34.0,tone_number_task,252.5,102.5,tones/440hz_short.mp3,cincuenta y siete,tones/440hz_short.mp3,tone_number_task+empty_block+empty_block,a,1042.5,k,1175.0
3.0,35.0,tone_number_task,1175.0,1025.0,tones/440hz_short.mp3,veintitres,tones/440hz_short.mp3,tone_number_task+delay_block+tone_number_task_remaining_before_delay+empty_block,a,829.0,j,596.0
3.0,36.0,tone_number_task,1175.0,1025.0,tones/880hz_short.mp3,sesenta y uno,tones/880hz_short.mp3,tone_number_task+delay_block+tone_number_task_remaining_before_delay+empty_block,s,672.0,k,480.0
3.0,37.0,tone_number_task,1175.0,1025.0,tones/440hz_short.mp3,cuarenta y tres,tones/440hz_short.mp3,tone_number_task+delay_block+tone_number_task_remaining_before_delay+empty_block,a,552.0,k,785.0
3.0,38.0,tone_number_task,1142.5,992.5,tones/880hz_short.mp3,sesenta y nueve,tones/880hz_short.mp3,tone_number_task+empty_block+empty_block,s,1294.5,k,771.0
3.0,39.0,tone_number_task,252.5,102.5,tones/880hz_short.mp3,sesenta y dos,tones/880hz_short.mp3,tone_number_task+empty_block+empty_block,s,904.5,k,847.0
