block,round,task,trial_duration,delay,audioFile,number,stimulus,type,response_1,rt_1,response_2,rt_2
0.0,0.0,tone_number_task,252.5,102.5,tones/880hz_short.mp3,37,tones/880hz_short.mp3,tone_number_task+empty_block+empty_block,s,485.5,,
0.0,1.0,tone_number_task,1142.5,992.5,tones/440hz_short.mp3,29,tones/440hz_short.mp3,tone_number_task+delay_block+tone_number_task_remaining_before_delay+empty_block,a,579.0,j,626.0
0.0,3.0,tone_number_task,1142.5,992.5,tones/440hz_short.mp3,53,tones/440hz_short.mp3,tone_number_task+delay_block+tone_number_task_remaining_before_delay+empty_block,a,579.0,k,671.0
0.0,4.0,tone_number_task,252.5,102.5,tones/440hz_short.mp3,56,tones/440hz_short.mp3,tone_number_task+empty_block+empty_block,a,522.5,,
0.0,5.0,tone_number_task,252.5,102.5,tones/440hz_short.mp3,57,tones/440hz_short.mp3,tone_number_task+empty_block+empty_block,a,999.5,k,1228.0
0.0,6.0,tone_number_task,1142.5,992.5,tones/440hz_short.mp3,29,tones/440hz_short.mp3,tone_number_task+delay_block+tone_number_task_remaining_before_delay+empty_block,a,531.0,j,513.0
0.0,7.0,tone_number_task,150.0,0.0,tones/880hz_short.mp3,64,tones/880hz_short.mp3,tone_number_task+empty_block+empty_block,s,495.0,k,998.0
0.0,8.0,tone_number_task,150.0,0.0,tones/440hz_short.mp3,38,tones/440hz_short.mp3,tone_number_task+empty_block+empty_block,a,764.0,j,1362.0
0.0,9.0,tone_number_task,150.0,0.0,tones/440hz_short.mp3,28,tones/440hz_short.mp3,tone_number_task+empty_block+empty_block,a,439.0,j,746.0
0.0,10.0,tone_number_task,1175.0,1025.0,tones/880hz_short.mp3,21,tones/880hz_short.mp3,tone_number_task+delay_block+tone_number_task_remaining_before_delay+empty_block,s,589.0,j,434.0
0.0,11.0,tone_number_task,252.5,102.5,tones/880hz_short.mp3,24,tones/880hz_short.mp3,tone_number_task+empty_block+empty_block,s,1103.5,j,1419.0
0.0,12.0,tone_number_task,1175.0,1025.0,tones/440hz_short.mp3,67,tones/440hz_short.mp3,tone_number_task+delay_block+tone_number_task_remaining_before_delay+empty_block,a,872.0,k,670.0
0.0,13.0,tone_number_task,1142.5,992.5,tones/440hz_short.mp3,25,tones/440hz_short.mp3,tone_number_task+delay_block+tone_number_task_remaining_before_delay+empty_block,a,749.0,j,561.0
0.0,14.0,tone_number_task,1142.5,992.5,tones/880hz_short.mp3,69,tones/880hz_short.mp3,tone_number_task+delay_block+tone_number_task_remaining_before_delay+empty_block,s,419.0,k,393.0
0.0,15.0,tone_number_task,252.5,102.5,tones/880hz_short.mp3,37,tones/880hz_short.mp3,tone_number_task+empty_block+empty_block,s,409.5,j,717.0
0.0,16.0,tone_number_task,1175.0,1025.0,tones/880hz_short.mp3,29,tones/880hz_short.mp3,tone_number_task+delay_block+tone_number_task_remaining_before_delay+empty_block,s,381.0,j,392.0
0.0,17.0,tone_number_task,252.5,102.5,tones/880hz_short.mp3,25,tones/880hz_short.mp3,tone_number_task+empty_block+empty_block,s,415.5,j,1445.0
0.0,18.0,tone_number_task,252.5,102.5,tones/880hz_short.mp3,33,tones/880hz_short.mp3,tone_number_task+empty_block+empty_block,s,402.5,j,837.0
0.0,19.0,tone_number_task,1142.5,992.5,tones/440hz_short.mp3,60,tones/440hz_short.mp3,tone_number_task+delay_block+tone_number_task_remaining_before_delay+empty_block,a,389.0,k,474.0
0.0,20.0,tone_number_task,1175.0,1025.0,tones/880hz_short.mp3,21,tones/880hz_short.mp3,tone_number_task+delay_block+tone_number_task_remaining_before_delay+empty_block,a,579.0,j,617.0
0.0,21.0,tone_number_task,1175.0,1025.0,tones/880hz_short.mp3,63,tones/880hz_short.mp3,tone_number_task+delay_block+tone_number_task_remaining_before_delay+empty_block,s,360.0,k,589.0
0.0,22.0,tone_number_task,150.0,0.0,tones/440hz_short.mp3,36,tones/440hz_short.mp3,tone_number_task+empty_block+empty_block,a,809.0,j,1190.0
0.0,23.0,tone_number_task,150.0,0.0,tones/880hz_short.mp3,56,tones/880hz_short.mp3,tone_number_task+empty_block+empty_block,s,730.0,k,1056.0
0.0,24.0,tone_number_task,1142.5,992.5,tones/440hz_short.mp3,57,tones/440hz_short.mp3,tone_number_task+delay_block+tone_number_task_remaining_before_delay+empty_block,s,901.0,k,865.0
0.0,25.0,tone_number_task,1142.5,992.5,tones/880hz_short.mp3,56,tones/880hz_short.mp3,tone_number_task+delay_block+tone_number_task_remaining_before_delay+empty_block,s,931.0,k,580.0
0.0,26.0,tone_number_task,252.5,102.5,tones/880hz_short.mp3,55,tones/880hz_short.mp3,tone_number_task+empty_block+empty_block,s,368.5,k,634.0
0.0,27.0,tone_number_task,1175.0,1025.0,tones/880hz_short.mp3,67,tones/880hz_short.mp3,tone_number_task+delay_block+tone_number_task_remaining_before_delay+empty_block,s,429.0,k,540.0
0.0,28.0,tone_number_task,1175.0,1025.0,tones/440hz_short.mp3,57,tones/440hz_short.mp3,tone_number_task+delay_block+tone_number_task_remaining_before_delay+empty_block,a,400.0,k,561.0
0.0,29.0,tone_number_task,1175.0,1025.0,tones/880hz_short.mp3,36,tones/880hz_short.mp3,tone_number_task+delay_block+tone_number_task_remaining_before_delay+empty_block,s,440.0,j,648.0
0.0,30.0,tone_number_task,252.5,102.5,tones/440hz_short.mp3,32,tones/440hz_short.mp3,tone_number_task+empty_block+empty_block,s,1341.5,j,2250.0
0.0,31.0,tone_number_task,1142.5,992.5,tones/440hz_short.mp3,63,tones/440hz_short.mp3,tone_number_task+delay_block+tone_number_task_remaining_before_delay+empty_block,s,589.0,k,1183.0
0.0,32.0,tone_number_task,150.0,0.0,tones/880hz_short.mp3,59,tones/880hz_short.mp3,tone_number_task+empty_block+empty_block,s,783.0,j,1337.0
0.0,33.0,tone_number_task,1175.0,1025.0,tones/440hz_short.mp3,56,tones/440hz_short.mp3,tone_number_task+delay_block+tone_number_task_remaining_before_delay+empty_block,a,920.0,k,691.0
0.0,34.0,tone_number_task,150.0,0.0,tones/440hz_short.mp3,40,tones/440hz_short.mp3,tone_number_task+empty_block+empty_block,a,724.0,j,1036.0
0.0,35.0,tone_number_task,252.5,102.5,tones/440hz_short.mp3,27,tones/440hz_short.mp3,tone_number_task+empty_block+empty_block,a,525.5,j,656.0
0.0,36.0,tone_number_task,150.0,0.0,tones/440hz_short.mp3,48,tones/440hz_short.mp3,tone_number_task+empty_block+empty_block,a,462.0,k,1147.0
0.0,37.0,tone_number_task,150.0,0.0,tones/440hz_short.mp3,34,tones/440hz_short.mp3,tone_number_task+empty_block+empty_block,a,393.0,j,641.0
0.0,38.0,tone_number_task,1142.5,992.5,tones/440hz_short.mp3,66,tones/440hz_short.mp3,tone_number_task+delay_block+tone_number_task_remaining_before_delay+empty_block,a,400.0,k,752.0
0.0,39.0,tone_number_task,1175.0,1025.0,tones/440hz_short.mp3,50,tones/440hz_short.mp3,tone_number_task+delay_block+tone_number_task_remaining_before_delay+empty_block,a,349.0,k,389.0
1.0,0.0,tone_number_task,252.5,102.5,tones/880hz_short.mp3,53,tones/880hz_short.mp3,tone_number_task+empty_block+empty_block,s,474.5,k,986.0
1.0,1.0,tone_number_task,150.0,0.0,tones/440hz_short.mp3,35,tones/440hz_short.mp3,tone_number_task+empty_block+empty_block,a,535.0,j,693.0
1.0,2.0,tone_number_task,1142.5,992.5,tones/880hz_short.mp3,38,tones/880hz_short.mp3,tone_number_task+delay_block+tone_number_task_remaining_before_delay+empty_block,s,709.0,k,819.0
1.0,3.0,tone_number_task,150.0,0.0,tones/880hz_short.mp3,59,tones/880hz_short.mp3,tone_number_task+empty_block+empty_block,s,498.0,k,945.0
1.0,4.0,tone_number_task,1142.5,992.5,tones/440hz_short.mp3,28,tones/440hz_short.mp3,tone_number_task+delay_block+tone_number_task_remaining_before_delay+empty_block,a,611.0,j,446.0
1.0,5.0,tone_number_task,252.5,102.5,tones/880hz_short.mp3,36,tones/880hz_short.mp3,tone_number_task+empty_block+empty_block,a,935.5,j,1638.0
1.0,6.0,tone_number_task,150.0,0.0,tones/880hz_short.mp3,53,tones/880hz_short.mp3,tone_number_task+empty_block+empty_block,s,956.0,k,1204.0
1.0,7.0,tone_number_task,252.5,102.5,tones/880hz_short.mp3,28,tones/880hz_short.mp3,tone_number_task+empty_block+empty_block,s,927.5,j,1042.0
1.0,8.0,tone_number_task,150.0,0.0,tones/440hz_short.mp3,56,tones/440hz_short.mp3,tone_number_task+empty_block+empty_block,a,658.0,k,1009.0
1.0,9.0,tone_number_task,150.0,0.0,tones/880hz_short.mp3,66,tones/880hz_short.mp3,tone_number_task+empty_block+empty_block,s,877.0,k,1190.0
1.0,10.0,tone_number_task,1175.0,1025.0,tones/440hz_short.mp3,28,tones/440hz_short.mp3,tone_number_task+delay_block+tone_number_task_remaining_before_delay+empty_block,a,640.0,j,507.0
1.0,11.0,tone_number_task,1142.5,992.5,tones/440hz_short.mp3,42,tones/440hz_short.mp3,tone_number_task+delay_block+tone_number_task_remaining_before_delay+empty_block,a,720.0,j,1089.0
1.0,12.0,tone_number_task,1175.0,1025.0,tones/440hz_short.mp3,48,tones/440hz_short.mp3,tone_number_task+delay_block+tone_number_task_remaining_before_delay+empty_block,a,509.0,k,448.0
1.0,13.0,tone_number_task,1175.0,1025.0,tones/440hz_short.mp3,36,tones/440hz_short.mp3,tone_number_task+delay_block+tone_number_task_remaining_before_delay+empty_block,a,512.0,j,452.0
1.0,14.0,tone_number_task,1142.5,992.5,tones/880hz_short.mp3,57,tones/880hz_short.mp3,tone_number_task+delay_block+tone_number_task_remaining_before_delay+empty_block,s,651.0,k,556.0
1.0,15.0,tone_number_task,252.5,102.5,tones/440hz_short.mp3,32,tones/440hz_short.mp3,tone_number_task+empty_block+empty_block,a,540.5,j,665.0
1.0,16.0,tone_number_task,1175.0,1025.0,tones/440hz_short.mp3,44,tones/440hz_short.mp3,tone_number_task+delay_block+tone_number_task_remaining_before_delay+empty_block,a,509.0,j,663.0
1.0,17.0,tone_number_task,252.5,102.5,tones/880hz_short.mp3,41,tones/880hz_short.mp3,tone_number_task+empty_block+empty_block,a,1089.5,k,1231.0
1.0,18.0,tone_number_task,1175.0,1025.0,tones/880hz_short.mp3,61,tones/880hz_short.mp3,tone_number_task+delay_block+tone_number_task_remaining_before_delay+empty_block,s,469.0,k,544.0
1.0,19.0,tone_number_task,150.0,0.0,tones/440hz_short.mp3,42,tones/440hz_short.mp3,tone_number_task+empty_block+empty_block,a,994.0,j,1588.0
1.0,20.0,tone_number_task,1175.0,1025.0,tones/880hz_short.mp3,69,tones/880hz_short.mp3,tone_number_task+delay_block+tone_number_task_remaining_before_delay+empty_block,s,669.0,k,427.0
1.0,21.0,tone_number_task,1142.5,992.5,tones/440hz_short.mp3,47,tones/440hz_short.mp3,tone_number_task+delay_block+tone_number_task_remaining_before_delay+empty_block,a,589.0,k,876.0
1.0,22.0,tone_number_task,150.0,0.0,tones/440hz_short.mp3,31,tones/440hz_short.mp3,tone_number_task+empty_block+empty_block,a,701.0,j,1013.0
1.0,23.0,tone_number_task,150.0,0.0,tones/440hz_short.mp3,41,tones/440hz_short.mp3,tone_number_task+empty_block+empty_block,a,602.0,j,1015.0
1.0,24.0,tone_number_task,252.5,102.5,tones/880hz_short.mp3,67,tones/880hz_short.mp3,tone_number_task+empty_block+empty_block,s,1330.5,k,1484.0
1.0,25.0,tone_number_task,1175.0,1025.0,tones/880hz_short.mp3,51,tones/880hz_short.mp3,tone_number_task+delay_block+tone_number_task_remaining_before_delay+empty_block,s,531.0,k,997.0
1.0,26.0,tone_number_task,150.0,0.0,tones/440hz_short.mp3,43,tones/440hz_short.mp3,tone_number_task+empty_block+empty_block,a,719.0,j,888.0
1.0,27.0,tone_number_task,1142.5,992.5,tones/440hz_short.mp3,41,tones/440hz_short.mp3,tone_number_task+delay_block+tone_number_task_remaining_before_delay+empty_block,a,429.0,j,564.0
1.0,28.0,tone_number_task,252.5,102.5,tones/880hz_short.mp3,30,tones/880hz_short.mp3,tone_number_task+empty_block+empty_block,s,1086.5,j,1428.0
1.0,29.0,tone_number_task,1142.5,992.5,tones/880hz_short.mp3,33,tones/880hz_short.mp3,tone_number_task+delay_block+tone_number_task_remaining_before_delay+empty_block,s,669.0,j,851.0
1.0,30.0,tone_number_task,1142.5,992.5,tones/440hz_short.mp3,37,tones/440hz_short.mp3,tone_number_task+delay_block+tone_number_task_remaining_before_delay+empty_block,a,509.0,j,801.0
1.0,31.0,tone_number_task,1142.5,992.5,tones/440hz_short.mp3,24,tones/440hz_short.mp3,tone_number_task+delay_block+tone_number_task_remaining_before_delay+empty_block,a,560.0,j,583.0
1.0,32.0,tone_number_task,252.5,102.5,tones/440hz_short.mp3,58,tones/440hz_short.mp3,tone_number_task+empty_block+empty_block,a,631.5,k,914.0
1.0,33.0,tone_number_task,252.5,102.5,tones/880hz_short.mp3,38,tones/880hz_short.mp3,tone_number_task+empty_block+empty_block,s,500.5,j,767.0
1.0,34.0,tone_number_task,252.5,102.5,tones/440hz_short.mp3,21,tones/440hz_short.mp3,tone_number_task+empty_block+empty_block,a,804.5,j,914.0
1.0,35.0,tone_number_task,1175.0,1025.0,tones/880hz_short.mp3,62,tones/880hz_short.mp3,tone_number_task+delay_block+tone_number_task_remaining_before_delay+empty_block,s,520.0,k,534.0
1.0,36.0,tone_number_task,1175.0,1025.0,tones/880hz_short.mp3,58,tones/880hz_short.mp3,tone_number_task+delay_block+tone_number_task_remaining_before_delay+empty_block,s,771.0,k,536.0
1.0,37.0,tone_number_task,1175.0,1025.0,tones/440hz_short.mp3,67,tones/440hz_short.mp3,tone_number_task+delay_block+tone_number_task_remaining_before_delay+empty_block,a,528.0,k,515.0
1.0,38.0,tone_number_task,1142.5,992.5,tones/440hz_short.mp3,64,tones/440hz_short.mp3,tone_number_task+delay_block+tone_number_task_remaining_before_delay+empty_block,a,691.0,k,669.0
1.0,39.0,tone_number_task,150.0,0.0,tones/440hz_short.mp3,32,tones/440hz_short.mp3,tone_number_task+empty_block+empty_block,a,738.0,j,926.0
2.0,0.0,tone_number_task,1142.5,992.5,tones/880hz_short.mp3,cuarenta,tones/880hz_short.mp3,tone_number_task+delay_block+tone_number_task_remaining_before_delay+empty_block,s,499.0,j,992.0
2.0,1.0,tone_number_task,1175.0,1025.0,tones/880hz_short.mp3,cincuenta y dos,tones/880hz_short.mp3,tone_number_task+delay_block+tone_number_task_remaining_before_delay+empty_block,s,459.0,k,943.0
2.0,3.0,tone_number_task,1175.0,1025.0,tones/440hz_short.mp3,cincuenta,tones/440hz_short.mp3,tone_number_task+delay_block+tone_number_task_remaining_before_delay+empty_block,a,541.0,k,520.0
2.0,4.0,tone_number_task,1175.0,1025.0,tones/440hz_short.mp3,treinta y ocho,tones/440hz_short.mp3,tone_number_task+delay_block+tone_number_task_remaining_before_delay+empty_block,a,440.0,j,654.0
2.0,6.0,tone_number_task,150.0,0.0,tones/880hz_short.mp3,cincuenta y uno,tones/880hz_short.mp3,tone_number_task+empty_block+empty_block,s,961.0,k,1124.0
2.0,7.0,tone_number_task,252.5,102.5,tones/440hz_short.mp3,veintiocho,tones/440hz_short.mp3,tone_number_task+empty_block+empty_block,a,626.5,j,794.0
2.0,8.0,tone_number_task,150.0,0.0,tones/440hz_short.mp3,sesenta y dos,tones/440hz_short.mp3,tone_number_task+empty_block+empty_block,a,1185.0,k,1395.0
2.0,9.0,tone_number_task,1142.5,992.5,tones/880hz_short.mp3,cincuenta y seis,tones/880hz_short.mp3,tone_number_task+delay_block+tone_number_task_remaining_before_delay+empty_block,s,469.0,k,817.0
2.0,10.0,tone_number_task,1142.5,992.5,tones/440hz_short.mp3,cincuenta,tones/440hz_short.mp3,tone_number_task+delay_block+tone_number_task_remaining_before_delay+empty_block,a,939.0,k,1009.0
2.0,11.0,tone_number_task,1175.0,1025.0,tones/880hz_short.mp3,sesenta y ocho,tones/880hz_short.mp3,tone_number_task+delay_block+tone_number_task_remaining_before_delay+empty_block,a,589.0,k,749.0
2.0,12.0,tone_number_task,252.5,102.5,tones/880hz_short.mp3,sesenta y siete,tones/880hz_short.mp3,tone_number_task+empty_block+empty_block,s,766.5,k,865.0
2.0,13.0,tone_number_task,1142.5,992.5,tones/880hz_short.mp3,sesenta y uno,tones/880hz_short.mp3,tone_number_task+delay_block+tone_number_task_remaining_before_delay+empty_block,s,571.0,k,573.0
2.0,14.0,tone_number_task,252.5,102.5,tones/880hz_short.mp3,veintitres,tones/880hz_short.mp3,tone_number_task+empty_block+empty_block,s,407.5,j,650.0
2.0,15.0,tone_number_task,1142.5,992.5,tones/440hz_short.mp3,veintisiete,tones/440hz_short.mp3,tone_number_task+delay_block+tone_number_task_remaining_before_delay+empty_block,a,541.0,j,545.0
2.0,16.0,tone_number_task,252.5,102.5,tones/880hz_short.mp3,sesenta y tres,tones/880hz_short.mp3,tone_number_task+empty_block+empty_block,s,1162.5,k,1372.0
2.0,17.0,tone_number_task,1175.0,1025.0,tones/440hz_short.mp3,veintitres,tones/440hz_short.mp3,tone_number_task+delay_block+tone_number_task_remaining_before_delay+empty_block,a,579.0,j,624.0
2.0,18.0,tone_number_task,252.5,102.5,tones/440hz_short.mp3,veintiuno,tones/440hz_short.mp3,tone_number_task+empty_block+empty_block,a,706.5,j,802.0
2.0,19.0,tone_number_task,150.0,0.0,tones/880hz_short.mp3,cincuenta y uno,tones/880hz_short.mp3,tone_number_task+empty_block+empty_block,s,775.0,k,959.0
2.0,21.0,tone_number_task,150.0,0.0,tones/880hz_short.mp3,veinticinco,tones/880hz_short.mp3,tone_number_task+empty_block+empty_block,s,927.0,j,1151.0
2.0,22.0,tone_number_task,1175.0,1025.0,tones/880hz_short.mp3,sesenta,tones/880hz_short.mp3,tone_number_task+delay_block+tone_number_task_remaining_before_delay+empty_block,s,509.0,k,587.0
2.0,23.0,tone_number_task,1142.5,992.5,tones/440hz_short.mp3,veinticuatro,tones/440hz_short.mp3,tone_number_task+delay_block+tone_number_task_remaining_before_delay+empty_block,a,869.0,j,604.0
2.0,24.0,tone_number_task,252.5,102.5,tones/440hz_short.mp3,treinta,tones/440hz_short.mp3,tone_number_task+empty_block+empty_block,a,998.5,j,1048.0
2.0,25.0,tone_number_task,1142.5,992.5,tones/880hz_short.mp3,veintisiete,tones/880hz_short.mp3,tone_number_task+delay_block+tone_number_task_remaining_before_delay+empty_block,s,619.0,j,593.0
2.0,26.0,tone_number_task,150.0,0.0,tones/880hz_short.mp3,cincuenta y nueve,tones/880hz_short.mp3,tone_number_task+empty_block+empty_block,s,903.0,k,1186.0
2.0,27.0,tone_number_task,1175.0,1025.0,tones/880hz_short.mp3,cuarenta y nueve,tones/880hz_short.mp3,tone_number_task+delay_block+tone_number_task_remaining_before_delay+empty_block,s,749.0,,
2.0,28.0,tone_number_task,252.5,102.5,tones/880hz_short.mp3,veintitres,tones/880hz_short.mp3,tone_number_task+empty_block+empty_block,a,747.5,j,868.0
2.0,29.0,tone_number_task,1142.5,992.5,tones/440hz_short.mp3,cuarenta y seis,tones/440hz_short.mp3,tone_number_task+delay_block+tone_number_task_remaining_before_delay+empty_block,a,480.0,k,663.0
2.0,30.0,tone_number_task,150.0,0.0,tones/880hz_short.mp3,cincuenta y cinco,tones/880hz_short.mp3,tone_number_task+empty_block+empty_block,s,1068.0,k,1355.0
2.0,31.0,tone_number_task,1142.5,992.5,tones/880hz_short.mp3,cuarenta,tones/880hz_short.mp3,tone_number_task+delay_block+tone_number_task_remaining_before_delay+empty_block,s,539.0,k,596.0
2.0,32.0,tone_number_task,150.0,0.0,tones/880hz_short.mp3,sesenta y uno,tones/880hz_short.mp3,tone_number_task+empty_block+empty_block,s,981.0,k,1124.0
2.0,33.0,tone_number_task,252.5,102.5,tones/880hz_short.mp3,cincuenta y ocho,tones/880hz_short.mp3,tone_number_task+empty_block+empty_block,s,760.5,k,870.0
2.0,34.0,tone_number_task,1175.0,1025.0,tones/880hz_short.mp3,cuarenta y nueve,tones/880hz_short.mp3,tone_number_task+delay_block+tone_number_task_remaining_before_delay+empty_block,s,472.0,k,911.0
2.0,35.0,tone_number_task,150.0,0.0,tones/880hz_short.mp3,cincuenta,tones/880hz_short.mp3,tone_number_task+empty_block+empty_block,s,532.0,k,796.0
2.0,36.0,tone_number_task,252.5,102.5,tones/880hz_short.mp3,cuarenta y cuatro,tones/880hz_short.mp3,tone_number_task+empty_block+empty_block,s,609.5,k,761.0
2.0,37.0,tone_number_task,1142.5,992.5,tones/880hz_short.mp3,veinticuatro,tones/880hz_short.mp3,tone_number_task+delay_block+tone_number_task_remaining_before_delay+empty_block,s,579.0,j,650.0
2.0,38.0,tone_number_task,1175.0,1025.0,tones/880hz_short.mp3,treinta y cuatro,tones/880hz_short.mp3,tone_number_task+delay_block+tone_number_task_remaining_before_delay+empty_block,s,419.0,j,647.0
2.0,39.0,tone_number_task,1175.0,1025.0,tones/440hz_short.mp3,veintisiete,tones/440hz_short.mp3,tone_number_task+delay_block+tone_number_task_remaining_before_delay+empty_block,a,379.0,j,525.0
3.0,0.0,tone_number_task,1142.5,992.5,tones/440hz_short.mp3,treinta y nueve,tones/440hz_short.mp3,tone_number_task+delay_block+tone_number_task_remaining_before_delay+empty_block,a,568.0,j,615.0
3.0,1.0,tone_number_task,252.5,102.5,tones/880hz_short.mp3,sesenta y cinco,tones/880hz_short.mp3,tone_number_task+empty_block+empty_block,s,484.5,k,704.0
3.0,2.0,tone_number_task,1142.5,992.5,tones/440hz_short.mp3,cuarenta y uno,tones/440hz_short.mp3,tone_number_task+delay_block+tone_number_task_remaining_before_delay+empty_block,a,541.0,j,862.0
3.0,3.0,tone_number_task,252.5,102.5,tones/880hz_short.mp3,cuarenta y ocho,tones/880hz_short.mp3,tone_number_task+empty_block+empty_block,s,941.5,k,1059.0
3.0,4.0,tone_number_task,1142.5,992.5,tones/440hz_short.mp3,cuarenta,tones/440hz_short.mp3,tone_number_task+delay_block+tone_number_task_remaining_before_delay+empty_block,a,451.0,j,685.0
3.0,6.0,tone_number_task,150.0,0.0,tones/880hz_short.mp3,sesenta y seis,tones/880hz_short.mp3,tone_number_task+empty_block+empty_block,s,873.0,k,1119.0
3.0,7.0,tone_number_task,150.0,0.0,tones/880hz_short.mp3,veintisiete,tones/880hz_short.mp3,tone_number_task+empty_block+empty_block,a,731.0,j,913.0
3.0,8.0,tone_number_task,150.0,0.0,tones/440hz_short.mp3,treinta y cuatro,tones/440hz_short.mp3,tone_number_task+empty_block+empty_block,a,1341.0,j,1501.0
3.0,9.0,tone_number_task,150.0,0.0,tones/440hz_short.mp3,cincuenta y ocho,tones/440hz_short.mp3,tone_number_task+empty_block+empty_block,a,909.0,k,1036.0
3.0,10.0,tone_number_task,1142.5,992.5,tones/880hz_short.mp3,sesenta y ocho,tones/880hz_short.mp3,tone_number_task+delay_block+tone_number_task_remaining_before_delay+empty_block,s,461.0,k,603.0
3.0,11.0,tone_number_task,1175.0,1025.0,tones/440hz_short.mp3,treinta,tones/440hz_short.mp3,tone_number_task+delay_block+tone_number_task_remaining_before_delay+empty_block,a,608.0,j,491.0
3.0,12.0,tone_number_task,1142.5,992.5,tones/440hz_short.mp3,sesenta y cuatro,tones/440hz_short.mp3,tone_number_task+delay_block+tone_number_task_remaining_before_delay+empty_block,a,499.0,k,517.0
3.0,13.0,tone_number_task,252.5,102.5,tones/440hz_short.mp3,cincuenta y uno,tones/440hz_short.mp3,tone_number_task+empty_block+empty_block,a,357.5,j,603.0
3.0,14.0,tone_number_task,252.5,102.5,tones/880hz_short.mp3,sesenta y siete,tones/880hz_short.mp3,tone_number_task+empty_block+empty_block,a,894.5,k,915.0
3.0,15.0,tone_number_task,1175.0,1025.0,tones/440hz_short.mp3,treinta y siete,tones/440hz_short.mp3,tone_number_task+delay_block+tone_number_task_remaining_before_delay+empty_block,a,429.0,j,521.0
3.0,16.0,tone_number_task,1175.0,1025.0,tones/880hz_short.mp3,cincuenta y seis,tones/880hz_short.mp3,tone_number_task+delay_block+tone_number_task_remaining_before_delay+empty_block,s,509.0,k,573.0
3.0,17.0,tone_number_task,252.5,102.5,tones/440hz_short.mp3,treinta y tres,tones/440hz_short.mp3,tone_number_task+empty_block+empty_block,a,905.5,j,1050.0
3.0,18.0,tone_number_task,1142.5,992.5,tones/440hz_short.mp3,sesenta y cinco,tones/440hz_short.mp3,tone_number_task+delay_block+tone_number_task_remaining_before_delay+empty_block,a,432.0,k,449.0
3.0,19.0,tone_number_task,150.0,0.0,tones/440hz_short.mp3,treinta y cuatro,tones/440hz_short.mp3,tone_number_task+empty_block+empty_block,a,518.0,j,885.0
3.0,20.0,tone_number_task,150.0,0.0,tones/440hz_short.mp3,cuarenta y seis,tones/440hz_short.mp3,tone_number_task+empty_block+empty_block,a,719.0,k,924.0
3.0,21.0,tone_number_task,1175.0,1025.0,tones/440hz_short.mp3,treinta y cinco,tones/440hz_short.mp3,tone_number_task+delay_block+tone_number_task_remaining_before_delay+empty_block,a,421.0,j,572.0
3.0,22.0,tone_number_task,252.5,102.5,tones/440hz_short.mp3,veintisiete,tones/440hz_short.mp3,tone_number_task+empty_block+empty_block,a,367.5,j,584.0
3.0,23.0,tone_number_task,1142.5,992.5,tones/440hz_short.mp3,sesenta y dos,tones/440hz_short.mp3,tone_number_task+delay_block+tone_number_task_remaining_before_delay+empty_block,a,331.0,k,466.0
3.0,24.0,tone_number_task,1142.5,992.5,tones/880hz_short.mp3,veintiuno,tones/880hz_short.mp3,tone_number_task+delay_block+tone_number_task_remaining_before_delay+empty_block,a,400.0,j,562.0
3.0,25.0,tone_number_task,150.0,0.0,tones/880hz_short.mp3,cuarenta,tones/880hz_short.mp3,tone_number_task+empty_block+empty_block,s,603.0,j,950.0
3.0,26.0,tone_number_task,252.5,102.5,tones/880hz_short.mp3,treinta y nueve,tones/880hz_short.mp3,tone_number_task+empty_block+empty_block,s,612.5,j,1000.0
3.0,27.0,tone_number_task,1142.5,992.5,tones/440hz_short.mp3,sesenta y ocho,tones/440hz_short.mp3,tone_number_task+delay_block+tone_number_task_remaining_before_delay+empty_block,a,760.0,k,551.0
3.0,28.0,tone_number_task,252.5,102.5,tones/880hz_short.mp3,cuarenta y uno,tones/880hz_short.mp3,tone_number_task+empty_block+empty_block,s,698.5,j,898.0
3.0,29.0,tone_number_task,1175.0,1025.0,tones/440hz_short.mp3,sesenta y uno,tones/440hz_short.mp3,tone_number_task+delay_block+tone_number_task_remaining_before_delay+empty_block,a,549.0,k,447.0
3.0,30.0,tone_number_task,150.0,0.0,tones/440hz_short.mp3,veintiocho,tones/440hz_short.mp3,tone_number_task+empty_block+empty_block,a,560.0,j,710.0
3.0,31.0,tone_number_task,1142.5,992.5,tones/880hz_short.mp3,cincuenta y seis,tones/880hz_short.mp3,tone_number_task+delay_block+tone_number_task_remaining_before_delay+empty_block,s,629.0,k,1250.0
3.0,32.0,tone_number_task,1175.0,1025.0,tones/440hz_short.mp3,cincuenta y nueve,tones/440hz_short.mp3,tone_number_task+delay_block+tone_number_task_remaining_before_delay+empty_block,a,448.0,k,702.0
3.0,33.0,tone_number_task,1175.0,1025.0,tones/880hz_short.mp3,cuarenta y dos,tones/880hz_short.mp3,tone_number_task+delay_block+tone_number_task_remaining_before_delay+empty_block,a,579.0,j,599.0
3.0,34.0,tone_number_task,1175.0,1025.0,tones/440hz_short.mp3,veinticuatro,tones/440hz_short.mp3,tone_number_task+delay_block+tone_number_task_remaining_before_delay+empty_block,s,661.0,j,878.0
3.0,35.0,tone_number_task,1175.0,1025.0,tones/440hz_short.mp3,treinta y cinco,tones/440hz_short.mp3,tone_number_task+delay_block+tone_number_task_remaining_before_delay+empty_block,a,421.0,j,501.0
3.0,36.0,tone_number_task,1175.0,1025.0,tones/880hz_short.mp3,cincuenta y seis,tones/880hz_short.mp3,tone_number_task+delay_block+tone_number_task_remaining_before_delay+empty_block,s,680.0,k,483.0
3.0,37.0,tone_number_task,252.5,102.5,tones/880hz_short.mp3,cuarenta,tones/880hz_short.mp3,tone_number_task+empty_block+empty_block,s,1045.5,j,1225.0
3.0,38.0,tone_number_task,150.0,0.0,tones/440hz_short.mp3,treinta y dos,tones/440hz_short.mp3,tone_number_task+empty_block+empty_block,a,587.0,j,769.0
3.0,39.0,tone_number_task,252.5,102.5,tones/880hz_short.mp3,cuarenta y siete,tones/880hz_short.mp3,tone_number_task+empty_block+empty_block,s,704.5,k,1132.0
