block,round,task,trial_duration,delay,audioFile,number,stimulus,type,response_1,rt_1,response_2,rt_2,is_word
0.0,0.0,tone_number_task,584.0,434.0,tones/880hz_short.mp3,65,tones/880hz_short.mp3,tone_number_task+empty_block+empty_block,s,798.0,k,728.0,False
0.0,1.0,tone_number_task,1010.0,860.0,tones/880hz_short.mp3,23,tones/880hz_short.mp3,tone_number_task+delay_block+tone_number_task_remaining_before_delay+empty_block,s,395.0,j,326.0,False
0.0,2.0,tone_number_task,767.0,617.0,tones/880hz_short.mp3,37,tones/880hz_short.mp3,tone_number_task+delay_block+tone_number_task_remaining_before_delay+empty_block,s,432.0,j,541.0,False
0.0,3.0,tone_number_task,1097.0,947.0,tones/880hz_short.mp3,56,tones/880hz_short.mp3,tone_number_task+delay_block+tone_number_task_remaining_before_delay+empty_block,s,523.0,k,443.0,False
0.0,4.0,tone_number_task,171.0,21.0,tones/880hz_short.mp3,24,tones/880hz_short.mp3,tone_number_task+empty_block+empty_block,s,353.0,j,641.0,False
0.0,5.0,tone_number_task,462.0,312.0,tones/440hz_short.mp3,23,tones/440hz_short.mp3,tone_number_task+empty_block+empty_block,a,768.0,j,1073.0,False
0.0,6.0,tone_number_task,640.0,490.0,tones/440hz_short.mp3,62,tones/440hz_short.mp3,tone_number_task+tone_number_task_remaining_after_delay+empty_block,a,499.0,k,497.0,False
0.0,7.0,tone_number_task,903.0,753.0,tones/440hz_short.mp3,66,tones/440hz_short.mp3,tone_number_task+delay_block+tone_number_task_remaining_before_delay+empty_block,a,467.0,k,449.0,False
0.0,8.0,tone_number_task,635.0,485.0,tones/440hz_short.mp3,34,tones/440hz_short.mp3,tone_number_task+empty_block+empty_block,a,917.0,j,988.0,False
0.0,9.0,tone_number_task,920.0,770.0,tones/880hz_short.mp3,42,tones/880hz_short.mp3,tone_number_task+delay_block+tone_number_task_remaining_before_delay+empty_block,s,368.0,j,620.0,False
0.0,10.0,tone_number_task,292.0,142.0,tones/880hz_short.mp3,37,tones/880hz_short.mp3,tone_number_task+empty_block+empty_block,s,449.0,j,663.0,False
0.0,11.0,tone_number_task,696.0,546.0,tones/440hz_short.mp3,42,tones/440hz_short.mp3,tone_number_task+tone_number_task_remaining_after_delay+empty_block,a,667.0,j,677.0,False
0.0,12.0,tone_number_task,872.0,722.0,tones/440hz_short.mp3,30,tones/440hz_short.mp3,tone_number_task+empty_block+empty_block,a,1183.0,j,811.0,False
0.0,13.0,tone_number_task,228.0,78.0,tones/880hz_short.mp3,21,tones/880hz_short.mp3,tone_number_task+empty_block+empty_block,s,352.0,j,596.0,False
0.0,14.0,tone_number_task,521.0,371.0,tones/880hz_short.mp3,41,tones/880hz_short.mp3,tone_number_task+tone_number_task_remaining_after_delay+empty_block,s,440.0,j,568.0,False
0.0,15.0,tone_number_task,615.0,465.0,tones/440hz_short.mp3,37,tones/440hz_short.mp3,tone_number_task+delay_block+tone_number_task_remaining_before_delay+empty_block,a,453.0,j,405.0,False
0.0,16.0,tone_number_task,802.0,652.0,tones/440hz_short.mp3,33,tones/440hz_short.mp3,tone_number_task+delay_block+tone_number_task_remaining_before_delay+empty_block,a,395.0,j,407.0,False
0.0,17.0,tone_number_task,786.0,636.0,tones/440hz_short.mp3,39,tones/440hz_short.mp3,tone_number_task+delay_block+tone_number_task_remaining_before_delay+empty_block,a,408.0,j,425.0,False
0.0,18.0,tone_number_task,975.0,825.0,tones/880hz_short.mp3,40,tones/880hz_short.mp3,tone_number_task+delay_block+tone_number_task_remaining_before_delay+empty_block,s,571.0,j,480.0,False
0.0,19.0,tone_number_task,1088.0,938.0,tones/440hz_short.mp3,43,tones/440hz_short.mp3,tone_number_task+delay_block+tone_number_task_remaining_before_delay+empty_block,a,464.0,j,509.0,False
0.0,20.0,tone_number_task,544.0,394.0,tones/440hz_short.mp3,64,tones/440hz_short.mp3,tone_number_task+delay_block+tone_number_task_remaining_before_delay+empty_block,a,381.0,k,485.0,False
0.0,21.0,tone_number_task,478.0,328.0,tones/880hz_short.mp3,68,tones/880hz_short.mp3,tone_number_task+tone_number_task_remaining_after_delay+empty_block,s,413.0,k,478.0,False
0.0,22.0,tone_number_task,511.0,361.0,tones/880hz_short.mp3,21,tones/880hz_short.mp3,tone_number_task+empty_block+empty_block,s,538.0,j,546.0,False
0.0,23.0,tone_number_task,471.0,321.0,tones/440hz_short.mp3,30,tones/440hz_short.mp3,tone_number_task+empty_block+empty_block,a,550.0,j,546.0,False
0.0,24.0,tone_number_task,299.0,149.0,tones/440hz_short.mp3,68,tones/440hz_short.mp3,tone_number_task+empty_block+empty_block,a,349.0,k,605.0,False
0.0,25.0,tone_number_task,1132.0,982.0,tones/880hz_short.mp3,69,tones/880hz_short.mp3,tone_number_task+delay_block+tone_number_task_remaining_before_delay+empty_block,s,541.0,k,429.0,False
0.0,26.0,tone_number_task,1025.0,875.0,tones/440hz_short.mp3,65,tones/440hz_short.mp3,tone_number_task+delay_block+tone_number_task_remaining_before_delay+empty_block,a,547.0,k,443.0,False
0.0,27.0,tone_number_task,863.0,713.0,tones/880hz_short.mp3,66,tones/880hz_short.mp3,tone_number_task+delay_block+tone_number_task_remaining_before_delay+empty_block,s,517.0,k,441.0,False
0.0,28.0,tone_number_task,802.0,652.0,tones/880hz_short.mp3,66,tones/880hz_short.mp3,tone_number_task+delay_block+tone_number_task_remaining_before_delay+empty_block,s,381.0,k,321.0,False
0.0,29.0,tone_number_task,282.0,132.0,tones/440hz_short.mp3,26,tones/440hz_short.mp3,tone_number_task+empty_block+empty_block,a,465.0,j,706.0,False
0.0,30.0,tone_number_task,1168.0,1018.0,tones/880hz_short.mp3,38,tones/880hz_short.mp3,tone_number_task+delay_block+tone_number_task_remaining_before_delay+empty_block,s,813.0,j,416.0,False
0.0,31.0,tone_number_task,984.0,834.0,tones/880hz_short.mp3,42,tones/880hz_short.mp3,tone_number_task+empty_block+empty_block,s,1044.0,j,583.0,False
0.0,32.0,tone_number_task,309.0,159.0,tones/880hz_short.mp3,22,tones/880hz_short.mp3,tone_number_task+empty_block+empty_block,s,1127.0,j,1281.0,False
0.0,33.0,tone_number_task,1131.0,981.0,tones/880hz_short.mp3,21,tones/880hz_short.mp3,tone_number_task+delay_block+tone_number_task_remaining_before_delay+empty_block,s,827.0,j,389.0,False
0.0,34.0,tone_number_task,668.0,518.0,tones/440hz_short.mp3,48,tones/440hz_short.mp3,tone_number_task+tone_number_task_remaining_after_delay+empty_block,a,611.0,j,818.0,False
0.0,36.0,tone_number_task,1094.0,944.0,tones/440hz_short.mp3,29,tones/440hz_short.mp3,tone_number_task+delay_block+tone_number_task_remaining_before_delay+empty_block,a,821.0,j,502.0,False
0.0,37.0,tone_number_task,709.0,559.0,tones/880hz_short.mp3,43,tones/880hz_short.mp3,tone_number_task+delay_block+tone_number_task_remaining_before_delay+empty_block,s,432.0,j,646.0,False
0.0,38.0,tone_number_task,1111.0,961.0,tones/880hz_short.mp3,60,tones/880hz_short.mp3,tone_number_task+delay_block+tone_number_task_remaining_before_delay+empty_block,s,440.0,k,456.0,False
0.0,39.0,tone_number_task,519.0,369.0,tones/440hz_short.mp3,57,tones/440hz_short.mp3,tone_number_task+empty_block+empty_block,a,557.0,k,663.0,False
1.0,0.0,tone_number_task,382.0,232.0,tones/440hz_short.mp3,21,tones/440hz_short.mp3,tone_number_task+empty_block+empty_block,s,1230.0,j,1337.0,False
1.0,1.0,tone_number_task,220.0,70.0,tones/440hz_short.mp3,69,tones/440hz_short.mp3,tone_number_task+empty_block+empty_block,a,669.0,k,925.0,False
1.0,2.0,tone_number_task,230.0,80.0,tones/440hz_short.mp3,29,tones/440hz_short.mp3,tone_number_task+empty_block+empty_block,a,494.0,j,776.0,False
1.0,3.0,tone_number_task,907.0,757.0,tones/440hz_short.mp3,48,tones/440hz_short.mp3,tone_number_task+delay_block+tone_number_task_remaining_before_delay+empty_block,a,504.0,k,897.0,False
1.0,4.0,tone_number_task,355.0,205.0,tones/880hz_short.mp3,25,tones/880hz_short.mp3,tone_number_task+empty_block+empty_block,s,399.0,j,559.0,False
1.0,5.0,tone_number_task,369.0,219.0,tones/880hz_short.mp3,40,tones/880hz_short.mp3,tone_number_task+empty_block+empty_block,s,380.0,j,564.0,False
1.0,6.0,tone_number_task,523.0,373.0,tones/440hz_short.mp3,44,tones/440hz_short.mp3,tone_number_task+empty_block+empty_block,a,617.0,j,633.0,False
1.0,7.0,tone_number_task,376.0,226.0,tones/440hz_short.mp3,53,tones/440hz_short.mp3,tone_number_task+empty_block+empty_block,a,423.0,k,896.0,False
1.0,8.0,tone_number_task,281.0,131.0,tones/880hz_short.mp3,26,tones/880hz_short.mp3,tone_number_task+empty_block+empty_block,s,463.0,j,679.0,False
1.0,9.0,tone_number_task,889.0,739.0,tones/880hz_short.mp3,26,tones/880hz_short.mp3,tone_number_task+delay_block+tone_number_task_remaining_before_delay+empty_block,s,419.0,j,475.0,False
1.0,10.0,tone_number_task,360.0,210.0,tones/880hz_short.mp3,28,tones/880hz_short.mp3,tone_number_task+empty_block+empty_block,s,419.0,j,543.0,False
1.0,11.0,tone_number_task,326.0,176.0,tones/440hz_short.mp3,59,tones/440hz_short.mp3,tone_number_task+empty_block+empty_block,a,513.0,k,716.0,False
1.0,12.0,tone_number_task,313.0,163.0,tones/440hz_short.mp3,44,tones/440hz_short.mp3,tone_number_task+empty_block+empty_block,a,440.0,j,897.0,False
1.0,13.0,tone_number_task,903.0,753.0,tones/440hz_short.mp3,34,tones/440hz_short.mp3,tone_number_task+delay_block+tone_number_task_remaining_before_delay+empty_block,a,616.0,j,541.0,False
1.0,14.0,tone_number_task,214.0,64.0,tones/440hz_short.mp3,28,tones/440hz_short.mp3,tone_number_task+empty_block+empty_block,a,390.0,j,646.0,False
1.0,15.0,tone_number_task,332.0,182.0,tones/880hz_short.mp3,41,tones/880hz_short.mp3,tone_number_task+empty_block+empty_block,s,540.0,j,736.0,False
1.0,16.0,tone_number_task,295.0,145.0,tones/440hz_short.mp3,25,tones/440hz_short.mp3,tone_number_task+empty_block+empty_block,a,499.0,j,716.0,False
1.0,17.0,tone_number_task,634.0,484.0,tones/440hz_short.mp3,59,tones/440hz_short.mp3,tone_number_task+tone_number_task_remaining_after_delay+empty_block,a,603.0,k,574.0,False
1.0,18.0,tone_number_task,735.0,585.0,tones/440hz_short.mp3,61,tones/440hz_short.mp3,tone_number_task+delay_block+tone_number_task_remaining_before_delay+empty_block,a,501.0,k,487.0,False
1.0,19.0,tone_number_task,155.0,5.0,tones/440hz_short.mp3,47,tones/440hz_short.mp3,tone_number_task+empty_block+empty_block,a,1135.0,k,1752.0,False
1.0,20.0,tone_number_task,361.0,211.0,tones/880hz_short.mp3,48,tones/880hz_short.mp3,tone_number_task+empty_block+empty_block,s,489.0,k,887.0,False
1.0,21.0,tone_number_task,833.0,683.0,tones/880hz_short.mp3,57,tones/880hz_short.mp3,tone_number_task+delay_block+tone_number_task_remaining_before_delay+empty_block,s,411.0,k,344.0,False
1.0,22.0,tone_number_task,622.0,472.0,tones/440hz_short.mp3,64,tones/440hz_short.mp3,tone_number_task+tone_number_task_remaining_after_delay+empty_block,a,555.0,k,499.0,False
1.0,24.0,tone_number_task,243.0,93.0,tones/440hz_short.mp3,43,tones/440hz_short.mp3,tone_number_task+empty_block+empty_block,a,1040.0,j,1266.0,False
1.0,25.0,tone_number_task,448.0,298.0,tones/440hz_short.mp3,40,tones/440hz_short.mp3,tone_number_task+empty_block+empty_block,a,494.0,j,539.0,False
1.0,26.0,tone_number_task,1053.0,903.0,tones/440hz_short.mp3,44,tones/440hz_short.mp3,tone_number_task+delay_block+tone_number_task_remaining_before_delay+empty_block,a,675.0,j,522.0,False
1.0,27.0,tone_number_task,1058.0,908.0,tones/880hz_short.mp3,64,tones/880hz_short.mp3,tone_number_task+tone_number_task_remaining_after_delay+empty_block,s,917.0,k,427.0,False
1.0,28.0,tone_number_task,249.0,99.0,tones/440hz_short.mp3,69,tones/440hz_short.mp3,tone_number_task+empty_block+empty_block,a,1130.0,k,1401.0,False
1.0,29.0,tone_number_task,1140.0,990.0,tones/880hz_short.mp3,37,tones/880hz_short.mp3,tone_number_task+delay_block+tone_number_task_remaining_before_delay+empty_block,s,629.0,j,476.0,False
1.0,30.0,tone_number_task,1055.0,905.0,tones/880hz_short.mp3,48,tones/880hz_short.mp3,tone_number_task+delay_block+tone_number_task_remaining_before_delay+empty_block,s,621.0,k,531.0,False
1.0,31.0,tone_number_task,1129.0,979.0,tones/880hz_short.mp3,34,tones/880hz_short.mp3,tone_number_task+delay_block+tone_number_task_remaining_before_delay+empty_block,s,451.0,j,461.0,False
1.0,32.0,tone_number_task,461.0,311.0,tones/880hz_short.mp3,24,tones/880hz_short.mp3,tone_number_task+empty_block+empty_block,s,462.0,j,534.0,False
1.0,33.0,tone_number_task,461.0,311.0,tones/880hz_short.mp3,61,tones/880hz_short.mp3,tone_number_task+empty_block+empty_block,s,659.0,k,679.0,False
1.0,34.0,tone_number_task,1036.0,886.0,tones/880hz_short.mp3,44,tones/880hz_short.mp3,tone_number_task+delay_block+tone_number_task_remaining_before_delay+empty_block,s,461.0,j,395.0,False
1.0,35.0,tone_number_task,1018.0,868.0,tones/880hz_short.mp3,32,tones/880hz_short.mp3,tone_number_task+delay_block+tone_number_task_remaining_before_delay+empty_block,s,352.0,j,448.0,False
1.0,36.0,tone_number_task,1140.0,990.0,tones/440hz_short.mp3,53,tones/440hz_short.mp3,tone_number_task+delay_block+tone_number_task_remaining_before_delay+empty_block,a,661.0,k,611.0,False
1.0,37.0,tone_number_task,1012.0,862.0,tones/440hz_short.mp3,33,tones/440hz_short.mp3,tone_number_task+tone_number_task_remaining_after_delay+empty_block,a,920.0,j,521.0,False
1.0,38.0,tone_number_task,1092.0,942.0,tones/440hz_short.mp3,41,tones/440hz_short.mp3,tone_number_task+empty_block+empty_block,a,1092.0,j,626.0,False
1.0,39.0,tone_number_task,813.0,663.0,tones/880hz_short.mp3,37,tones/880hz_short.mp3,tone_number_task+delay_block+tone_number_task_remaining_before_delay+empty_block,s,651.0,j,485.0,False
2.0,0.0,tone_number_task,206.0,56.0,tones/880hz_short.mp3,68,tones/880hz_short.mp3,tone_number_task+empty_block+empty_block,s,710.0,k,995.0,True
2.0,1.0,tone_number_task,572.0,422.0,tones/880hz_short.mp3,69,tones/880hz_short.mp3,tone_number_task+tone_number_task_remaining_after_delay+empty_block,s,499.0,k,498.0,True
2.0,2.0,tone_number_task,501.0,351.0,tones/880hz_short.mp3,67,tones/880hz_short.mp3,tone_number_task+empty_block+empty_block,s,628.0,k,574.0,True
2.0,3.0,tone_number_task,156.0,6.0,tones/880hz_short.mp3,22,tones/880hz_short.mp3,tone_number_task+empty_block+empty_block,s,479.0,j,769.0,True
2.0,4.0,tone_number_task,1032.0,882.0,tones/440hz_short.mp3,30,tones/440hz_short.mp3,tone_number_task+delay_block+tone_number_task_remaining_before_delay+empty_block,a,515.0,k,1009.0,True
2.0,5.0,tone_number_task,391.0,241.0,tones/880hz_short.mp3,51,tones/880hz_short.mp3,tone_number_task+empty_block+empty_block,s,717.0,k,773.0,True
2.0,6.0,tone_number_task,510.0,360.0,tones/440hz_short.mp3,65,tones/440hz_short.mp3,tone_number_task+empty_block+empty_block,a,511.0,k,596.0,True
2.0,7.0,tone_number_task,325.0,175.0,tones/880hz_short.mp3,35,tones/880hz_short.mp3,tone_number_task+empty_block+empty_block,s,606.0,j,828.0,True
2.0,8.0,tone_number_task,989.0,839.0,tones/880hz_short.mp3,43,tones/880hz_short.mp3,tone_number_task+delay_block+tone_number_task_remaining_before_delay+empty_block,s,576.0,j,801.0,True
2.0,9.0,tone_number_task,736.0,586.0,tones/880hz_short.mp3,38,tones/880hz_short.mp3,tone_number_task+tone_number_task_remaining_after_delay+empty_block,s,696.0,j,545.0,True
2.0,10.0,tone_number_task,324.0,174.0,tones/440hz_short.mp3,55,tones/440hz_short.mp3,tone_number_task+empty_block+empty_block,a,550.0,k,759.0,True
2.0,11.0,tone_number_task,310.0,160.0,tones/880hz_short.mp3,59,tones/880hz_short.mp3,tone_number_task+empty_block+empty_block,s,572.0,k,731.0,True
2.0,12.0,tone_number_task,1162.0,1012.0,tones/440hz_short.mp3,39,tones/440hz_short.mp3,tone_number_task+delay_block+tone_number_task_remaining_before_delay+empty_block,a,539.0,k,753.0,True
2.0,13.0,tone_number_task,268.0,118.0,tones/880hz_short.mp3,32,tones/880hz_short.mp3,tone_number_task+empty_block+empty_block,s,616.0,j,827.0,True
2.0,14.0,tone_number_task,431.0,281.0,tones/440hz_short.mp3,34,tones/440hz_short.mp3,tone_number_task+empty_block+empty_block,a,608.0,j,655.0,True
2.0,15.0,tone_number_task,189.0,39.0,tones/880hz_short.mp3,24,tones/880hz_short.mp3,tone_number_task+empty_block+empty_block,s,409.0,j,707.0,True
2.0,16.0,tone_number_task,948.0,798.0,tones/440hz_short.mp3,59,tones/440hz_short.mp3,tone_number_task+delay_block+tone_number_task_remaining_before_delay+empty_block,a,573.0,k,433.0,True
2.0,17.0,tone_number_task,788.0,638.0,tones/880hz_short.mp3,36,tones/880hz_short.mp3,tone_number_task+tone_number_task_remaining_after_delay+empty_block,s,733.0,j,518.0,True
2.0,18.0,tone_number_task,1150.0,1000.0,tones/880hz_short.mp3,47,tones/880hz_short.mp3,tone_number_task+delay_block+tone_number_task_remaining_before_delay+empty_block,s,563.0,k,913.0,True
2.0,19.0,tone_number_task,263.0,113.0,tones/440hz_short.mp3,63,tones/440hz_short.mp3,tone_number_task+empty_block+empty_block,a,547.0,k,765.0,True
2.0,20.0,tone_number_task,1154.0,1004.0,tones/880hz_short.mp3,51,tones/880hz_short.mp3,tone_number_task+delay_block+tone_number_task_remaining_before_delay+empty_block,s,912.0,k,477.0,True
2.0,21.0,tone_number_task,392.0,242.0,tones/880hz_short.mp3,67,tones/880hz_short.mp3,tone_number_task+empty_block+empty_block,s,480.0,k,548.0,True
2.0,22.0,tone_number_task,726.0,576.0,tones/880hz_short.mp3,47,tones/880hz_short.mp3,tone_number_task+delay_block+tone_number_task_remaining_before_delay+empty_block,s,560.0,k,781.0,True
2.0,23.0,tone_number_task,499.0,349.0,tones/880hz_short.mp3,53,tones/880hz_short.mp3,tone_number_task+empty_block+empty_block,s,526.0,k,574.0,True
2.0,24.0,tone_number_task,837.0,687.0,tones/440hz_short.mp3,37,tones/440hz_short.mp3,tone_number_task+delay_block+tone_number_task_remaining_before_delay+empty_block,a,568.0,j,958.0,True
2.0,25.0,tone_number_task,395.0,245.0,tones/440hz_short.mp3,66,tones/440hz_short.mp3,tone_number_task+empty_block+empty_block,a,629.0,k,751.0,True
2.0,26.0,tone_number_task,318.0,168.0,tones/880hz_short.mp3,42,tones/880hz_short.mp3,tone_number_task+empty_block+empty_block,s,434.0,k,919.0,True
2.0,27.0,tone_number_task,670.0,520.0,tones/440hz_short.mp3,23,tones/440hz_short.mp3,tone_number_task+tone_number_task_remaining_after_delay+empty_block,a,587.0,j,545.0,True
2.0,28.0,tone_number_task,485.0,335.0,tones/440hz_short.mp3,62,tones/440hz_short.mp3,tone_number_task+empty_block+empty_block,a,536.0,k,563.0,True
2.0,29.0,tone_number_task,386.0,236.0,tones/880hz_short.mp3,63,tones/880hz_short.mp3,tone_number_task+empty_block+empty_block,s,613.0,k,671.0,True
2.0,30.0,tone_number_task,334.0,184.0,tones/440hz_short.mp3,44,tones/440hz_short.mp3,tone_number_task+empty_block+empty_block,a,477.0,j,998.0,True
2.0,31.0,tone_number_task,606.0,456.0,tones/880hz_short.mp3,63,tones/880hz_short.mp3,tone_number_task+empty_block+empty_block,s,724.0,k,538.0,True
2.0,32.0,tone_number_task,1045.0,895.0,tones/440hz_short.mp3,69,tones/440hz_short.mp3,tone_number_task+delay_block+tone_number_task_remaining_before_delay+empty_block,a,768.0,k,456.0,True
2.0,33.0,tone_number_task,1011.0,861.0,tones/440hz_short.mp3,27,tones/440hz_short.mp3,tone_number_task+delay_block+tone_number_task_remaining_before_delay+empty_block,a,571.0,j,553.0,True
2.0,34.0,tone_number_task,184.0,34.0,tones/440hz_short.mp3,50,tones/440hz_short.mp3,tone_number_task+empty_block+empty_block,a,425.0,k,779.0,True
2.0,35.0,tone_number_task,1070.0,920.0,tones/440hz_short.mp3,53,tones/440hz_short.mp3,tone_number_task+delay_block+tone_number_task_remaining_before_delay+empty_block,a,496.0,k,472.0,True
2.0,36.0,tone_number_task,783.0,633.0,tones/880hz_short.mp3,61,tones/880hz_short.mp3,tone_number_task+delay_block+tone_number_task_remaining_before_delay+empty_block,s,592.0,k,440.0,True
2.0,37.0,tone_number_task,474.0,324.0,tones/880hz_short.mp3,42,tones/880hz_short.mp3,tone_number_task+tone_number_task_remaining_after_delay+empty_block,s,432.0,j,603.0,True
2.0,38.0,tone_number_task,952.0,802.0,tones/440hz_short.mp3,65,tones/440hz_short.mp3,tone_number_task+delay_block+tone_number_task_remaining_before_delay+empty_block,a,499.0,k,364.0,True
2.0,39.0,tone_number_task,162.0,12.0,tones/440hz_short.mp3,24,tones/440hz_short.mp3,tone_number_task+empty_block+empty_block,a,380.0,j,688.0,True
3.0,0.0,tone_number_task,945.0,795.0,tones/440hz_short.mp3,26,tones/440hz_short.mp3,tone_number_task+delay_block+tone_number_task_remaining_before_delay+empty_block,a,445.0,j,503.0,True
3.0,1.0,tone_number_task,437.0,287.0,tones/440hz_short.mp3,33,tones/440hz_short.mp3,tone_number_task+tone_number_task_remaining_after_delay+empty_block,a,397.0,j,740.0,True
3.0,2.0,tone_number_task,242.0,92.0,tones/440hz_short.mp3,26,tones/440hz_short.mp3,tone_number_task+empty_block+empty_block,a,391.0,j,583.0,True
3.0,3.0,tone_number_task,730.0,580.0,tones/440hz_short.mp3,30,tones/440hz_short.mp3,tone_number_task+delay_block+tone_number_task_remaining_before_delay+empty_block,a,421.0,j,623.0,True
3.0,4.0,tone_number_task,402.0,252.0,tones/880hz_short.mp3,68,tones/880hz_short.mp3,tone_number_task+empty_block+empty_block,s,448.0,k,740.0,True
3.0,5.0,tone_number_task,879.0,729.0,tones/440hz_short.mp3,28,tones/440hz_short.mp3,tone_number_task+delay_block+tone_number_task_remaining_before_delay+empty_block,a,480.0,j,587.0,True
3.0,6.0,tone_number_task,1098.0,948.0,tones/440hz_short.mp3,54,tones/440hz_short.mp3,tone_number_task+delay_block+tone_number_task_remaining_before_delay+empty_block,a,683.0,k,823.0,True
3.0,7.0,tone_number_task,807.0,657.0,tones/440hz_short.mp3,65,tones/440hz_short.mp3,tone_number_task+delay_block+tone_number_task_remaining_before_delay+empty_block,a,411.0,k,442.0,True
3.0,8.0,tone_number_task,979.0,829.0,tones/880hz_short.mp3,39,tones/880hz_short.mp3,tone_number_task+delay_block+tone_number_task_remaining_before_delay+empty_block,s,549.0,j,498.0,True
3.0,9.0,tone_number_task,191.0,41.0,tones/880hz_short.mp3,60,tones/880hz_short.mp3,tone_number_task+empty_block+empty_block,s,366.0,k,637.0,True
3.0,10.0,tone_number_task,436.0,286.0,tones/880hz_short.mp3,24,tones/880hz_short.mp3,tone_number_task+tone_number_task_remaining_after_delay+empty_block,s,397.0,j,446.0,True
3.0,11.0,tone_number_task,213.0,63.0,tones/880hz_short.mp3,35,tones/880hz_short.mp3,tone_number_task+empty_block+empty_block,s,385.0,j,606.0,True
3.0,12.0,tone_number_task,999.0,849.0,tones/440hz_short.mp3,34,tones/440hz_short.mp3,tone_number_task+delay_block+tone_number_task_remaining_before_delay+empty_block,a,667.0,j,669.0,True
3.0,13.0,tone_number_task,311.0,161.0,tones/440hz_short.mp3,64,tones/440hz_short.mp3,tone_number_task+empty_block+empty_block,a,468.0,k,627.0,True
3.0,14.0,tone_number_task,305.0,155.0,tones/880hz_short.mp3,31,tones/880hz_short.mp3,tone_number_task+empty_block+empty_block,s,430.0,j,569.0,True
3.0,15.0,tone_number_task,1089.0,939.0,tones/880hz_short.mp3,24,tones/880hz_short.mp3,tone_number_task+delay_block+tone_number_task_remaining_before_delay+empty_block,s,429.0,j,468.0,True
3.0,16.0,tone_number_task,480.0,330.0,tones/880hz_short.mp3,24,tones/880hz_short.mp3,tone_number_task+tone_number_task_remaining_after_delay+empty_block,s,355.0,j,419.0,True
3.0,17.0,tone_number_task,742.0,592.0,tones/880hz_short.mp3,21,tones/880hz_short.mp3,tone_number_task+delay_block+tone_number_task_remaining_before_delay+empty_block,s,443.0,j,352.0,True
3.0,18.0,tone_number_task,1093.0,943.0,tones/880hz_short.mp3,23,tones/880hz_short.mp3,tone_number_task+delay_block+tone_number_task_remaining_before_delay+empty_block,s,381.0,j,426.0,True
3.0,19.0,tone_number_task,257.0,107.0,tones/440hz_short.mp3,59,tones/440hz_short.mp3,tone_number_task+empty_block+empty_block,a,447.0,k,639.0,True
3.0,20.0,tone_number_task,563.0,413.0,tones/440hz_short.mp3,58,tones/440hz_short.mp3,tone_number_task+tone_number_task_remaining_after_delay+empty_block,a,512.0,k,423.0,True
3.0,21.0,tone_number_task,1025.0,875.0,tones/880hz_short.mp3,37,tones/880hz_short.mp3,tone_number_task+delay_block+tone_number_task_remaining_before_delay+empty_block,s,560.0,j,424.0,True
3.0,22.0,tone_number_task,736.0,586.0,tones/880hz_short.mp3,62,tones/880hz_short.mp3,tone_number_task+delay_block+tone_number_task_remaining_before_delay+empty_block,s,413.0,j,365.0,True
3.0,23.0,tone_number_task,1054.0,904.0,tones/880hz_short.mp3,66,tones/880hz_short.mp3,tone_number_task+delay_block+tone_number_task_remaining_before_delay+empty_block,s,504.0,k,347.0,True
3.0,24.0,tone_number_task,1057.0,907.0,tones/880hz_short.mp3,68,tones/880hz_short.mp3,tone_number_task+delay_block+tone_number_task_remaining_before_delay+empty_block,s,392.0,k,324.0,True
3.0,25.0,tone_number_task,931.0,781.0,tones/440hz_short.mp3,35,tones/440hz_short.mp3,tone_number_task+delay_block+tone_number_task_remaining_before_delay+empty_block,a,493.0,j,393.0,True
3.0,26.0,tone_number_task,841.0,691.0,tones/880hz_short.mp3,25,tones/880hz_short.mp3,tone_number_task+delay_block+tone_number_task_remaining_before_delay+empty_block,s,488.0,j,518.0,True
3.0,27.0,tone_number_task,373.0,223.0,tones/880hz_short.mp3,55,tones/880hz_short.mp3,tone_number_task+tone_number_task_remaining_after_delay+empty_block,s,323.0,k,466.0,True
3.0,29.0,tone_number_task,337.0,187.0,tones/440hz_short.mp3,68,tones/440hz_short.mp3,tone_number_task+empty_block+empty_block,a,565.0,k,685.0,True
3.0,30.0,tone_number_task,827.0,677.0,tones/880hz_short.mp3,54,tones/880hz_short.mp3,tone_number_task+delay_block+tone_number_task_remaining_before_delay+empty_block,s,411.0,k,347.0,True
3.0,31.0,tone_number_task,681.0,531.0,tones/880hz_short.mp3,23,tones/880hz_short.mp3,tone_number_task+delay_block+tone_number_task_remaining_before_delay+empty_block,s,435.0,j,420.0,True
3.0,32.0,tone_number_task,436.0,286.0,tones/880hz_short.mp3,62,tones/880hz_short.mp3,tone_number_task+empty_block+empty_block,s,444.0,k,513.0,True
3.0,33.0,tone_number_task,580.0,430.0,tones/440hz_short.mp3,58,tones/440hz_short.mp3,tone_number_task+empty_block+empty_block,a,1110.0,k,1156.0,True
3.0,34.0,tone_number_task,613.0,463.0,tones/440hz_short.mp3,67,tones/440hz_short.mp3,tone_number_task+tone_number_task_remaining_after_delay+empty_block,a,552.0,k,469.0,True
3.0,35.0,tone_number_task,977.0,827.0,tones/440hz_short.mp3,28,tones/440hz_short.mp3,tone_number_task+delay_block+tone_number_task_remaining_before_delay+empty_block,a,600.0,j,532.0,True
3.0,36.0,tone_number_task,327.0,177.0,tones/880hz_short.mp3,69,tones/880hz_short.mp3,tone_number_task+empty_block+empty_block,s,351.0,k,492.0,True
3.0,37.0,tone_number_task,333.0,183.0,tones/440hz_short.mp3,38,tones/440hz_short.mp3,tone_number_task+empty_block+empty_block,a,496.0,j,739.0,True
3.0,38.0,tone_number_task,703.0,553.0,tones/440hz_short.mp3,34,tones/440hz_short.mp3,tone_number_task+delay_block+tone_number_task_remaining_before_delay+empty_block,a,392.0,j,614.0,True
3.0,39.0,tone_number_task,610.0,460.0,tones/880hz_short.mp3,56,tones/880hz_short.mp3,tone_number_task+delay_block+tone_number_task_remaining_before_delay+empty_block,s,349.0,k,508.0,True
