block,round,task,trial_duration,delay,audioFile,number,stimulus,type,response_1,rt_1,response_2,rt_2,is_word
0.0,1.0,tone_number_task,507.0,357.0,tones/880hz_short.mp3,31,tones/880hz_short.mp3,tone_number_task+empty_block+empty_block,s,1578.0,j,1221.0,False
0.0,5.0,tone_number_task,792.0,642.0,tones/440hz_short.mp3,27,tones/440hz_short.mp3,tone_number_task+empty_block+empty_block,a,1551.0,j,909.0,False
0.0,7.0,tone_number_task,258.0,108.0,tones/880hz_short.mp3,47,tones/880hz_short.mp3,tone_number_task+empty_block+empty_block,s,1373.0,k,1265.0,False
0.0,8.0,tone_number_task,958.0,808.0,tones/880hz_short.mp3,68,tones/880hz_short.mp3,tone_number_task+empty_block+empty_block,s,1301.0,k,495.0,False
0.0,10.0,tone_number_task,662.0,512.0,tones/880hz_short.mp3,64,tones/880hz_short.mp3,tone_number_task+empty_block+empty_block,s,1141.0,k,630.0,False
0.0,11.0,tone_number_task,656.0,506.0,tones/880hz_short.mp3,23,tones/880hz_short.mp3,tone_number_task+empty_block+empty_block,s,1447.0,j,941.0,False
0.0,12.0,tone_number_task,316.0,166.0,tones/880hz_short.mp3,34,tones/880hz_short.mp3,tone_number_task+empty_block+empty_block,s,910.0,j,744.0,False
0.0,13.0,tone_number_task,583.0,433.0,tones/880hz_short.mp3,29,tones/880hz_short.mp3,tone_number_task+empty_block+empty_block,s,864.0,j,433.0,False
0.0,14.0,tone_number_task,869.0,719.0,tones/880hz_short.mp3,69,tones/880hz_short.mp3,tone_number_task+empty_block+empty_block,s,1188.0,k,469.0,False
0.0,16.0,tone_number_task,1174.0,1024.0,tones/880hz_short.mp3,21,tones/880hz_short.mp3,tone_number_task+empty_block+empty_block,s,1431.0,j,407.0,False
0.0,17.0,tone_number_task,1063.0,913.0,tones/440hz_short.mp3,47,tones/440hz_short.mp3,tone_number_task+empty_block+empty_block,s,1501.0,k,588.0,False
0.0,18.0,tone_number_task,725.0,575.0,tones/880hz_short.mp3,25,tones/880hz_short.mp3,tone_number_task+empty_block+empty_block,s,1088.0,j,513.0,False
0.0,19.0,tone_number_task,827.0,677.0,tones/880hz_short.mp3,38,tones/880hz_short.mp3,tone_number_task+empty_block+empty_block,s,1907.0,j,1231.0,False
0.0,20.0,tone_number_task,529.0,379.0,tones/440hz_short.mp3,23,tones/440hz_short.mp3,tone_number_task+empty_block+empty_block,a,1214.0,j,836.0,False
0.0,21.0,tone_number_task,364.0,214.0,tones/880hz_short.mp3,33,tones/880hz_short.mp3,tone_number_task+empty_block+empty_block,s,1336.0,j,1122.0,False
0.0,22.0,tone_number_task,533.0,383.0,tones/440hz_short.mp3,38,tones/440hz_short.mp3,tone_number_task+empty_block+empty_block,a,1548.0,j,1165.0,False
0.0,23.0,tone_number_task,532.0,382.0,tones/440hz_short.mp3,60,tones/440hz_short.mp3,tone_number_task+empty_block+empty_block,s,1350.0,k,968.0,False
0.0,27.0,tone_number_task,756.0,606.0,tones/440hz_short.mp3,41,tones/440hz_short.mp3,tone_number_task+empty_block+empty_block,a,1747.0,j,1141.0,False
0.0,28.0,tone_number_task,840.0,690.0,tones/440hz_short.mp3,62,tones/440hz_short.mp3,tone_number_task+empty_block+empty_block,a,1416.0,k,726.0,False
0.0,29.0,tone_number_task,614.0,464.0,tones/440hz_short.mp3,26,tones/440hz_short.mp3,tone_number_task+empty_block+empty_block,a,1111.0,j,650.0,False
0.0,30.0,tone_number_task,553.0,403.0,tones/440hz_short.mp3,32,tones/440hz_short.mp3,tone_number_task+empty_block+empty_block,a,1231.0,j,828.0,False
0.0,31.0,tone_number_task,999.0,849.0,tones/880hz_short.mp3,23,tones/880hz_short.mp3,tone_number_task+empty_block+empty_block,s,1971.0,j,1122.0,False
0.0,32.0,tone_number_task,578.0,428.0,tones/440hz_short.mp3,42,tones/440hz_short.mp3,tone_number_task+empty_block+empty_block,s,1306.0,j,878.0,False
0.0,33.0,tone_number_task,793.0,643.0,tones/880hz_short.mp3,62,tones/880hz_short.mp3,tone_number_task+empty_block+empty_block,s,1665.0,k,1022.0,False
0.0,36.0,tone_number_task,915.0,765.0,tones/880hz_short.mp3,29,tones/880hz_short.mp3,tone_number_task+empty_block+empty_block,s,1799.0,j,1035.0,False
0.0,37.0,tone_number_task,296.0,146.0,tones/440hz_short.mp3,23,tones/440hz_short.mp3,tone_number_task+empty_block+empty_block,a,1066.0,j,921.0,False
0.0,38.0,tone_number_task,1016.0,866.0,tones/440hz_short.mp3,32,tones/440hz_short.mp3,tone_number_task+empty_block+empty_block,a,1800.0,j,937.0,False
0.0,39.0,tone_number_task,963.0,813.0,tones/440hz_short.mp3,26,tones/440hz_short.mp3,tone_number_task+empty_block+empty_block,a,1731.0,j,922.0,False
1.0,0.0,tone_number_task,792.0,642.0,tones/440hz_short.mp3,63,tones/440hz_short.mp3,tone_number_task+empty_block+empty_block,a,1592.0,k,950.0,False
1.0,1.0,tone_number_task,569.0,419.0,tones/440hz_short.mp3,68,tones/440hz_short.mp3,tone_number_task+empty_block+empty_block,a,1286.0,k,867.0,False
1.0,2.0,tone_number_task,1027.0,877.0,tones/880hz_short.mp3,40,tones/880hz_short.mp3,tone_number_task+empty_block+empty_block,s,1478.0,j,603.0,False
1.0,3.0,tone_number_task,760.0,610.0,tones/440hz_short.mp3,30,tones/440hz_short.mp3,tone_number_task+empty_block+empty_block,a,1283.0,j,684.0,False
1.0,4.0,tone_number_task,603.0,453.0,tones/880hz_short.mp3,41,tones/880hz_short.mp3,tone_number_task+empty_block+empty_block,s,1297.0,j,845.0,False
1.0,5.0,tone_number_task,423.0,273.0,tones/440hz_short.mp3,42,tones/440hz_short.mp3,tone_number_task+empty_block+empty_block,a,950.0,j,682.0,False
1.0,6.0,tone_number_task,416.0,266.0,tones/440hz_short.mp3,37,tones/440hz_short.mp3,tone_number_task+empty_block+empty_block,a,815.0,j,549.0,False
1.0,7.0,tone_number_task,1024.0,874.0,tones/440hz_short.mp3,61,tones/440hz_short.mp3,tone_number_task+empty_block+empty_block,a,1419.0,k,546.0,False
1.0,8.0,tone_number_task,169.0,19.0,tones/440hz_short.mp3,69,tones/440hz_short.mp3,tone_number_task+empty_block+empty_block,a,730.0,k,711.0,False
1.0,9.0,tone_number_task,795.0,645.0,tones/440hz_short.mp3,64,tones/440hz_short.mp3,tone_number_task+empty_block+empty_block,a,1119.0,k,474.0,False
1.0,10.0,tone_number_task,848.0,698.0,tones/440hz_short.mp3,54,tones/440hz_short.mp3,tone_number_task+empty_block+empty_block,a,1154.0,k,457.0,False
1.0,12.0,tone_number_task,279.0,129.0,tones/880hz_short.mp3,56,tones/880hz_short.mp3,tone_number_task+empty_block+empty_block,s,1074.0,k,945.0,False
1.0,13.0,tone_number_task,221.0,71.0,tones/880hz_short.mp3,54,tones/880hz_short.mp3,tone_number_task+empty_block+empty_block,s,850.0,k,782.0,False
1.0,16.0,tone_number_task,1106.0,956.0,tones/440hz_short.mp3,27,tones/440hz_short.mp3,tone_number_task+empty_block+empty_block,a,1761.0,j,806.0,False
1.0,18.0,tone_number_task,1125.0,975.0,tones/880hz_short.mp3,62,tones/880hz_short.mp3,tone_number_task+empty_block+empty_block,s,1675.0,k,700.0,False
1.0,19.0,tone_number_task,533.0,383.0,tones/440hz_short.mp3,29,tones/440hz_short.mp3,tone_number_task+empty_block+empty_block,a,1255.0,j,873.0,False
1.0,20.0,tone_number_task,474.0,324.0,tones/880hz_short.mp3,60,tones/880hz_short.mp3,tone_number_task+empty_block+empty_block,s,956.0,k,632.0,False
1.0,22.0,tone_number_task,928.0,778.0,tones/880hz_short.mp3,30,tones/880hz_short.mp3,tone_number_task+empty_block+empty_block,s,1489.0,j,711.0,False
1.0,23.0,tone_number_task,829.0,679.0,tones/880hz_short.mp3,68,tones/880hz_short.mp3,tone_number_task+empty_block+empty_block,s,1327.0,k,648.0,False
1.0,24.0,tone_number_task,1169.0,1019.0,tones/440hz_short.mp3,24,tones/440hz_short.mp3,tone_number_task+empty_block+empty_block,a,1801.0,j,790.0,False
1.0,26.0,tone_number_task,422.0,272.0,tones/880hz_short.mp3,24,tones/880hz_short.mp3,tone_number_task+empty_block+empty_block,s,1376.0,j,1105.0,False
1.0,29.0,tone_number_task,211.0,61.0,tones/440hz_short.mp3,47,tones/440hz_short.mp3,tone_number_task+empty_block+empty_block,a,981.0,k,920.0,False
1.0,33.0,tone_number_task,660.0,510.0,tones/880hz_short.mp3,57,tones/880hz_short.mp3,tone_number_task+empty_block+empty_block,s,1109.0,k,600.0,False
1.0,34.0,tone_number_task,872.0,722.0,tones/440hz_short.mp3,36,tones/440hz_short.mp3,tone_number_task+empty_block+empty_block,s,1300.0,j,579.0,False
1.0,35.0,tone_number_task,1142.0,992.0,tones/880hz_short.mp3,65,tones/880hz_short.mp3,tone_number_task+empty_block+empty_block,s,1792.0,k,800.0,False
1.0,36.0,tone_number_task,430.0,280.0,tones/880hz_short.mp3,38,tones/880hz_short.mp3,tone_number_task+empty_block+empty_block,s,1413.0,j,1133.0,False
1.0,37.0,tone_number_task,238.0,88.0,tones/440hz_short.mp3,27,tones/440hz_short.mp3,tone_number_task+empty_block+empty_block,a,1387.0,j,1299.0,False
1.0,39.0,tone_number_task,344.0,194.0,tones/440hz_short.mp3,27,tones/440hz_short.mp3,tone_number_task+empty_block+empty_block,a,905.0,j,711.0,False
2.0,0.0,tone_number_task,747.0,597.0,tones/880hz_short.mp3,58,tones/880hz_short.mp3,tone_number_task+empty_block+empty_block,s,920.0,k,1081.0,True
2.0,1.0,tone_number_task,552.0,402.0,tones/880hz_short.mp3,31,tones/880hz_short.mp3,tone_number_task+empty_block+empty_block,s,1208.0,j,1176.0,True
2.0,2.0,tone_number_task,303.0,153.0,tones/440hz_short.mp3,23,tones/440hz_short.mp3,tone_number_task+empty_block+empty_block,a,1238.0,j,1295.0,True
2.0,4.0,tone_number_task,780.0,630.0,tones/880hz_short.mp3,41,tones/880hz_short.mp3,tone_number_task+empty_block+empty_block,s,1037.0,j,830.0,True
2.0,5.0,tone_number_task,202.0,52.0,tones/440hz_short.mp3,36,tones/440hz_short.mp3,tone_number_task+empty_block+empty_block,a,941.0,j,1180.0,True
2.0,6.0,tone_number_task,1070.0,920.0,tones/880hz_short.mp3,23,tones/880hz_short.mp3,tone_number_task+empty_block+empty_block,s,1152.0,j,675.0,True
2.0,7.0,tone_number_task,532.0,382.0,tones/440hz_short.mp3,66,tones/440hz_short.mp3,tone_number_task+empty_block+empty_block,a,1364.0,k,1200.0,True
2.0,8.0,tone_number_task,788.0,638.0,tones/880hz_short.mp3,62,tones/880hz_short.mp3,tone_number_task+empty_block+empty_block,s,1156.0,j,875.0,True
2.0,9.0,tone_number_task,1010.0,860.0,tones/440hz_short.mp3,29,tones/440hz_short.mp3,tone_number_task+empty_block+empty_block,a,1371.0,j,834.0,True
2.0,10.0,tone_number_task,851.0,701.0,tones/440hz_short.mp3,55,tones/440hz_short.mp3,tone_number_task+empty_block+empty_block,a,1204.0,k,822.0,True
2.0,11.0,tone_number_task,1106.0,956.0,tones/880hz_short.mp3,36,tones/880hz_short.mp3,tone_number_task+empty_block+empty_block,s,1197.0,j,710.0,True
2.0,13.0,tone_number_task,639.0,489.0,tones/880hz_short.mp3,54,tones/880hz_short.mp3,tone_number_task+empty_block+empty_block,s,1003.0,k,757.0,True
2.0,14.0,tone_number_task,875.0,725.0,tones/440hz_short.mp3,40,tones/440hz_short.mp3,tone_number_task+empty_block+empty_block,a,1091.0,j,644.0,True
2.0,15.0,tone_number_task,996.0,846.0,tones/440hz_short.mp3,38,tones/440hz_short.mp3,tone_number_task+tone_number_task_remaining_after_delay+empty_block,a,940.0,j,626.0,True
2.0,17.0,tone_number_task,890.0,740.0,tones/440hz_short.mp3,66,tones/440hz_short.mp3,tone_number_task+empty_block+empty_block,a,1832.0,k,1864.0,True
2.0,18.0,tone_number_task,282.0,132.0,tones/440hz_short.mp3,30,tones/440hz_short.mp3,tone_number_task+empty_block+empty_block,a,1045.0,j,1068.0,True
2.0,19.0,tone_number_task,331.0,181.0,tones/440hz_short.mp3,48,tones/440hz_short.mp3,tone_number_task+empty_block+empty_block,a,867.0,k,959.0,True
2.0,20.0,tone_number_task,538.0,388.0,tones/440hz_short.mp3,53,tones/440hz_short.mp3,tone_number_task+empty_block+empty_block,a,844.0,k,790.0,True
2.0,21.0,tone_number_task,594.0,444.0,tones/440hz_short.mp3,65,tones/440hz_short.mp3,tone_number_task+empty_block+empty_block,a,882.0,k,726.0,True
2.0,22.0,tone_number_task,669.0,519.0,tones/440hz_short.mp3,29,tones/440hz_short.mp3,tone_number_task+empty_block+empty_block,a,873.0,j,575.0,True
2.0,23.0,tone_number_task,396.0,246.0,tones/880hz_short.mp3,26,tones/880hz_short.mp3,tone_number_task+empty_block+empty_block,a,1180.0,k,1344.0,True
2.0,24.0,tone_number_task,573.0,423.0,tones/880hz_short.mp3,58,tones/880hz_short.mp3,tone_number_task+empty_block+empty_block,s,1008.0,k,866.0,True
2.0,25.0,tone_number_task,943.0,793.0,tones/440hz_short.mp3,62,tones/440hz_short.mp3,tone_number_task+empty_block+empty_block,a,1155.0,k,715.0,True
2.0,26.0,tone_number_task,484.0,334.0,tones/440hz_short.mp3,24,tones/440hz_short.mp3,tone_number_task+empty_block+empty_block,a,1332.0,j,1168.0,True
2.0,27.0,tone_number_task,1071.0,921.0,tones/880hz_short.mp3,28,tones/880hz_short.mp3,tone_number_task+empty_block+empty_block,s,1863.0,j,1277.0,True
2.0,29.0,tone_number_task,588.0,438.0,tones/880hz_short.mp3,59,tones/880hz_short.mp3,tone_number_task+empty_block+empty_block,s,909.0,k,637.0,True
2.0,30.0,tone_number_task,295.0,145.0,tones/880hz_short.mp3,38,tones/880hz_short.mp3,tone_number_task+empty_block+empty_block,a,957.0,j,971.0,True
2.0,31.0,tone_number_task,580.0,430.0,tones/440hz_short.mp3,58,tones/440hz_short.mp3,tone_number_task+empty_block+empty_block,a,1448.0,k,1311.0,True
2.0,32.0,tone_number_task,1092.0,942.0,tones/880hz_short.mp3,48,tones/880hz_short.mp3,tone_number_task+empty_block+empty_block,s,1712.0,k,1066.0,True
2.0,33.0,tone_number_task,796.0,646.0,tones/440hz_short.mp3,27,tones/440hz_short.mp3,tone_number_task+empty_block+empty_block,a,1478.0,j,1154.0,True
2.0,34.0,tone_number_task,732.0,582.0,tones/880hz_short.mp3,66,tones/880hz_short.mp3,tone_number_task+empty_block+empty_block,s,1092.0,k,688.0,True
2.0,36.0,tone_number_task,731.0,581.0,tones/880hz_short.mp3,56,tones/880hz_short.mp3,tone_number_task+empty_block+empty_block,s,1861.0,k,1484.0,True
2.0,37.0,tone_number_task,814.0,664.0,tones/880hz_short.mp3,64,tones/880hz_short.mp3,tone_number_task+empty_block+empty_block,s,1016.0,k,603.0,True
2.0,39.0,tone_number_task,514.0,364.0,tones/440hz_short.mp3,65,tones/440hz_short.mp3,tone_number_task+empty_block+empty_block,a,1215.0,k,1489.0,True
3.0,0.0,tone_number_task,840.0,690.0,tones/440hz_short.mp3,25,tones/440hz_short.mp3,tone_number_task+empty_block+empty_block,a,1085.0,j,674.0,True
3.0,1.0,tone_number_task,822.0,672.0,tones/880hz_short.mp3,35,tones/880hz_short.mp3,tone_number_task+empty_block+empty_block,s,852.0,k,569.0,True
3.0,2.0,tone_number_task,952.0,802.0,tones/440hz_short.mp3,57,tones/440hz_short.mp3,tone_number_task+empty_block+empty_block,a,1333.0,k,723.0,True
3.0,3.0,tone_number_task,1005.0,855.0,tones/440hz_short.mp3,54,tones/440hz_short.mp3,tone_number_task+empty_block+empty_block,a,1390.0,k,716.0,True
3.0,4.0,tone_number_task,1019.0,869.0,tones/880hz_short.mp3,28,tones/880hz_short.mp3,tone_number_task+empty_block+empty_block,a,1808.0,j,1634.0,True
3.0,5.0,tone_number_task,1044.0,894.0,tones/880hz_short.mp3,34,tones/880hz_short.mp3,tone_number_task+tone_number_task_remaining_after_delay+empty_block,s,975.0,j,652.0,True
3.0,6.0,tone_number_task,1048.0,898.0,tones/440hz_short.mp3,42,tones/440hz_short.mp3,tone_number_task+empty_block+empty_block,a,2211.0,j,1504.0,True
3.0,7.0,tone_number_task,691.0,541.0,tones/880hz_short.mp3,30,tones/880hz_short.mp3,tone_number_task+empty_block+empty_block,s,1038.0,j,1090.0,True
3.0,8.0,tone_number_task,882.0,732.0,tones/880hz_short.mp3,61,tones/880hz_short.mp3,tone_number_task+empty_block+empty_block,s,1123.0,k,662.0,True
3.0,9.0,tone_number_task,157.0,7.0,tones/440hz_short.mp3,25,tones/440hz_short.mp3,tone_number_task+empty_block+empty_block,a,834.0,j,972.0,True
3.0,10.0,tone_number_task,1158.0,1008.0,tones/440hz_short.mp3,64,tones/440hz_short.mp3,tone_number_task+empty_block+empty_block,a,1604.0,k,757.0,True
3.0,11.0,tone_number_task,779.0,629.0,tones/880hz_short.mp3,26,tones/880hz_short.mp3,tone_number_task+empty_block+empty_block,s,1182.0,j,691.0,True
3.0,13.0,tone_number_task,1072.0,922.0,tones/440hz_short.mp3,21,tones/440hz_short.mp3,tone_number_task+empty_block+empty_block,a,1459.0,j,691.0,True
3.0,14.0,tone_number_task,1163.0,1013.0,tones/880hz_short.mp3,65,tones/880hz_short.mp3,tone_number_task+empty_block+empty_block,s,1554.0,k,686.0,True
3.0,16.0,tone_number_task,842.0,692.0,tones/440hz_short.mp3,69,tones/440hz_short.mp3,tone_number_task+empty_block+empty_block,a,1781.0,k,1089.0,True
3.0,18.0,tone_number_task,820.0,670.0,tones/440hz_short.mp3,59,tones/440hz_short.mp3,tone_number_task+empty_block+empty_block,a,1731.0,k,1188.0,True
3.0,22.0,tone_number_task,321.0,171.0,tones/440hz_short.mp3,42,tones/440hz_short.mp3,tone_number_task+empty_block+empty_block,a,1408.0,j,1241.0,True
3.0,25.0,tone_number_task,298.0,148.0,tones/880hz_short.mp3,63,tones/880hz_short.mp3,tone_number_task+empty_block+empty_block,s,1307.0,k,1159.0,True
3.0,26.0,tone_number_task,581.0,431.0,tones/880hz_short.mp3,28,tones/880hz_short.mp3,tone_number_task+empty_block+empty_block,s,1273.0,j,842.0,True
3.0,27.0,tone_number_task,497.0,347.0,tones/880hz_short.mp3,58,tones/880hz_short.mp3,tone_number_task+empty_block+empty_block,s,1026.0,k,680.0,True
3.0,28.0,tone_number_task,825.0,675.0,tones/440hz_short.mp3,32,tones/440hz_short.mp3,tone_number_task+empty_block+empty_block,a,1205.0,j,530.0,True
3.0,31.0,tone_number_task,1068.0,918.0,tones/440hz_short.mp3,69,tones/440hz_short.mp3,tone_number_task+empty_block+empty_block,a,2028.0,k,1110.0,True
3.0,33.0,tone_number_task,1133.0,983.0,tones/880hz_short.mp3,57,tones/880hz_short.mp3,tone_number_task+empty_block+empty_block,s,2132.0,k,1150.0,True
3.0,35.0,tone_number_task,784.0,634.0,tones/440hz_short.mp3,22,tones/440hz_short.mp3,tone_number_task+empty_block+empty_block,a,1838.0,j,1219.0,True
3.0,38.0,tone_number_task,391.0,241.0,tones/880hz_short.mp3,63,tones/880hz_short.mp3,tone_number_task+empty_block+empty_block,s,1336.0,k,1095.0,True
