"success","timeout","failed_images","failed_audio","failed_video","trial_type","trial_index","time_elapsed","internal_node_id","run_id","condition","recorded_at","source_code_version","ip","user_agent","device","browser","browser_version","platform","platform_version","referer","accept_language","check","rt","stimulus","response","question_order","url","task","delay","number","audioFile","trial_duration","font_size","block","round","value"
"true","false","[]","[]","[]","preload","0","379","0.0-0.0","16","1","2023-10-31 18:48:25","a725c3012b74bf33a1020a98cb69c237","45.71.5.119","Mozilla/5.0 (Windows NT 10.0; Win64; x64) AppleWebKit/537.36 (KHTML, like Gecko) Chrome/118.0.0.0 Safari/537.36","WebKit","Chrome","118.0.0.0","Windows","10.0","null","es-ES,es;q=0.9","true","","","","","","","","","","","","","",""
"true","","","","","fullscreen","1","8125","0.0-1.0","16","1","2023-10-31 18:48:25","a725c3012b74bf33a1020a98cb69c237","45.71.5.119","Mozilla/5.0 (Windows NT 10.0; Win64; x64) AppleWebKit/537.36 (KHTML, like Gecko) Chrome/118.0.0.0 Safari/537.36","WebKit","Chrome","118.0.0.0","Windows","10.0","null","es-ES,es;q=0.9","true","","","","","","","","","","","","","",""
"","","","","","html-button-response","2","16877","0.0-2.0","16","1","2023-10-31 18:48:25","a725c3012b74bf33a1020a98cb69c237","45.71.5.119","Mozilla/5.0 (Windows NT 10.0; Win64; x64) AppleWebKit/537.36 (KHTML, like Gecko) Chrome/118.0.0.0 Safari/537.36","WebKit","Chrome","118.0.0.0","Windows","10.0","null","es-ES,es;q=0.9","true","8750","<p style=""font-size:24px; color:red;"">Cosas importantes a tener en cuenta antes de comenzar el experimento:</p>","0","","","","","","","","","","",""
"","","","","","html-button-response","3","21985","0.0-3.0","16","1","2023-10-31 18:48:25","a725c3012b74bf33a1020a98cb69c237","45.71.5.119","Mozilla/5.0 (Windows NT 10.0; Win64; x64) AppleWebKit/537.36 (KHTML, like Gecko) Chrome/118.0.0.0 Safari/537.36","WebKit","Chrome","118.0.0.0","Windows","10.0","null","es-ES,es;q=0.9","true","5106","<p style=""font-size:24px;"">El experimento dura aproximadamente 15 minutos.</p><p style=""font-size:24px;"">Por favor, no cierres la ventana del navegador durante el experimento.</p><p style=""font-size:24px;"">Si se completa de forma parcial, no se guardará ningún resultado.</p>","0","","","","","","","","","","",""
"","","","","","html-button-response","4","24435","0.0-4.0","16","1","2023-10-31 18:48:25","a725c3012b74bf33a1020a98cb69c237","45.71.5.119","Mozilla/5.0 (Windows NT 10.0; Win64; x64) AppleWebKit/537.36 (KHTML, like Gecko) Chrome/118.0.0.0 Safari/537.36","WebKit","Chrome","118.0.0.0","Windows","10.0","null","es-ES,es;q=0.9","true","2448","<p style=""font-size:24px;"">El experimento contiene estímulos sonoros.</p>","0","","","","","","","","","","",""
"","","","","","audio-button-response","5","28644","0.0-5.0-0.0","16","1","2023-10-31 18:48:25","a725c3012b74bf33a1020a98cb69c237","45.71.5.119","Mozilla/5.0 (Windows NT 10.0; Win64; x64) AppleWebKit/537.36 (KHTML, like Gecko) Chrome/118.0.0.0 Safari/537.36","WebKit","Chrome","118.0.0.0","Windows","10.0","null","es-ES,es;q=0.9","true","4200","tones/440hz_short.mp3","0","","","","","","","","","","",""
"","","","","","audio-button-response","6","30185","0.0-5.1-0.1","16","1","2023-10-31 18:48:25","a725c3012b74bf33a1020a98cb69c237","45.71.5.119","Mozilla/5.0 (Windows NT 10.0; Win64; x64) AppleWebKit/537.36 (KHTML, like Gecko) Chrome/118.0.0.0 Safari/537.36","WebKit","Chrome","118.0.0.0","Windows","10.0","null","es-ES,es;q=0.9","true","1541","tones/440hz_short.mp3","1","","","","","","","","","","",""
"","","","","","audio-button-response","7","31596","0.0-6.0-0.0","16","1","2023-10-31 18:48:25","a725c3012b74bf33a1020a98cb69c237","45.71.5.119","Mozilla/5.0 (Windows NT 10.0; Win64; x64) AppleWebKit/537.36 (KHTML, like Gecko) Chrome/118.0.0.0 Safari/537.36","WebKit","Chrome","118.0.0.0","Windows","10.0","null","es-ES,es;q=0.9","true","1408","tones/880hz_short.mp3","1","","","","","","","","","","",""
"","","","","","survey-html-form","8","34500","0.0-7.0","16","1","2023-10-31 18:48:25","a725c3012b74bf33a1020a98cb69c237","45.71.5.119","Mozilla/5.0 (Windows NT 10.0; Win64; x64) AppleWebKit/537.36 (KHTML, like Gecko) Chrome/118.0.0.0 Safari/537.36","WebKit","Chrome","118.0.0.0","Windows","10.0","null","es-ES,es;q=0.9","true","2898","","{""response"":""28""}","","","","","","","","","","",""
"","","","","","survey-multi-choice","9","41593","0.0-8.0","16","1","2023-10-31 18:48:25","a725c3012b74bf33a1020a98cb69c237","45.71.5.119","Mozilla/5.0 (Windows NT 10.0; Win64; x64) AppleWebKit/537.36 (KHTML, like Gecko) Chrome/118.0.0.0 Safari/537.36","WebKit","Chrome","118.0.0.0","Windows","10.0","null","es-ES,es;q=0.9","true","7089","","{""gender"":""Mujer"",""hand"":""Derecha""}","[0,1]","","","","","","","","","",""
"","","","","","external-html","10","122187","0.0-9.0","16","1","2023-10-31 18:48:25","a725c3012b74bf33a1020a98cb69c237","45.71.5.119","Mozilla/5.0 (Windows NT 10.0; Win64; x64) AppleWebKit/537.36 (KHTML, like Gecko) Chrome/118.0.0.0 Safari/537.36","WebKit","Chrome","118.0.0.0","Windows","10.0","null","es-ES,es;q=0.9","true","80300","","","","instructions/instructions.html","","","","","","","","",""
"","","","","","external-html","11","156246","0.0-10.0","16","1","2023-10-31 18:48:25","a725c3012b74bf33a1020a98cb69c237","45.71.5.119","Mozilla/5.0 (Windows NT 10.0; Win64; x64) AppleWebKit/537.36 (KHTML, like Gecko) Chrome/118.0.0.0 Safari/537.36","WebKit","Chrome","118.0.0.0","Windows","10.0","null","es-ES,es;q=0.9","true","33757","","","","instructions/animation.html","","","","","","","","",""
"","","","","","html-keyboard-response","12","159109","0.0-11.0-0.0","16","1","2023-10-31 18:48:25","a725c3012b74bf33a1020a98cb69c237","45.71.5.119","Mozilla/5.0 (Windows NT 10.0; Win64; x64) AppleWebKit/537.36 (KHTML, like Gecko) Chrome/118.0.0.0 Safari/537.36","WebKit","Chrome","118.0.0.0","Windows","10.0","null","es-ES,es;q=0.9","true","null","<div style=""font-size:100px;"">X</div>","null","","","fixation","","","","","","","",""
"","","","","","audio-keyboard-response","13","160263","0.0-11.0-1.0","16","1","2023-10-31 18:48:25","a725c3012b74bf33a1020a98cb69c237","45.71.5.119","Mozilla/5.0 (Windows NT 10.0; Win64; x64) AppleWebKit/537.36 (KHTML, like Gecko) Chrome/118.0.0.0 Safari/537.36","WebKit","Chrome","118.0.0.0","Windows","10.0","null","es-ES,es;q=0.9","true","null","tones/440hz_short.mp3","null","","","tone_number_task","1000","25","tones/440hz_short.mp3","1150","100","null","null",""
"","","","","","html-keyboard-response","14","161475","0.0-11.0-4.0-0.0","16","1","2023-10-31 18:48:25","a725c3012b74bf33a1020a98cb69c237","45.71.5.119","Mozilla/5.0 (Windows NT 10.0; Win64; x64) AppleWebKit/537.36 (KHTML, like Gecko) Chrome/118.0.0.0 Safari/537.36","WebKit","Chrome","118.0.0.0","Windows","10.0","null","es-ES,es;q=0.9","true","1209","tones/440hz_short.mp3","s","","","empty_block","","25","","","","null","null",""
"","","","","","html-keyboard-response","15","171478","0.0-11.0-4.0-1.0","16","1","2023-10-31 18:48:25","a725c3012b74bf33a1020a98cb69c237","45.71.5.119","Mozilla/5.0 (Windows NT 10.0; Win64; x64) AppleWebKit/537.36 (KHTML, like Gecko) Chrome/118.0.0.0 Safari/537.36","WebKit","Chrome","118.0.0.0","Windows","10.0","null","es-ES,es;q=0.9","true","null","tones/440hz_short.mp3","null","","","empty_block","","25","","","","null","null",""
"","","","","","html-button-response","16","174982","0.0-11.0-6.0-0.0","16","1","2023-10-31 18:48:25","a725c3012b74bf33a1020a98cb69c237","45.71.5.119","Mozilla/5.0 (Windows NT 10.0; Win64; x64) AppleWebKit/537.36 (KHTML, like Gecko) Chrome/118.0.0.0 Safari/537.36","WebKit","Chrome","118.0.0.0","Windows","10.0","null","es-ES,es;q=0.9","true","3502","
  '<p style=""font-size:24px; color:red;"">Incorrecto</p><p> Respondiste alguno de los estímulos de manera incorrecta.</p><p>Por favor, repasá las instrucciones y seguimos desde donde nos quedamos. </p>
  ","0","","","","","","","","","","",""
"","","","","","external-html","17","185375","0.0-11.0-6.0-1.0","16","1","2023-10-31 18:48:25","a725c3012b74bf33a1020a98cb69c237","45.71.5.119","Mozilla/5.0 (Windows NT 10.0; Win64; x64) AppleWebKit/537.36 (KHTML, like Gecko) Chrome/118.0.0.0 Safari/537.36","WebKit","Chrome","118.0.0.0","Windows","10.0","null","es-ES,es;q=0.9","true","10088","","","","instructions/instructions_B.html","","","","","","","","",""
"","","","","","html-keyboard-response","18","188240","0.0-11.1-0.1","16","1","2023-10-31 18:48:25","a725c3012b74bf33a1020a98cb69c237","45.71.5.119","Mozilla/5.0 (Windows NT 10.0; Win64; x64) AppleWebKit/537.36 (KHTML, like Gecko) Chrome/118.0.0.0 Safari/537.36","WebKit","Chrome","118.0.0.0","Windows","10.0","null","es-ES,es;q=0.9","true","null","<div style=""font-size:100px;"">X</div>","null","","","fixation","","","","","","","",""
"","","","","","audio-keyboard-response","19","188996","0.0-11.1-1.1","16","1","2023-10-31 18:48:25","a725c3012b74bf33a1020a98cb69c237","45.71.5.119","Mozilla/5.0 (Windows NT 10.0; Win64; x64) AppleWebKit/537.36 (KHTML, like Gecko) Chrome/118.0.0.0 Safari/537.36","WebKit","Chrome","118.0.0.0","Windows","10.0","null","es-ES,es;q=0.9","true","752","tones/440hz_short.mp3","a","","","tone_number_task","1000","25","tones/440hz_short.mp3","1150","100","null","null",""
"","","","","","html-keyboard-response","20","189247","0.0-11.1-2.1-0.1","16","1","2023-10-31 18:48:25","a725c3012b74bf33a1020a98cb69c237","45.71.5.119","Mozilla/5.0 (Windows NT 10.0; Win64; x64) AppleWebKit/537.36 (KHTML, like Gecko) Chrome/118.0.0.0 Safari/537.36","WebKit","Chrome","118.0.0.0","Windows","10.0","null","es-ES,es;q=0.9","true","null","","null","","","delay_block","","","","","","null","null",""
"","","","","","html-keyboard-response","21","189401","0.0-11.1-2.1-1.1","16","1","2023-10-31 18:48:25","a725c3012b74bf33a1020a98cb69c237","45.71.5.119","Mozilla/5.0 (Windows NT 10.0; Win64; x64) AppleWebKit/537.36 (KHTML, like Gecko) Chrome/118.0.0.0 Safari/537.36","WebKit","Chrome","118.0.0.0","Windows","10.0","null","es-ES,es;q=0.9","true","null","<p id=""stimulus"" style=""font-size:100px;"">25</p>","null","","","tone_number_task_remaining_before_delay","","25","","398","100","null","null",""
"","","","","","html-keyboard-response","22","190213","0.0-11.1-5.1-0.1","16","1","2023-10-31 18:48:25","a725c3012b74bf33a1020a98cb69c237","45.71.5.119","Mozilla/5.0 (Windows NT 10.0; Win64; x64) AppleWebKit/537.36 (KHTML, like Gecko) Chrome/118.0.0.0 Safari/537.36","WebKit","Chrome","118.0.0.0","Windows","10.0","null","es-ES,es;q=0.9","true","810","<p id=""stimulus"" style=""font-size:100px;"">25</p>","j","","","empty_block","","25","","","","null","null",""
"","","","","","html-keyboard-response","23","193074","0.0-13.0-0.0","16","1","2023-10-31 18:48:25","a725c3012b74bf33a1020a98cb69c237","45.71.5.119","Mozilla/5.0 (Windows NT 10.0; Win64; x64) AppleWebKit/537.36 (KHTML, like Gecko) Chrome/118.0.0.0 Safari/537.36","WebKit","Chrome","118.0.0.0","Windows","10.0","null","es-ES,es;q=0.9","true","null","<div style=""font-size:100px;"">X</div>","null","","","fixation","","","","","","","",""
"","","","","","audio-keyboard-response","24","193727","0.0-13.0-1.0","16","1","2023-10-31 18:48:25","a725c3012b74bf33a1020a98cb69c237","45.71.5.119","Mozilla/5.0 (Windows NT 10.0; Win64; x64) AppleWebKit/537.36 (KHTML, like Gecko) Chrome/118.0.0.0 Safari/537.36","WebKit","Chrome","118.0.0.0","Windows","10.0","null","es-ES,es;q=0.9","true","null","tones/880hz_short.mp3","null","","","tone_number_task","500","38","tones/880hz_short.mp3","650","100","null","null",""
"","","","","","html-keyboard-response","25","193991","0.0-13.0-4.0-0.0","16","1","2023-10-31 18:48:25","a725c3012b74bf33a1020a98cb69c237","45.71.5.119","Mozilla/5.0 (Windows NT 10.0; Win64; x64) AppleWebKit/537.36 (KHTML, like Gecko) Chrome/118.0.0.0 Safari/537.36","WebKit","Chrome","118.0.0.0","Windows","10.0","null","es-ES,es;q=0.9","true","261","tones/880hz_short.mp3","s","","","empty_block","","38","","","","null","null",""
"","","","","","html-keyboard-response","26","195198","0.0-13.0-4.0-1.0","16","1","2023-10-31 18:48:25","a725c3012b74bf33a1020a98cb69c237","45.71.5.119","Mozilla/5.0 (Windows NT 10.0; Win64; x64) AppleWebKit/537.36 (KHTML, like Gecko) Chrome/118.0.0.0 Safari/537.36","WebKit","Chrome","118.0.0.0","Windows","10.0","null","es-ES,es;q=0.9","true","1206","tones/880hz_short.mp3","j","","","empty_block","","38","","","","null","null",""
"","","","","","html-keyboard-response","27","198060","0.0-15.0-0.0","16","1","2023-10-31 18:48:25","a725c3012b74bf33a1020a98cb69c237","45.71.5.119","Mozilla/5.0 (Windows NT 10.0; Win64; x64) AppleWebKit/537.36 (KHTML, like Gecko) Chrome/118.0.0.0 Safari/537.36","WebKit","Chrome","118.0.0.0","Windows","10.0","null","es-ES,es;q=0.9","true","null","<div style=""font-size:100px;"">X</div>","null","","","fixation","","","","","","","",""
"","","","","","audio-keyboard-response","28","198364","0.0-15.0-1.0","16","1","2023-10-31 18:48:25","a725c3012b74bf33a1020a98cb69c237","45.71.5.119","Mozilla/5.0 (Windows NT 10.0; Win64; x64) AppleWebKit/537.36 (KHTML, like Gecko) Chrome/118.0.0.0 Safari/537.36","WebKit","Chrome","118.0.0.0","Windows","10.0","null","es-ES,es;q=0.9","true","null","tones/440hz_short.mp3","null","","","tone_number_task","150","61","tones/440hz_short.mp3","300","100","null","null",""
"","","","","","html-keyboard-response","29","199584","0.0-15.0-4.0-0.0","16","1","2023-10-31 18:48:25","a725c3012b74bf33a1020a98cb69c237","45.71.5.119","Mozilla/5.0 (Windows NT 10.0; Win64; x64) AppleWebKit/537.36 (KHTML, like Gecko) Chrome/118.0.0.0 Safari/537.36","WebKit","Chrome","118.0.0.0","Windows","10.0","null","es-ES,es;q=0.9","true","1219","tones/440hz_short.mp3","a","","","empty_block","","61","","","","null","null",""
"","","","","","html-keyboard-response","30","199943","0.0-15.0-4.0-1.0","16","1","2023-10-31 18:48:25","a725c3012b74bf33a1020a98cb69c237","45.71.5.119","Mozilla/5.0 (Windows NT 10.0; Win64; x64) AppleWebKit/537.36 (KHTML, like Gecko) Chrome/118.0.0.0 Safari/537.36","WebKit","Chrome","118.0.0.0","Windows","10.0","null","es-ES,es;q=0.9","true","357","tones/440hz_short.mp3","k","","","empty_block","","61","","","","null","null",""
"","","","","","html-keyboard-response","31","202804","0.0-17.0-0.0","16","1","2023-10-31 18:48:25","a725c3012b74bf33a1020a98cb69c237","45.71.5.119","Mozilla/5.0 (Windows NT 10.0; Win64; x64) AppleWebKit/537.36 (KHTML, like Gecko) Chrome/118.0.0.0 Safari/537.36","WebKit","Chrome","118.0.0.0","Windows","10.0","null","es-ES,es;q=0.9","true","null","<div style=""font-size:100px;"">X</div>","null","","","fixation","","","","","","","",""
"","","","","","audio-keyboard-response","32","203007","0.0-17.0-1.0","16","1","2023-10-31 18:48:25","a725c3012b74bf33a1020a98cb69c237","45.71.5.119","Mozilla/5.0 (Windows NT 10.0; Win64; x64) AppleWebKit/537.36 (KHTML, like Gecko) Chrome/118.0.0.0 Safari/537.36","WebKit","Chrome","118.0.0.0","Windows","10.0","null","es-ES,es;q=0.9","true","null","tones/880hz_short.mp3","null","","","tone_number_task","50","29","tones/880hz_short.mp3","200","100","null","null",""
"","","","","","html-keyboard-response","33","204424","0.0-17.0-4.0-0.0","16","1","2023-10-31 18:48:25","a725c3012b74bf33a1020a98cb69c237","45.71.5.119","Mozilla/5.0 (Windows NT 10.0; Win64; x64) AppleWebKit/537.36 (KHTML, like Gecko) Chrome/118.0.0.0 Safari/537.36","WebKit","Chrome","118.0.0.0","Windows","10.0","null","es-ES,es;q=0.9","true","1415","tones/880hz_short.mp3","s","","","empty_block","","29","","","","null","null",""
"","","","","","html-keyboard-response","34","205452","0.0-17.0-4.0-1.0","16","1","2023-10-31 18:48:25","a725c3012b74bf33a1020a98cb69c237","45.71.5.119","Mozilla/5.0 (Windows NT 10.0; Win64; x64) AppleWebKit/537.36 (KHTML, like Gecko) Chrome/118.0.0.0 Safari/537.36","WebKit","Chrome","118.0.0.0","Windows","10.0","null","es-ES,es;q=0.9","true","1025","tones/880hz_short.mp3","j","","","empty_block","","29","","","","null","null",""
"","","","","","html-button-response","35","211576","0.0-19.0","16","1","2023-10-31 18:48:25","a725c3012b74bf33a1020a98cb69c237","45.71.5.119","Mozilla/5.0 (Windows NT 10.0; Win64; x64) AppleWebKit/537.36 (KHTML, like Gecko) Chrome/118.0.0.0 Safari/537.36","WebKit","Chrome","118.0.0.0","Windows","10.0","null","es-ES,es;q=0.9","true","6121","
  <h1> Muy bien </h1>
  <p> Ahora, en vez de ser presentados en dígitos, los números vendrán escritos en palabras. </p>
  <p> Por ejemplo, en vez de 44 te aparecerá ""cuarenta y cuatro"". </p>
  ","0","","","","","","","","","","",""
"","","","","","html-keyboard-response","36","214437","0.0-20.0-0.0","16","1","2023-10-31 18:48:25","a725c3012b74bf33a1020a98cb69c237","45.71.5.119","Mozilla/5.0 (Windows NT 10.0; Win64; x64) AppleWebKit/537.36 (KHTML, like Gecko) Chrome/118.0.0.0 Safari/537.36","WebKit","Chrome","118.0.0.0","Windows","10.0","null","es-ES,es;q=0.9","true","null","<div style=""font-size:100px;"">X</div>","null","","","fixation","","","","","","","",""
"","","","","","audio-keyboard-response","37","215292","0.0-20.0-1.0","16","1","2023-10-31 18:48:25","a725c3012b74bf33a1020a98cb69c237","45.71.5.119","Mozilla/5.0 (Windows NT 10.0; Win64; x64) AppleWebKit/537.36 (KHTML, like Gecko) Chrome/118.0.0.0 Safari/537.36","WebKit","Chrome","118.0.0.0","Windows","10.0","null","es-ES,es;q=0.9","true","850","tones/880hz_short.mp3","s","","","tone_number_task","1000","cincuenta y ocho","tones/880hz_short.mp3","1150","60","null","null",""
"","","","","","html-keyboard-response","38","215446","0.0-20.0-2.0-0.0","16","1","2023-10-31 18:48:25","a725c3012b74bf33a1020a98cb69c237","45.71.5.119","Mozilla/5.0 (Windows NT 10.0; Win64; x64) AppleWebKit/537.36 (KHTML, like Gecko) Chrome/118.0.0.0 Safari/537.36","WebKit","Chrome","118.0.0.0","Windows","10.0","null","es-ES,es;q=0.9","true","null","","null","","","delay_block","","","","","","null","null",""
"","","","","","html-keyboard-response","39","215601","0.0-20.0-2.0-1.0","16","1","2023-10-31 18:48:25","a725c3012b74bf33a1020a98cb69c237","45.71.5.119","Mozilla/5.0 (Windows NT 10.0; Win64; x64) AppleWebKit/537.36 (KHTML, like Gecko) Chrome/118.0.0.0 Safari/537.36","WebKit","Chrome","118.0.0.0","Windows","10.0","null","es-ES,es;q=0.9","true","null","<p id=""stimulus"" style=""font-size:60px;"">cincuenta y ocho</p>","null","","","tone_number_task_remaining_before_delay","","cincuenta y ocho","","300","60","null","null",""
"","","","","","html-keyboard-response","40","216763","0.0-20.0-5.0-0.0","16","1","2023-10-31 18:48:25","a725c3012b74bf33a1020a98cb69c237","45.71.5.119","Mozilla/5.0 (Windows NT 10.0; Win64; x64) AppleWebKit/537.36 (KHTML, like Gecko) Chrome/118.0.0.0 Safari/537.36","WebKit","Chrome","118.0.0.0","Windows","10.0","null","es-ES,es;q=0.9","true","1160","<p id=""stimulus"" style=""font-size:60px;"">cincuenta y ocho</p>","k","","","empty_block","","cincuenta y ocho","","","","null","null",""
"","","","","","html-button-response","41","224533","0.0-22.0","16","1","2023-10-31 18:48:25","a725c3012b74bf33a1020a98cb69c237","45.71.5.119","Mozilla/5.0 (Windows NT 10.0; Win64; x64) AppleWebKit/537.36 (KHTML, like Gecko) Chrome/118.0.0.0 Safari/537.36","WebKit","Chrome","118.0.0.0","Windows","10.0","null","es-ES,es;q=0.9","true","7767","
  <h1> Fin del Entrenamiento </h1>
  <p> ¡Felicitaciones, terminaste el entrenamiento! Ahora vamos a comenzar con el experimento. </p>
  <p> Es importante tener en cuenta que consta de cuatro bloques.</p>
  <p> Podés aprovechar los momentos entre bloques para tomar un breve descanso o tomar agua entre cada uno</p>
  <p> Recordá que tenés que responder lo más rápido que puedas, pero sin equivocarte. </p>
  ","0","","","","","","","","","","",""
"","","","","","external-html","42","234468","0.0-23.0","16","1","2023-10-31 18:48:25","a725c3012b74bf33a1020a98cb69c237","45.71.5.119","Mozilla/5.0 (Windows NT 10.0; Win64; x64) AppleWebKit/537.36 (KHTML, like Gecko) Chrome/118.0.0.0 Safari/537.36","WebKit","Chrome","118.0.0.0","Windows","10.0","null","es-ES,es;q=0.9","true","9590","","","","instructions/instructions_digits_first.html","","","","","","","","",""
"","","","","","call-function","43","234474","0.0-24.0","16","1","2023-10-31 18:48:25","a725c3012b74bf33a1020a98cb69c237","45.71.5.119","Mozilla/5.0 (Windows NT 10.0; Win64; x64) AppleWebKit/537.36 (KHTML, like Gecko) Chrome/118.0.0.0 Safari/537.36","WebKit","Chrome","118.0.0.0","Windows","10.0","null","es-ES,es;q=0.9","true","","","","","","","","","","","","","",""
"","","","","","html-keyboard-response","44","237335","0.0-25.0","16","1","2023-10-31 18:48:25","a725c3012b74bf33a1020a98cb69c237","45.71.5.119","Mozilla/5.0 (Windows NT 10.0; Win64; x64) AppleWebKit/537.36 (KHTML, like Gecko) Chrome/118.0.0.0 Safari/537.36","WebKit","Chrome","118.0.0.0","Windows","10.0","null","es-ES,es;q=0.9","true","null","<div style=""font-size:100px;"">X</div>","null","","","fixation","","","","","","","",""
"","","","","","audio-keyboard-response","45","238050","0.0-26.0","16","1","2023-10-31 18:48:25","a725c3012b74bf33a1020a98cb69c237","45.71.5.119","Mozilla/5.0 (Windows NT 10.0; Win64; x64) AppleWebKit/537.36 (KHTML, like Gecko) Chrome/118.0.0.0 Safari/537.36","WebKit","Chrome","118.0.0.0","Windows","10.0","null","es-ES,es;q=0.9","true","711","tones/440hz_short.mp3","a","","","tone_number_task","992.5","60","tones/440hz_short.mp3","1142.5","100","0","0",""
"","","","","","html-keyboard-response","46","238344","0.0-27.0-0.0","16","1","2023-10-31 18:48:25","a725c3012b74bf33a1020a98cb69c237","45.71.5.119","Mozilla/5.0 (Windows NT 10.0; Win64; x64) AppleWebKit/537.36 (KHTML, like Gecko) Chrome/118.0.0.0 Safari/537.36","WebKit","Chrome","118.0.0.0","Windows","10.0","null","es-ES,es;q=0.9","true","null","","null","","","delay_block","","","","","","0","0",""
"","","","","","html-keyboard-response","47","238498","0.0-27.0-1.0","16","1","2023-10-31 18:48:25","a725c3012b74bf33a1020a98cb69c237","45.71.5.119","Mozilla/5.0 (Windows NT 10.0; Win64; x64) AppleWebKit/537.36 (KHTML, like Gecko) Chrome/118.0.0.0 Safari/537.36","WebKit","Chrome","118.0.0.0","Windows","10.0","null","es-ES,es;q=0.9","true","null","<p id=""stimulus"" style=""font-size:100px;"">60</p>","null","","","tone_number_task_remaining_before_delay","","60","","431.5","100","0","0",""
"","","","","","html-keyboard-response","48","238997","0.0-30.0-0.0","16","1","2023-10-31 18:48:25","a725c3012b74bf33a1020a98cb69c237","45.71.5.119","Mozilla/5.0 (Windows NT 10.0; Win64; x64) AppleWebKit/537.36 (KHTML, like Gecko) Chrome/118.0.0.0 Safari/537.36","WebKit","Chrome","118.0.0.0","Windows","10.0","null","es-ES,es;q=0.9","true","496","<p id=""stimulus"" style=""font-size:100px;"">60</p>","k","","","empty_block","","60","","","","0","0",""
"","","","","","html-keyboard-response","49","241870","0.0-31.0","16","1","2023-10-31 18:48:25","a725c3012b74bf33a1020a98cb69c237","45.71.5.119","Mozilla/5.0 (Windows NT 10.0; Win64; x64) AppleWebKit/537.36 (KHTML, like Gecko) Chrome/118.0.0.0 Safari/537.36","WebKit","Chrome","118.0.0.0","Windows","10.0","null","es-ES,es;q=0.9","true","null","<div style=""font-size:100px;"">X</div>","null","","","fixation","","","","","","","",""
"","","","","","audio-keyboard-response","50","242704","0.0-32.0","16","1","2023-10-31 18:48:25","a725c3012b74bf33a1020a98cb69c237","45.71.5.119","Mozilla/5.0 (Windows NT 10.0; Win64; x64) AppleWebKit/537.36 (KHTML, like Gecko) Chrome/118.0.0.0 Safari/537.36","WebKit","Chrome","118.0.0.0","Windows","10.0","null","es-ES,es;q=0.9","true","830","tones/440hz_short.mp3","a","","","tone_number_task","1025","63","tones/440hz_short.mp3","1175","100","0","1",""
"","","","","","html-keyboard-response","51","242903","0.0-33.0-0.0","16","1","2023-10-31 18:48:25","a725c3012b74bf33a1020a98cb69c237","45.71.5.119","Mozilla/5.0 (Windows NT 10.0; Win64; x64) AppleWebKit/537.36 (KHTML, like Gecko) Chrome/118.0.0.0 Safari/537.36","WebKit","Chrome","118.0.0.0","Windows","10.0","null","es-ES,es;q=0.9","true","null","","null","","","delay_block","","","","","","0","1",""
"","","","","","html-keyboard-response","52","243057","0.0-33.0-1.0","16","1","2023-10-31 18:48:25","a725c3012b74bf33a1020a98cb69c237","45.71.5.119","Mozilla/5.0 (Windows NT 10.0; Win64; x64) AppleWebKit/537.36 (KHTML, like Gecko) Chrome/118.0.0.0 Safari/537.36","WebKit","Chrome","118.0.0.0","Windows","10.0","null","es-ES,es;q=0.9","true","null","<p id=""stimulus"" style=""font-size:100px;"">63</p>","null","","","tone_number_task_remaining_before_delay","","63","","345","100","0","1",""
"","","","","","html-keyboard-response","53","243487","0.0-36.0-0.0","16","1","2023-10-31 18:48:25","a725c3012b74bf33a1020a98cb69c237","45.71.5.119","Mozilla/5.0 (Windows NT 10.0; Win64; x64) AppleWebKit/537.36 (KHTML, like Gecko) Chrome/118.0.0.0 Safari/537.36","WebKit","Chrome","118.0.0.0","Windows","10.0","null","es-ES,es;q=0.9","true","428","<p id=""stimulus"" style=""font-size:100px;"">63</p>","k","","","empty_block","","63","","","","0","1",""
"","","","","","html-keyboard-response","54","246349","0.0-37.0","16","1","2023-10-31 18:48:25","a725c3012b74bf33a1020a98cb69c237","45.71.5.119","Mozilla/5.0 (Windows NT 10.0; Win64; x64) AppleWebKit/537.36 (KHTML, like Gecko) Chrome/118.0.0.0 Safari/537.36","WebKit","Chrome","118.0.0.0","Windows","10.0","null","es-ES,es;q=0.9","true","null","<div style=""font-size:100px;"">X</div>","null","","","fixation","","","","","","","",""
"","","","","","audio-keyboard-response","55","247035","0.0-38.0","16","1","2023-10-31 18:48:25","a725c3012b74bf33a1020a98cb69c237","45.71.5.119","Mozilla/5.0 (Windows NT 10.0; Win64; x64) AppleWebKit/537.36 (KHTML, like Gecko) Chrome/118.0.0.0 Safari/537.36","WebKit","Chrome","118.0.0.0","Windows","10.0","null","es-ES,es;q=0.9","true","679","tones/440hz_short.mp3","a","","","tone_number_task","1025","22","tones/440hz_short.mp3","1175","100","0","2",""
"","","","","","html-keyboard-response","56","247385","0.0-39.0-0.0","16","1","2023-10-31 18:48:25","a725c3012b74bf33a1020a98cb69c237","45.71.5.119","Mozilla/5.0 (Windows NT 10.0; Win64; x64) AppleWebKit/537.36 (KHTML, like Gecko) Chrome/118.0.0.0 Safari/537.36","WebKit","Chrome","118.0.0.0","Windows","10.0","null","es-ES,es;q=0.9","true","null","","null","","","delay_block","","","","","","0","2",""
"","","","","","html-keyboard-response","57","247539","0.0-39.0-1.0","16","1","2023-10-31 18:48:25","a725c3012b74bf33a1020a98cb69c237","45.71.5.119","Mozilla/5.0 (Windows NT 10.0; Win64; x64) AppleWebKit/537.36 (KHTML, like Gecko) Chrome/118.0.0.0 Safari/537.36","WebKit","Chrome","118.0.0.0","Windows","10.0","null","es-ES,es;q=0.9","true","null","<p id=""stimulus"" style=""font-size:100px;"">22</p>","null","","","tone_number_task_remaining_before_delay","","22","","496","100","0","2",""
"","","","","","html-keyboard-response","58","247963","0.0-42.0-0.0","16","1","2023-10-31 18:48:25","a725c3012b74bf33a1020a98cb69c237","45.71.5.119","Mozilla/5.0 (Windows NT 10.0; Win64; x64) AppleWebKit/537.36 (KHTML, like Gecko) Chrome/118.0.0.0 Safari/537.36","WebKit","Chrome","118.0.0.0","Windows","10.0","null","es-ES,es;q=0.9","true","421","<p id=""stimulus"" style=""font-size:100px;"">22</p>","j","","","empty_block","","22","","","","0","2",""
"","","","","","html-keyboard-response","59","250825","0.0-43.0","16","1","2023-10-31 18:48:25","a725c3012b74bf33a1020a98cb69c237","45.71.5.119","Mozilla/5.0 (Windows NT 10.0; Win64; x64) AppleWebKit/537.36 (KHTML, like Gecko) Chrome/118.0.0.0 Safari/537.36","WebKit","Chrome","118.0.0.0","Windows","10.0","null","es-ES,es;q=0.9","true","null","<div style=""font-size:100px;"">X</div>","null","","","fixation","","","","","","","",""
"","","","","","audio-keyboard-response","60","251581","0.0-44.0","16","1","2023-10-31 18:48:25","a725c3012b74bf33a1020a98cb69c237","45.71.5.119","Mozilla/5.0 (Windows NT 10.0; Win64; x64) AppleWebKit/537.36 (KHTML, like Gecko) Chrome/118.0.0.0 Safari/537.36","WebKit","Chrome","118.0.0.0","Windows","10.0","null","es-ES,es;q=0.9","true","760","tones/880hz_short.mp3","s","","","tone_number_task","992.5","67","tones/880hz_short.mp3","1142.5","100","0","3",""
"","","","","","html-keyboard-response","61","251817","0.0-45.0-0.0","16","1","2023-10-31 18:48:25","a725c3012b74bf33a1020a98cb69c237","45.71.5.119","Mozilla/5.0 (Windows NT 10.0; Win64; x64) AppleWebKit/537.36 (KHTML, like Gecko) Chrome/118.0.0.0 Safari/537.36","WebKit","Chrome","118.0.0.0","Windows","10.0","null","es-ES,es;q=0.9","true","null","","null","","","delay_block","","","","","","0","3",""
"","","","","","html-keyboard-response","62","251971","0.0-45.0-1.0","16","1","2023-10-31 18:48:25","a725c3012b74bf33a1020a98cb69c237","45.71.5.119","Mozilla/5.0 (Windows NT 10.0; Win64; x64) AppleWebKit/537.36 (KHTML, like Gecko) Chrome/118.0.0.0 Safari/537.36","WebKit","Chrome","118.0.0.0","Windows","10.0","null","es-ES,es;q=0.9","true","null","<p id=""stimulus"" style=""font-size:100px;"">67</p>","null","","","tone_number_task_remaining_before_delay","","67","","382.5","100","0","3",""
"","","","","","html-keyboard-response","63","252344","0.0-48.0-0.0","16","1","2023-10-31 18:48:25","a725c3012b74bf33a1020a98cb69c237","45.71.5.119","Mozilla/5.0 (Windows NT 10.0; Win64; x64) AppleWebKit/537.36 (KHTML, like Gecko) Chrome/118.0.0.0 Safari/537.36","WebKit","Chrome","118.0.0.0","Windows","10.0","null","es-ES,es;q=0.9","true","370","<p id=""stimulus"" style=""font-size:100px;"">67</p>","k","","","empty_block","","67","","","","0","3",""
"","","","","","html-keyboard-response","64","255205","0.0-49.0","16","1","2023-10-31 18:48:25","a725c3012b74bf33a1020a98cb69c237","45.71.5.119","Mozilla/5.0 (Windows NT 10.0; Win64; x64) AppleWebKit/537.36 (KHTML, like Gecko) Chrome/118.0.0.0 Safari/537.36","WebKit","Chrome","118.0.0.0","Windows","10.0","null","es-ES,es;q=0.9","true","null","<div style=""font-size:100px;"">X</div>","null","","","fixation","","","","","","","",""
"","","","","","audio-keyboard-response","65","255891","0.0-50.0","16","1","2023-10-31 18:48:25","a725c3012b74bf33a1020a98cb69c237","45.71.5.119","Mozilla/5.0 (Windows NT 10.0; Win64; x64) AppleWebKit/537.36 (KHTML, like Gecko) Chrome/118.0.0.0 Safari/537.36","WebKit","Chrome","118.0.0.0","Windows","10.0","null","es-ES,es;q=0.9","true","691","tones/880hz_short.mp3","s","","","tone_number_task","1025","63","tones/880hz_short.mp3","1175","100","0","4",""
"","","","","","html-keyboard-response","66","256231","0.0-51.0-0.0","16","1","2023-10-31 18:48:25","a725c3012b74bf33a1020a98cb69c237","45.71.5.119","Mozilla/5.0 (Windows NT 10.0; Win64; x64) AppleWebKit/537.36 (KHTML, like Gecko) Chrome/118.0.0.0 Safari/537.36","WebKit","Chrome","118.0.0.0","Windows","10.0","null","es-ES,es;q=0.9","true","null","","null","","","delay_block","","","","","","0","4",""
"","","","","","html-keyboard-response","67","256386","0.0-51.0-1.0","16","1","2023-10-31 18:48:25","a725c3012b74bf33a1020a98cb69c237","45.71.5.119","Mozilla/5.0 (Windows NT 10.0; Win64; x64) AppleWebKit/537.36 (KHTML, like Gecko) Chrome/118.0.0.0 Safari/537.36","WebKit","Chrome","118.0.0.0","Windows","10.0","null","es-ES,es;q=0.9","true","null","<p id=""stimulus"" style=""font-size:100px;"">63</p>","null","","","tone_number_task_remaining_before_delay","","63","","484","100","0","4",""
"","","","","","html-keyboard-response","68","256700","0.0-54.0-0.0","16","1","2023-10-31 18:48:25","a725c3012b74bf33a1020a98cb69c237","45.71.5.119","Mozilla/5.0 (Windows NT 10.0; Win64; x64) AppleWebKit/537.36 (KHTML, like Gecko) Chrome/118.0.0.0 Safari/537.36","WebKit","Chrome","118.0.0.0","Windows","10.0","null","es-ES,es;q=0.9","true","310","<p id=""stimulus"" style=""font-size:100px;"">63</p>","k","","","empty_block","","63","","","","0","4",""
"","","","","","html-keyboard-response","69","259562","0.0-55.0","16","1","2023-10-31 18:48:25","a725c3012b74bf33a1020a98cb69c237","45.71.5.119","Mozilla/5.0 (Windows NT 10.0; Win64; x64) AppleWebKit/537.36 (KHTML, like Gecko) Chrome/118.0.0.0 Safari/537.36","WebKit","Chrome","118.0.0.0","Windows","10.0","null","es-ES,es;q=0.9","true","null","<div style=""font-size:100px;"">X</div>","null","","","fixation","","","","","","","",""
"","","","","","audio-keyboard-response","70","259716","0.0-56.0","16","1","2023-10-31 18:48:25","a725c3012b74bf33a1020a98cb69c237","45.71.5.119","Mozilla/5.0 (Windows NT 10.0; Win64; x64) AppleWebKit/537.36 (KHTML, like Gecko) Chrome/118.0.0.0 Safari/537.36","WebKit","Chrome","118.0.0.0","Windows","10.0","null","es-ES,es;q=0.9","true","null","tones/880hz_short.mp3","null","","","tone_number_task","0","58","tones/880hz_short.mp3","150","100","0","5",""
"","","","","","html-keyboard-response","71","260697","0.0-59.0-0.0","16","1","2023-10-31 18:48:25","a725c3012b74bf33a1020a98cb69c237","45.71.5.119","Mozilla/5.0 (Windows NT 10.0; Win64; x64) AppleWebKit/537.36 (KHTML, like Gecko) Chrome/118.0.0.0 Safari/537.36","WebKit","Chrome","118.0.0.0","Windows","10.0","null","es-ES,es;q=0.9","true","977","tones/880hz_short.mp3","s","","","empty_block","","58","","","","0","5",""
"","","","","","html-keyboard-response","72","261061","0.0-59.0-1.0","16","1","2023-10-31 18:48:25","a725c3012b74bf33a1020a98cb69c237","45.71.5.119","Mozilla/5.0 (Windows NT 10.0; Win64; x64) AppleWebKit/537.36 (KHTML, like Gecko) Chrome/118.0.0.0 Safari/537.36","WebKit","Chrome","118.0.0.0","Windows","10.0","null","es-ES,es;q=0.9","true","360","tones/880hz_short.mp3","k","","","empty_block","","58","","","","0","5",""
"","","","","","html-keyboard-response","73","263924","0.0-61.0","16","1","2023-10-31 18:48:25","a725c3012b74bf33a1020a98cb69c237","45.71.5.119","Mozilla/5.0 (Windows NT 10.0; Win64; x64) AppleWebKit/537.36 (KHTML, like Gecko) Chrome/118.0.0.0 Safari/537.36","WebKit","Chrome","118.0.0.0","Windows","10.0","null","es-ES,es;q=0.9","true","null","<div style=""font-size:100px;"">X</div>","null","","","fixation","","","","","","","",""
"","","","","","audio-keyboard-response","74","264180","0.0-62.0","16","1","2023-10-31 18:48:25","a725c3012b74bf33a1020a98cb69c237","45.71.5.119","Mozilla/5.0 (Windows NT 10.0; Win64; x64) AppleWebKit/537.36 (KHTML, like Gecko) Chrome/118.0.0.0 Safari/537.36","WebKit","Chrome","118.0.0.0","Windows","10.0","null","es-ES,es;q=0.9","true","null","tones/440hz_short.mp3","null","","","tone_number_task","102.5","61","tones/440hz_short.mp3","252.5","100","0","6",""
"","","","","","html-keyboard-response","75","264908","0.0-65.0-0.0","16","1","2023-10-31 18:48:25","a725c3012b74bf33a1020a98cb69c237","45.71.5.119","Mozilla/5.0 (Windows NT 10.0; Win64; x64) AppleWebKit/537.36 (KHTML, like Gecko) Chrome/118.0.0.0 Safari/537.36","WebKit","Chrome","118.0.0.0","Windows","10.0","null","es-ES,es;q=0.9","true","724","tones/440hz_short.mp3","a","","","empty_block","","61","","","","0","6",""
"","","","","","html-keyboard-response","76","265427","0.0-65.0-1.0","16","1","2023-10-31 18:48:25","a725c3012b74bf33a1020a98cb69c237","45.71.5.119","Mozilla/5.0 (Windows NT 10.0; Win64; x64) AppleWebKit/537.36 (KHTML, like Gecko) Chrome/118.0.0.0 Safari/537.36","WebKit","Chrome","118.0.0.0","Windows","10.0","null","es-ES,es;q=0.9","true","515","tones/440hz_short.mp3","k","","","empty_block","","61","","","","0","6",""
"","","","","","html-keyboard-response","77","268290","0.0-67.0","16","1","2023-10-31 18:48:25","a725c3012b74bf33a1020a98cb69c237","45.71.5.119","Mozilla/5.0 (Windows NT 10.0; Win64; x64) AppleWebKit/537.36 (KHTML, like Gecko) Chrome/118.0.0.0 Safari/537.36","WebKit","Chrome","118.0.0.0","Windows","10.0","null","es-ES,es;q=0.9","true","null","<div style=""font-size:100px;"">X</div>","null","","","fixation","","","","","","","",""
"","","","","","audio-keyboard-response","78","268546","0.0-68.0","16","1","2023-10-31 18:48:25","a725c3012b74bf33a1020a98cb69c237","45.71.5.119","Mozilla/5.0 (Windows NT 10.0; Win64; x64) AppleWebKit/537.36 (KHTML, like Gecko) Chrome/118.0.0.0 Safari/537.36","WebKit","Chrome","118.0.0.0","Windows","10.0","null","es-ES,es;q=0.9","true","null","tones/880hz_short.mp3","null","","","tone_number_task","102.5","25","tones/880hz_short.mp3","252.5","100","0","7",""
"","","","","","html-keyboard-response","79","269299","0.0-71.0-0.0","16","1","2023-10-31 18:48:25","a725c3012b74bf33a1020a98cb69c237","45.71.5.119","Mozilla/5.0 (Windows NT 10.0; Win64; x64) AppleWebKit/537.36 (KHTML, like Gecko) Chrome/118.0.0.0 Safari/537.36","WebKit","Chrome","118.0.0.0","Windows","10.0","null","es-ES,es;q=0.9","true","748","tones/880hz_short.mp3","s","","","empty_block","","25","","","","0","7",""
"","","","","","html-keyboard-response","80","269613","0.0-71.0-1.0","16","1","2023-10-31 18:48:25","a725c3012b74bf33a1020a98cb69c237","45.71.5.119","Mozilla/5.0 (Windows NT 10.0; Win64; x64) AppleWebKit/537.36 (KHTML, like Gecko) Chrome/118.0.0.0 Safari/537.36","WebKit","Chrome","118.0.0.0","Windows","10.0","null","es-ES,es;q=0.9","true","310","tones/880hz_short.mp3","j","","","empty_block","","25","","","","0","7",""
"","","","","","html-keyboard-response","81","272475","0.0-73.0","16","1","2023-10-31 18:48:25","a725c3012b74bf33a1020a98cb69c237","45.71.5.119","Mozilla/5.0 (Windows NT 10.0; Win64; x64) AppleWebKit/537.36 (KHTML, like Gecko) Chrome/118.0.0.0 Safari/537.36","WebKit","Chrome","118.0.0.0","Windows","10.0","null","es-ES,es;q=0.9","true","null","<div style=""font-size:100px;"">X</div>","null","","","fixation","","","","","","","",""
"","","","","","audio-keyboard-response","82","273400","0.0-74.0","16","1","2023-10-31 18:48:25","a725c3012b74bf33a1020a98cb69c237","45.71.5.119","Mozilla/5.0 (Windows NT 10.0; Win64; x64) AppleWebKit/537.36 (KHTML, like Gecko) Chrome/118.0.0.0 Safari/537.36","WebKit","Chrome","118.0.0.0","Windows","10.0","null","es-ES,es;q=0.9","true","920","tones/880hz_short.mp3","s","","","tone_number_task","992.5","22","tones/880hz_short.mp3","1142.5","100","0","8",""
"","","","","","html-keyboard-response","83","273476","0.0-75.0-0.0","16","1","2023-10-31 18:48:25","a725c3012b74bf33a1020a98cb69c237","45.71.5.119","Mozilla/5.0 (Windows NT 10.0; Win64; x64) AppleWebKit/537.36 (KHTML, like Gecko) Chrome/118.0.0.0 Safari/537.36","WebKit","Chrome","118.0.0.0","Windows","10.0","null","es-ES,es;q=0.9","true","null","","null","","","delay_block","","","","","","0","8",""
"","","","","","html-keyboard-response","84","273631","0.0-75.0-1.0","16","1","2023-10-31 18:48:25","a725c3012b74bf33a1020a98cb69c237","45.71.5.119","Mozilla/5.0 (Windows NT 10.0; Win64; x64) AppleWebKit/537.36 (KHTML, like Gecko) Chrome/118.0.0.0 Safari/537.36","WebKit","Chrome","118.0.0.0","Windows","10.0","null","es-ES,es;q=0.9","true","null","<p id=""stimulus"" style=""font-size:100px;"">22</p>","null","","","tone_number_task_remaining_before_delay","","22","","222.5","100","0","8",""
"","","","","","html-keyboard-response","85","273944","0.0-78.0-0.0","16","1","2023-10-31 18:48:25","a725c3012b74bf33a1020a98cb69c237","45.71.5.119","Mozilla/5.0 (Windows NT 10.0; Win64; x64) AppleWebKit/537.36 (KHTML, like Gecko) Chrome/118.0.0.0 Safari/537.36","WebKit","Chrome","118.0.0.0","Windows","10.0","null","es-ES,es;q=0.9","true","310","<p id=""stimulus"" style=""font-size:100px;"">22</p>","j","","","empty_block","","22","","","","0","8",""
"","","","","","html-keyboard-response","86","276806","0.0-79.0","16","1","2023-10-31 18:48:25","a725c3012b74bf33a1020a98cb69c237","45.71.5.119","Mozilla/5.0 (Windows NT 10.0; Win64; x64) AppleWebKit/537.36 (KHTML, like Gecko) Chrome/118.0.0.0 Safari/537.36","WebKit","Chrome","118.0.0.0","Windows","10.0","null","es-ES,es;q=0.9","true","null","<div style=""font-size:100px;"">X</div>","null","","","fixation","","","","","","","",""
"","","","","","audio-keyboard-response","87","277547","0.0-80.0","16","1","2023-10-31 18:48:25","a725c3012b74bf33a1020a98cb69c237","45.71.5.119","Mozilla/5.0 (Windows NT 10.0; Win64; x64) AppleWebKit/537.36 (KHTML, like Gecko) Chrome/118.0.0.0 Safari/537.36","WebKit","Chrome","118.0.0.0","Windows","10.0","null","es-ES,es;q=0.9","true","731","tones/440hz_short.mp3","a","","","tone_number_task","1025","35","tones/440hz_short.mp3","1175","100","0","9",""
"","","","","","html-keyboard-response","88","277846","0.0-81.0-0.0","16","1","2023-10-31 18:48:25","a725c3012b74bf33a1020a98cb69c237","45.71.5.119","Mozilla/5.0 (Windows NT 10.0; Win64; x64) AppleWebKit/537.36 (KHTML, like Gecko) Chrome/118.0.0.0 Safari/537.36","WebKit","Chrome","118.0.0.0","Windows","10.0","null","es-ES,es;q=0.9","true","null","","null","","","delay_block","","","","","","0","9",""
"","","","","","html-keyboard-response","89","278002","0.0-81.0-1.0","16","1","2023-10-31 18:48:25","a725c3012b74bf33a1020a98cb69c237","45.71.5.119","Mozilla/5.0 (Windows NT 10.0; Win64; x64) AppleWebKit/537.36 (KHTML, like Gecko) Chrome/118.0.0.0 Safari/537.36","WebKit","Chrome","118.0.0.0","Windows","10.0","null","es-ES,es;q=0.9","true","null","<p id=""stimulus"" style=""font-size:100px;"">35</p>","null","","","tone_number_task_remaining_before_delay","","35","","444","100","0","9",""
"","","","","","html-keyboard-response","90","278530","0.0-84.0-0.0","16","1","2023-10-31 18:48:25","a725c3012b74bf33a1020a98cb69c237","45.71.5.119","Mozilla/5.0 (Windows NT 10.0; Win64; x64) AppleWebKit/537.36 (KHTML, like Gecko) Chrome/118.0.0.0 Safari/537.36","WebKit","Chrome","118.0.0.0","Windows","10.0","null","es-ES,es;q=0.9","true","524","<p id=""stimulus"" style=""font-size:100px;"">35</p>","j","","","empty_block","","35","","","","0","9",""
"","","","","","html-keyboard-response","91","281392","0.0-85.0","16","1","2023-10-31 18:48:25","a725c3012b74bf33a1020a98cb69c237","45.71.5.119","Mozilla/5.0 (Windows NT 10.0; Win64; x64) AppleWebKit/537.36 (KHTML, like Gecko) Chrome/118.0.0.0 Safari/537.36","WebKit","Chrome","118.0.0.0","Windows","10.0","null","es-ES,es;q=0.9","true","null","<div style=""font-size:100px;"">X</div>","null","","","fixation","","","","","","","",""
"","","","","","audio-keyboard-response","92","281648","0.0-86.0","16","1","2023-10-31 18:48:25","a725c3012b74bf33a1020a98cb69c237","45.71.5.119","Mozilla/5.0 (Windows NT 10.0; Win64; x64) AppleWebKit/537.36 (KHTML, like Gecko) Chrome/118.0.0.0 Safari/537.36","WebKit","Chrome","118.0.0.0","Windows","10.0","null","es-ES,es;q=0.9","true","null","tones/440hz_short.mp3","null","","","tone_number_task","102.5","44","tones/440hz_short.mp3","252.5","100","0","10",""
"","","","","","html-keyboard-response","93","282591","0.0-89.0-0.0","16","1","2023-10-31 18:48:25","a725c3012b74bf33a1020a98cb69c237","45.71.5.119","Mozilla/5.0 (Windows NT 10.0; Win64; x64) AppleWebKit/537.36 (KHTML, like Gecko) Chrome/118.0.0.0 Safari/537.36","WebKit","Chrome","118.0.0.0","Windows","10.0","null","es-ES,es;q=0.9","true","939","tones/440hz_short.mp3","a","","","empty_block","","44","","","","0","10",""
"","","","","","html-keyboard-response","94","283796","0.0-89.0-1.0","16","1","2023-10-31 18:48:25","a725c3012b74bf33a1020a98cb69c237","45.71.5.119","Mozilla/5.0 (Windows NT 10.0; Win64; x64) AppleWebKit/537.36 (KHTML, like Gecko) Chrome/118.0.0.0 Safari/537.36","WebKit","Chrome","118.0.0.0","Windows","10.0","null","es-ES,es;q=0.9","true","null","tones/440hz_short.mp3","null","","","empty_block","","44","","","","0","10",""
"","","","","","html-keyboard-response","95","286660","0.0-91.0","16","1","2023-10-31 18:48:25","a725c3012b74bf33a1020a98cb69c237","45.71.5.119","Mozilla/5.0 (Windows NT 10.0; Win64; x64) AppleWebKit/537.36 (KHTML, like Gecko) Chrome/118.0.0.0 Safari/537.36","WebKit","Chrome","118.0.0.0","Windows","10.0","null","es-ES,es;q=0.9","true","null","<div style=""font-size:100px;"">X</div>","null","","","fixation","","","","","","","",""
"","","","","","audio-keyboard-response","96","286916","0.0-92.0","16","1","2023-10-31 18:48:25","a725c3012b74bf33a1020a98cb69c237","45.71.5.119","Mozilla/5.0 (Windows NT 10.0; Win64; x64) AppleWebKit/537.36 (KHTML, like Gecko) Chrome/118.0.0.0 Safari/537.36","WebKit","Chrome","118.0.0.0","Windows","10.0","null","es-ES,es;q=0.9","true","null","tones/880hz_short.mp3","null","","","tone_number_task","102.5","44","tones/880hz_short.mp3","252.5","100","0","11",""
"","","","","","html-keyboard-response","97","288010","0.0-95.0-0.0","16","1","2023-10-31 18:48:25","a725c3012b74bf33a1020a98cb69c237","45.71.5.119","Mozilla/5.0 (Windows NT 10.0; Win64; x64) AppleWebKit/537.36 (KHTML, like Gecko) Chrome/118.0.0.0 Safari/537.36","WebKit","Chrome","118.0.0.0","Windows","10.0","null","es-ES,es;q=0.9","true","1087","tones/880hz_short.mp3","s","","","empty_block","","44","","","","0","11",""
"","","","","","html-keyboard-response","98","288349","0.0-95.0-1.0","16","1","2023-10-31 18:48:25","a725c3012b74bf33a1020a98cb69c237","45.71.5.119","Mozilla/5.0 (Windows NT 10.0; Win64; x64) AppleWebKit/537.36 (KHTML, like Gecko) Chrome/118.0.0.0 Safari/537.36","WebKit","Chrome","118.0.0.0","Windows","10.0","null","es-ES,es;q=0.9","true","335","tones/880hz_short.mp3","j","","","empty_block","","44","","","","0","11",""
"","","","","","html-keyboard-response","99","291212","0.0-97.0","16","1","2023-10-31 18:48:25","a725c3012b74bf33a1020a98cb69c237","45.71.5.119","Mozilla/5.0 (Windows NT 10.0; Win64; x64) AppleWebKit/537.36 (KHTML, like Gecko) Chrome/118.0.0.0 Safari/537.36","WebKit","Chrome","118.0.0.0","Windows","10.0","null","es-ES,es;q=0.9","true","null","<div style=""font-size:100px;"">X</div>","null","","","fixation","","","","","","","",""
"","","","","","audio-keyboard-response","100","291469","0.0-98.0","16","1","2023-10-31 18:48:25","a725c3012b74bf33a1020a98cb69c237","45.71.5.119","Mozilla/5.0 (Windows NT 10.0; Win64; x64) AppleWebKit/537.36 (KHTML, like Gecko) Chrome/118.0.0.0 Safari/537.36","WebKit","Chrome","118.0.0.0","Windows","10.0","null","es-ES,es;q=0.9","true","null","tones/880hz_short.mp3","null","","","tone_number_task","102.5","48","tones/880hz_short.mp3","252.5","100","0","12",""
"","","","","","html-keyboard-response","101","292580","0.0-101.0-0.0","16","1","2023-10-31 18:48:25","a725c3012b74bf33a1020a98cb69c237","45.71.5.119","Mozilla/5.0 (Windows NT 10.0; Win64; x64) AppleWebKit/537.36 (KHTML, like Gecko) Chrome/118.0.0.0 Safari/537.36","WebKit","Chrome","118.0.0.0","Windows","10.0","null","es-ES,es;q=0.9","true","1107","tones/880hz_short.mp3","s","","","empty_block","","48","","","","0","12",""
"","","","","","html-keyboard-response","102","293175","0.0-101.0-1.0","16","1","2023-10-31 18:48:25","a725c3012b74bf33a1020a98cb69c237","45.71.5.119","Mozilla/5.0 (Windows NT 10.0; Win64; x64) AppleWebKit/537.36 (KHTML, like Gecko) Chrome/118.0.0.0 Safari/537.36","WebKit","Chrome","118.0.0.0","Windows","10.0","null","es-ES,es;q=0.9","true","591","tones/880hz_short.mp3","j","","","empty_block","","48","","","","0","12",""
"","","","","","html-keyboard-response","103","296037","0.0-103.0","16","1","2023-10-31 18:48:25","a725c3012b74bf33a1020a98cb69c237","45.71.5.119","Mozilla/5.0 (Windows NT 10.0; Win64; x64) AppleWebKit/537.36 (KHTML, like Gecko) Chrome/118.0.0.0 Safari/537.36","WebKit","Chrome","118.0.0.0","Windows","10.0","null","es-ES,es;q=0.9","true","null","<div style=""font-size:100px;"">X</div>","null","","","fixation","","","","","","","",""
"","","","","","audio-keyboard-response","104","297001","0.0-104.0","16","1","2023-10-31 18:48:25","a725c3012b74bf33a1020a98cb69c237","45.71.5.119","Mozilla/5.0 (Windows NT 10.0; Win64; x64) AppleWebKit/537.36 (KHTML, like Gecko) Chrome/118.0.0.0 Safari/537.36","WebKit","Chrome","118.0.0.0","Windows","10.0","null","es-ES,es;q=0.9","true","958","tones/880hz_short.mp3","s","","","tone_number_task","1025","50","tones/880hz_short.mp3","1175","100","0","13",""
"","","","","","html-keyboard-response","105","297073","0.0-105.0-0.0","16","1","2023-10-31 18:48:25","a725c3012b74bf33a1020a98cb69c237","45.71.5.119","Mozilla/5.0 (Windows NT 10.0; Win64; x64) AppleWebKit/537.36 (KHTML, like Gecko) Chrome/118.0.0.0 Safari/537.36","WebKit","Chrome","118.0.0.0","Windows","10.0","null","es-ES,es;q=0.9","true","null","","null","","","delay_block","","","","","","0","13",""
"","","","","","html-keyboard-response","106","297228","0.0-105.0-1.0","16","1","2023-10-31 18:48:25","a725c3012b74bf33a1020a98cb69c237","45.71.5.119","Mozilla/5.0 (Windows NT 10.0; Win64; x64) AppleWebKit/537.36 (KHTML, like Gecko) Chrome/118.0.0.0 Safari/537.36","WebKit","Chrome","118.0.0.0","Windows","10.0","null","es-ES,es;q=0.9","true","null","<p id=""stimulus"" style=""font-size:100px;"">50</p>","null","","","tone_number_task_remaining_before_delay","","50","","217","100","0","13",""
"","","","","","html-keyboard-response","107","298440","0.0-108.0-0.0","16","1","2023-10-31 18:48:25","a725c3012b74bf33a1020a98cb69c237","45.71.5.119","Mozilla/5.0 (Windows NT 10.0; Win64; x64) AppleWebKit/537.36 (KHTML, like Gecko) Chrome/118.0.0.0 Safari/537.36","WebKit","Chrome","118.0.0.0","Windows","10.0","null","es-ES,es;q=0.9","true","null","<p id=""stimulus"" style=""font-size:100px;"">50</p>","null","","","empty_block","","50","","","","0","13",""
"","","","","","html-keyboard-response","108","301304","0.0-109.0","16","1","2023-10-31 18:48:25","a725c3012b74bf33a1020a98cb69c237","45.71.5.119","Mozilla/5.0 (Windows NT 10.0; Win64; x64) AppleWebKit/537.36 (KHTML, like Gecko) Chrome/118.0.0.0 Safari/537.36","WebKit","Chrome","118.0.0.0","Windows","10.0","null","es-ES,es;q=0.9","true","null","<div style=""font-size:100px;"">X</div>","null","","","fixation","","","","","","","",""
"","","","","","audio-keyboard-response","109","301568","0.0-110.0","16","1","2023-10-31 18:48:25","a725c3012b74bf33a1020a98cb69c237","45.71.5.119","Mozilla/5.0 (Windows NT 10.0; Win64; x64) AppleWebKit/537.36 (KHTML, like Gecko) Chrome/118.0.0.0 Safari/537.36","WebKit","Chrome","118.0.0.0","Windows","10.0","null","es-ES,es;q=0.9","true","null","tones/440hz_short.mp3","null","","","tone_number_task","102.5","65","tones/440hz_short.mp3","252.5","100","0","14",""
"","","","","","html-keyboard-response","110","302399","0.0-113.0-0.0","16","1","2023-10-31 18:48:25","a725c3012b74bf33a1020a98cb69c237","45.71.5.119","Mozilla/5.0 (Windows NT 10.0; Win64; x64) AppleWebKit/537.36 (KHTML, like Gecko) Chrome/118.0.0.0 Safari/537.36","WebKit","Chrome","118.0.0.0","Windows","10.0","null","es-ES,es;q=0.9","true","826","tones/440hz_short.mp3","a","","","empty_block","","65","","","","0","14",""
"","","","","","html-keyboard-response","111","302724","0.0-113.0-1.0","16","1","2023-10-31 18:48:25","a725c3012b74bf33a1020a98cb69c237","45.71.5.119","Mozilla/5.0 (Windows NT 10.0; Win64; x64) AppleWebKit/537.36 (KHTML, like Gecko) Chrome/118.0.0.0 Safari/537.36","WebKit","Chrome","118.0.0.0","Windows","10.0","null","es-ES,es;q=0.9","true","320","tones/440hz_short.mp3","k","","","empty_block","","65","","","","0","14",""
"","","","","","html-keyboard-response","112","305586","0.0-115.0","16","1","2023-10-31 18:48:25","a725c3012b74bf33a1020a98cb69c237","45.71.5.119","Mozilla/5.0 (Windows NT 10.0; Win64; x64) AppleWebKit/537.36 (KHTML, like Gecko) Chrome/118.0.0.0 Safari/537.36","WebKit","Chrome","118.0.0.0","Windows","10.0","null","es-ES,es;q=0.9","true","null","<div style=""font-size:100px;"">X</div>","null","","","fixation","","","","","","","",""
"","","","","","audio-keyboard-response","113","306380","0.0-116.0","16","1","2023-10-31 18:48:25","a725c3012b74bf33a1020a98cb69c237","45.71.5.119","Mozilla/5.0 (Windows NT 10.0; Win64; x64) AppleWebKit/537.36 (KHTML, like Gecko) Chrome/118.0.0.0 Safari/537.36","WebKit","Chrome","118.0.0.0","Windows","10.0","null","es-ES,es;q=0.9","true","789","tones/440hz_short.mp3","a","","","tone_number_task","1025","33","tones/440hz_short.mp3","1175","100","0","15",""
"","","","","","html-keyboard-response","114","306621","0.0-117.0-0.0","16","1","2023-10-31 18:48:25","a725c3012b74bf33a1020a98cb69c237","45.71.5.119","Mozilla/5.0 (Windows NT 10.0; Win64; x64) AppleWebKit/537.36 (KHTML, like Gecko) Chrome/118.0.0.0 Safari/537.36","WebKit","Chrome","118.0.0.0","Windows","10.0","null","es-ES,es;q=0.9","true","null","","null","","","delay_block","","","","","","0","15",""
"","","","","","html-keyboard-response","115","306777","0.0-117.0-1.0","16","1","2023-10-31 18:48:25","a725c3012b74bf33a1020a98cb69c237","45.71.5.119","Mozilla/5.0 (Windows NT 10.0; Win64; x64) AppleWebKit/537.36 (KHTML, like Gecko) Chrome/118.0.0.0 Safari/537.36","WebKit","Chrome","118.0.0.0","Windows","10.0","null","es-ES,es;q=0.9","true","null","<p id=""stimulus"" style=""font-size:100px;"">33</p>","null","","","tone_number_task_remaining_before_delay","","33","","386","100","0","15",""
"","","","","","html-keyboard-response","116","307414","0.0-120.0-0.0","16","1","2023-10-31 18:48:25","a725c3012b74bf33a1020a98cb69c237","45.71.5.119","Mozilla/5.0 (Windows NT 10.0; Win64; x64) AppleWebKit/537.36 (KHTML, like Gecko) Chrome/118.0.0.0 Safari/537.36","WebKit","Chrome","118.0.0.0","Windows","10.0","null","es-ES,es;q=0.9","true","631","<p id=""stimulus"" style=""font-size:100px;"">33</p>","j","","","empty_block","","33","","","","0","15",""
"","","","","","html-keyboard-response","117","310276","0.0-121.0","16","1","2023-10-31 18:48:25","a725c3012b74bf33a1020a98cb69c237","45.71.5.119","Mozilla/5.0 (Windows NT 10.0; Win64; x64) AppleWebKit/537.36 (KHTML, like Gecko) Chrome/118.0.0.0 Safari/537.36","WebKit","Chrome","118.0.0.0","Windows","10.0","null","es-ES,es;q=0.9","true","null","<div style=""font-size:100px;"">X</div>","null","","","fixation","","","","","","","",""
"","","","","","audio-keyboard-response","118","310432","0.0-122.0","16","1","2023-10-31 18:48:25","a725c3012b74bf33a1020a98cb69c237","45.71.5.119","Mozilla/5.0 (Windows NT 10.0; Win64; x64) AppleWebKit/537.36 (KHTML, like Gecko) Chrome/118.0.0.0 Safari/537.36","WebKit","Chrome","118.0.0.0","Windows","10.0","null","es-ES,es;q=0.9","true","null","tones/440hz_short.mp3","null","","","tone_number_task","0","68","tones/440hz_short.mp3","150","100","0","16",""
"","","","","","html-keyboard-response","119","311336","0.0-125.0-0.0","16","1","2023-10-31 18:48:25","a725c3012b74bf33a1020a98cb69c237","45.71.5.119","Mozilla/5.0 (Windows NT 10.0; Win64; x64) AppleWebKit/537.36 (KHTML, like Gecko) Chrome/118.0.0.0 Safari/537.36","WebKit","Chrome","118.0.0.0","Windows","10.0","null","es-ES,es;q=0.9","true","899","tones/440hz_short.mp3","a","","","empty_block","","68","","","","0","16",""
"","","","","","html-keyboard-response","120","311619","0.0-125.0-1.0","16","1","2023-10-31 18:48:25","a725c3012b74bf33a1020a98cb69c237","45.71.5.119","Mozilla/5.0 (Windows NT 10.0; Win64; x64) AppleWebKit/537.36 (KHTML, like Gecko) Chrome/118.0.0.0 Safari/537.36","WebKit","Chrome","118.0.0.0","Windows","10.0","null","es-ES,es;q=0.9","true","281","tones/440hz_short.mp3","k","","","empty_block","","68","","","","0","16",""
"","","","","","html-keyboard-response","121","314483","0.0-127.0","16","1","2023-10-31 18:48:25","a725c3012b74bf33a1020a98cb69c237","45.71.5.119","Mozilla/5.0 (Windows NT 10.0; Win64; x64) AppleWebKit/537.36 (KHTML, like Gecko) Chrome/118.0.0.0 Safari/537.36","WebKit","Chrome","118.0.0.0","Windows","10.0","null","es-ES,es;q=0.9","true","null","<div style=""font-size:100px;"">X</div>","null","","","fixation","","","","","","","",""
"","","","","","audio-keyboard-response","122","315526","0.0-128.0","16","1","2023-10-31 18:48:25","a725c3012b74bf33a1020a98cb69c237","45.71.5.119","Mozilla/5.0 (Windows NT 10.0; Win64; x64) AppleWebKit/537.36 (KHTML, like Gecko) Chrome/118.0.0.0 Safari/537.36","WebKit","Chrome","118.0.0.0","Windows","10.0","null","es-ES,es;q=0.9","true","1039","tones/440hz_short.mp3","a","","","tone_number_task","992.5","69","tones/440hz_short.mp3","1142.5","100","0","17",""
"","","","","","html-keyboard-response","123","315635","0.0-130.0-0.0","16","1","2023-10-31 18:48:25","a725c3012b74bf33a1020a98cb69c237","45.71.5.119","Mozilla/5.0 (Windows NT 10.0; Win64; x64) AppleWebKit/537.36 (KHTML, like Gecko) Chrome/118.0.0.0 Safari/537.36","WebKit","Chrome","118.0.0.0","Windows","10.0","null","es-ES,es;q=0.9","true","null","<p id=""stimulus"" style=""font-size:100px;"">69</p>","null","","","tone_number_task_remaining_after_delay","","69","","","100","0","17",""
"","","","","","html-keyboard-response","124","316185","0.0-132.0-0.0","16","1","2023-10-31 18:48:25","a725c3012b74bf33a1020a98cb69c237","45.71.5.119","Mozilla/5.0 (Windows NT 10.0; Win64; x64) AppleWebKit/537.36 (KHTML, like Gecko) Chrome/118.0.0.0 Safari/537.36","WebKit","Chrome","118.0.0.0","Windows","10.0","null","es-ES,es;q=0.9","true","545","<p id=""stimulus"" style=""font-size:100px;"">69</p>","k","","","empty_block","","69","","","","0","17",""
"","","","","","html-keyboard-response","125","319047","0.0-133.0","16","1","2023-10-31 18:48:25","a725c3012b74bf33a1020a98cb69c237","45.71.5.119","Mozilla/5.0 (Windows NT 10.0; Win64; x64) AppleWebKit/537.36 (KHTML, like Gecko) Chrome/118.0.0.0 Safari/537.36","WebKit","Chrome","118.0.0.0","Windows","10.0","null","es-ES,es;q=0.9","true","null","<div style=""font-size:100px;"">X</div>","null","","","fixation","","","","","","","",""
"","","","","","audio-keyboard-response","126","319742","0.0-134.0","16","1","2023-10-31 18:48:25","a725c3012b74bf33a1020a98cb69c237","45.71.5.119","Mozilla/5.0 (Windows NT 10.0; Win64; x64) AppleWebKit/537.36 (KHTML, like Gecko) Chrome/118.0.0.0 Safari/537.36","WebKit","Chrome","118.0.0.0","Windows","10.0","null","es-ES,es;q=0.9","true","691","tones/880hz_short.mp3","s","","","tone_number_task","992.5","43","tones/880hz_short.mp3","1142.5","100","0","18",""
"","","","","","html-keyboard-response","127","320048","0.0-135.0-0.0","16","1","2023-10-31 18:48:25","a725c3012b74bf33a1020a98cb69c237","45.71.5.119","Mozilla/5.0 (Windows NT 10.0; Win64; x64) AppleWebKit/537.36 (KHTML, like Gecko) Chrome/118.0.0.0 Safari/537.36","WebKit","Chrome","118.0.0.0","Windows","10.0","null","es-ES,es;q=0.9","true","null","","null","","","delay_block","","","","","","0","18",""
"","","","","","html-keyboard-response","128","320204","0.0-135.0-1.0","16","1","2023-10-31 18:48:25","a725c3012b74bf33a1020a98cb69c237","45.71.5.119","Mozilla/5.0 (Windows NT 10.0; Win64; x64) AppleWebKit/537.36 (KHTML, like Gecko) Chrome/118.0.0.0 Safari/537.36","WebKit","Chrome","118.0.0.0","Windows","10.0","null","es-ES,es;q=0.9","true","null","<p id=""stimulus"" style=""font-size:100px;"">43</p>","null","","","tone_number_task_remaining_before_delay","","43","","451.5","100","0","18",""
"","","","","","html-keyboard-response","129","321411","0.0-138.0-0.0","16","1","2023-10-31 18:48:25","a725c3012b74bf33a1020a98cb69c237","45.71.5.119","Mozilla/5.0 (Windows NT 10.0; Win64; x64) AppleWebKit/537.36 (KHTML, like Gecko) Chrome/118.0.0.0 Safari/537.36","WebKit","Chrome","118.0.0.0","Windows","10.0","null","es-ES,es;q=0.9","true","null","<p id=""stimulus"" style=""font-size:100px;"">43</p>","null","","","empty_block","","43","","","","0","18",""
"","","","","","html-keyboard-response","130","324275","0.0-139.0","16","1","2023-10-31 18:48:25","a725c3012b74bf33a1020a98cb69c237","45.71.5.119","Mozilla/5.0 (Windows NT 10.0; Win64; x64) AppleWebKit/537.36 (KHTML, like Gecko) Chrome/118.0.0.0 Safari/537.36","WebKit","Chrome","118.0.0.0","Windows","10.0","null","es-ES,es;q=0.9","true","null","<div style=""font-size:100px;"">X</div>","null","","","fixation","","","","","","","",""
"","","","","","audio-keyboard-response","131","324533","0.0-140.0","16","1","2023-10-31 18:48:25","a725c3012b74bf33a1020a98cb69c237","45.71.5.119","Mozilla/5.0 (Windows NT 10.0; Win64; x64) AppleWebKit/537.36 (KHTML, like Gecko) Chrome/118.0.0.0 Safari/537.36","WebKit","Chrome","118.0.0.0","Windows","10.0","null","es-ES,es;q=0.9","true","null","tones/880hz_short.mp3","null","","","tone_number_task","102.5","66","tones/880hz_short.mp3","252.5","100","0","19",""
"","","","","","html-keyboard-response","132","325201","0.0-143.0-0.0","16","1","2023-10-31 18:48:25","a725c3012b74bf33a1020a98cb69c237","45.71.5.119","Mozilla/5.0 (Windows NT 10.0; Win64; x64) AppleWebKit/537.36 (KHTML, like Gecko) Chrome/118.0.0.0 Safari/537.36","WebKit","Chrome","118.0.0.0","Windows","10.0","null","es-ES,es;q=0.9","true","663","tones/880hz_short.mp3","s","","","empty_block","","66","","","","0","19",""
"","","","","","html-keyboard-response","133","325655","0.0-143.0-1.0","16","1","2023-10-31 18:48:25","a725c3012b74bf33a1020a98cb69c237","45.71.5.119","Mozilla/5.0 (Windows NT 10.0; Win64; x64) AppleWebKit/537.36 (KHTML, like Gecko) Chrome/118.0.0.0 Safari/537.36","WebKit","Chrome","118.0.0.0","Windows","10.0","null","es-ES,es;q=0.9","true","450","tones/880hz_short.mp3","k","","","empty_block","","66","","","","0","19",""
"","","","","","html-keyboard-response","134","328519","0.0-145.0","16","1","2023-10-31 18:48:25","a725c3012b74bf33a1020a98cb69c237","45.71.5.119","Mozilla/5.0 (Windows NT 10.0; Win64; x64) AppleWebKit/537.36 (KHTML, like Gecko) Chrome/118.0.0.0 Safari/537.36","WebKit","Chrome","118.0.0.0","Windows","10.0","null","es-ES,es;q=0.9","true","null","<div style=""font-size:100px;"">X</div>","null","","","fixation","","","","","","","",""
"","","","","","audio-keyboard-response","135","329382","0.0-146.0","16","1","2023-10-31 18:48:25","a725c3012b74bf33a1020a98cb69c237","45.71.5.119","Mozilla/5.0 (Windows NT 10.0; Win64; x64) AppleWebKit/537.36 (KHTML, like Gecko) Chrome/118.0.0.0 Safari/537.36","WebKit","Chrome","118.0.0.0","Windows","10.0","null","es-ES,es;q=0.9","true","859","tones/880hz_short.mp3","s","","","tone_number_task","992.5","37","tones/880hz_short.mp3","1142.5","100","0","20",""
"","","","","","html-keyboard-response","136","329521","0.0-147.0-0.0","16","1","2023-10-31 18:48:25","a725c3012b74bf33a1020a98cb69c237","45.71.5.119","Mozilla/5.0 (Windows NT 10.0; Win64; x64) AppleWebKit/537.36 (KHTML, like Gecko) Chrome/118.0.0.0 Safari/537.36","WebKit","Chrome","118.0.0.0","Windows","10.0","null","es-ES,es;q=0.9","true","null","","null","","","delay_block","","","","","","0","20",""
"","","","","","html-keyboard-response","137","329677","0.0-147.0-1.0","16","1","2023-10-31 18:48:25","a725c3012b74bf33a1020a98cb69c237","45.71.5.119","Mozilla/5.0 (Windows NT 10.0; Win64; x64) AppleWebKit/537.36 (KHTML, like Gecko) Chrome/118.0.0.0 Safari/537.36","WebKit","Chrome","118.0.0.0","Windows","10.0","null","es-ES,es;q=0.9","true","null","<p id=""stimulus"" style=""font-size:100px;"">37</p>","null","","","tone_number_task_remaining_before_delay","","37","","283.5","100","0","20",""
"","","","","","html-keyboard-response","138","330255","0.0-150.0-0.0","16","1","2023-10-31 18:48:25","a725c3012b74bf33a1020a98cb69c237","45.71.5.119","Mozilla/5.0 (Windows NT 10.0; Win64; x64) AppleWebKit/537.36 (KHTML, like Gecko) Chrome/118.0.0.0 Safari/537.36","WebKit","Chrome","118.0.0.0","Windows","10.0","null","es-ES,es;q=0.9","true","572","<p id=""stimulus"" style=""font-size:100px;"">37</p>","j","","","empty_block","","37","","","","0","20",""
"","","","","","html-keyboard-response","139","333120","0.0-151.0","16","1","2023-10-31 18:48:25","a725c3012b74bf33a1020a98cb69c237","45.71.5.119","Mozilla/5.0 (Windows NT 10.0; Win64; x64) AppleWebKit/537.36 (KHTML, like Gecko) Chrome/118.0.0.0 Safari/537.36","WebKit","Chrome","118.0.0.0","Windows","10.0","null","es-ES,es;q=0.9","true","null","<div style=""font-size:100px;"">X</div>","null","","","fixation","","","","","","","",""
"","","","","","audio-keyboard-response","140","333809","0.0-152.0","16","1","2023-10-31 18:48:25","a725c3012b74bf33a1020a98cb69c237","45.71.5.119","Mozilla/5.0 (Windows NT 10.0; Win64; x64) AppleWebKit/537.36 (KHTML, like Gecko) Chrome/118.0.0.0 Safari/537.36","WebKit","Chrome","118.0.0.0","Windows","10.0","null","es-ES,es;q=0.9","true","679","tones/880hz_short.mp3","s","","","tone_number_task","992.5","50","tones/880hz_short.mp3","1142.5","100","0","21",""
"","","","","","html-keyboard-response","141","334129","0.0-153.0-0.0","16","1","2023-10-31 18:48:25","a725c3012b74bf33a1020a98cb69c237","45.71.5.119","Mozilla/5.0 (Windows NT 10.0; Win64; x64) AppleWebKit/537.36 (KHTML, like Gecko) Chrome/118.0.0.0 Safari/537.36","WebKit","Chrome","118.0.0.0","Windows","10.0","null","es-ES,es;q=0.9","true","null","","null","","","delay_block","","","","","","0","21",""
"","","","","","html-keyboard-response","142","334285","0.0-153.0-1.0","16","1","2023-10-31 18:48:25","a725c3012b74bf33a1020a98cb69c237","45.71.5.119","Mozilla/5.0 (Windows NT 10.0; Win64; x64) AppleWebKit/537.36 (KHTML, like Gecko) Chrome/118.0.0.0 Safari/537.36","WebKit","Chrome","118.0.0.0","Windows","10.0","null","es-ES,es;q=0.9","true","null","<p id=""stimulus"" style=""font-size:100px;"">50</p>","null","","","tone_number_task_remaining_before_delay","","50","","463.5","100","0","21",""
"","","","","","html-keyboard-response","143","334951","0.0-156.0-0.0","16","1","2023-10-31 18:48:25","a725c3012b74bf33a1020a98cb69c237","45.71.5.119","Mozilla/5.0 (Windows NT 10.0; Win64; x64) AppleWebKit/537.36 (KHTML, like Gecko) Chrome/118.0.0.0 Safari/537.36","WebKit","Chrome","118.0.0.0","Windows","10.0","null","es-ES,es;q=0.9","true","661","<p id=""stimulus"" style=""font-size:100px;"">50</p>","j","","","empty_block","","50","","","","0","21",""
"","","","","","html-keyboard-response","144","337815","0.0-157.0","16","1","2023-10-31 18:48:25","a725c3012b74bf33a1020a98cb69c237","45.71.5.119","Mozilla/5.0 (Windows NT 10.0; Win64; x64) AppleWebKit/537.36 (KHTML, like Gecko) Chrome/118.0.0.0 Safari/537.36","WebKit","Chrome","118.0.0.0","Windows","10.0","null","es-ES,es;q=0.9","true","null","<div style=""font-size:100px;"">X</div>","null","","","fixation","","","","","","","",""
"","","","","","audio-keyboard-response","145","338852","0.0-158.0","16","1","2023-10-31 18:48:25","a725c3012b74bf33a1020a98cb69c237","45.71.5.119","Mozilla/5.0 (Windows NT 10.0; Win64; x64) AppleWebKit/537.36 (KHTML, like Gecko) Chrome/118.0.0.0 Safari/537.36","WebKit","Chrome","118.0.0.0","Windows","10.0","null","es-ES,es;q=0.9","true","1030","tones/440hz_short.mp3","a","","","tone_number_task","992.5","55","tones/440hz_short.mp3","1142.5","100","0","22",""
"","","","","","html-keyboard-response","146","338971","0.0-160.0-0.0","16","1","2023-10-31 18:48:25","a725c3012b74bf33a1020a98cb69c237","45.71.5.119","Mozilla/5.0 (Windows NT 10.0; Win64; x64) AppleWebKit/537.36 (KHTML, like Gecko) Chrome/118.0.0.0 Safari/537.36","WebKit","Chrome","118.0.0.0","Windows","10.0","null","es-ES,es;q=0.9","true","null","<p id=""stimulus"" style=""font-size:100px;"">55</p>","null","","","tone_number_task_remaining_after_delay","","55","","","100","0","22",""
"","","","","","html-keyboard-response","147","339600","0.0-162.0-0.0","16","1","2023-10-31 18:48:25","a725c3012b74bf33a1020a98cb69c237","45.71.5.119","Mozilla/5.0 (Windows NT 10.0; Win64; x64) AppleWebKit/537.36 (KHTML, like Gecko) Chrome/118.0.0.0 Safari/537.36","WebKit","Chrome","118.0.0.0","Windows","10.0","null","es-ES,es;q=0.9","true","624","<p id=""stimulus"" style=""font-size:100px;"">55</p>","k","","","empty_block","","55","","","","0","22",""
"","","","","","html-keyboard-response","148","342465","0.0-163.0","16","1","2023-10-31 18:48:25","a725c3012b74bf33a1020a98cb69c237","45.71.5.119","Mozilla/5.0 (Windows NT 10.0; Win64; x64) AppleWebKit/537.36 (KHTML, like Gecko) Chrome/118.0.0.0 Safari/537.36","WebKit","Chrome","118.0.0.0","Windows","10.0","null","es-ES,es;q=0.9","true","null","<div style=""font-size:100px;"">X</div>","null","","","fixation","","","","","","","",""
"","","","","","audio-keyboard-response","149","343408","0.0-164.0","16","1","2023-10-31 18:48:25","a725c3012b74bf33a1020a98cb69c237","45.71.5.119","Mozilla/5.0 (Windows NT 10.0; Win64; x64) AppleWebKit/537.36 (KHTML, like Gecko) Chrome/118.0.0.0 Safari/537.36","WebKit","Chrome","118.0.0.0","Windows","10.0","null","es-ES,es;q=0.9","true","932","tones/880hz_short.mp3","s","","","tone_number_task","992.5","48","tones/880hz_short.mp3","1142.5","100","0","23",""
"","","","","","html-keyboard-response","150","343474","0.0-165.0-0.0","16","1","2023-10-31 18:48:25","a725c3012b74bf33a1020a98cb69c237","45.71.5.119","Mozilla/5.0 (Windows NT 10.0; Win64; x64) AppleWebKit/537.36 (KHTML, like Gecko) Chrome/118.0.0.0 Safari/537.36","WebKit","Chrome","118.0.0.0","Windows","10.0","null","es-ES,es;q=0.9","true","null","","null","","","delay_block","","","","","","0","23",""
"","","","","","html-keyboard-response","151","343629","0.0-165.0-1.0","16","1","2023-10-31 18:48:25","a725c3012b74bf33a1020a98cb69c237","45.71.5.119","Mozilla/5.0 (Windows NT 10.0; Win64; x64) AppleWebKit/537.36 (KHTML, like Gecko) Chrome/118.0.0.0 Safari/537.36","WebKit","Chrome","118.0.0.0","Windows","10.0","null","es-ES,es;q=0.9","true","null","<p id=""stimulus"" style=""font-size:100px;"">48</p>","null","","","tone_number_task_remaining_before_delay","","48","","210.5","100","0","23",""
"","","","","","html-keyboard-response","152","344287","0.0-168.0-0.0","16","1","2023-10-31 18:48:25","a725c3012b74bf33a1020a98cb69c237","45.71.5.119","Mozilla/5.0 (Windows NT 10.0; Win64; x64) AppleWebKit/537.36 (KHTML, like Gecko) Chrome/118.0.0.0 Safari/537.36","WebKit","Chrome","118.0.0.0","Windows","10.0","null","es-ES,es;q=0.9","true","651","<p id=""stimulus"" style=""font-size:100px;"">48</p>","k","","","empty_block","","48","","","","0","23",""
"","","","","","html-keyboard-response","153","347150","0.0-169.0","16","1","2023-10-31 18:48:25","a725c3012b74bf33a1020a98cb69c237","45.71.5.119","Mozilla/5.0 (Windows NT 10.0; Win64; x64) AppleWebKit/537.36 (KHTML, like Gecko) Chrome/118.0.0.0 Safari/537.36","WebKit","Chrome","118.0.0.0","Windows","10.0","null","es-ES,es;q=0.9","true","null","<div style=""font-size:100px;"">X</div>","null","","","fixation","","","","","","","",""
"","","","","","audio-keyboard-response","154","347903","0.0-170.0","16","1","2023-10-31 18:48:25","a725c3012b74bf33a1020a98cb69c237","45.71.5.119","Mozilla/5.0 (Windows NT 10.0; Win64; x64) AppleWebKit/537.36 (KHTML, like Gecko) Chrome/118.0.0.0 Safari/537.36","WebKit","Chrome","118.0.0.0","Windows","10.0","null","es-ES,es;q=0.9","true","749","tones/880hz_short.mp3","s","","","tone_number_task","1025","61","tones/880hz_short.mp3","1175","100","0","24",""
"","","","","","html-keyboard-response","155","348186","0.0-171.0-0.0","16","1","2023-10-31 18:48:25","a725c3012b74bf33a1020a98cb69c237","45.71.5.119","Mozilla/5.0 (Windows NT 10.0; Win64; x64) AppleWebKit/537.36 (KHTML, like Gecko) Chrome/118.0.0.0 Safari/537.36","WebKit","Chrome","118.0.0.0","Windows","10.0","null","es-ES,es;q=0.9","true","null","","null","","","delay_block","","","","","","0","24",""
"","","","","","html-keyboard-response","156","348343","0.0-171.0-1.0","16","1","2023-10-31 18:48:25","a725c3012b74bf33a1020a98cb69c237","45.71.5.119","Mozilla/5.0 (Windows NT 10.0; Win64; x64) AppleWebKit/537.36 (KHTML, like Gecko) Chrome/118.0.0.0 Safari/537.36","WebKit","Chrome","118.0.0.0","Windows","10.0","null","es-ES,es;q=0.9","true","null","<p id=""stimulus"" style=""font-size:100px;"">61</p>","null","","","tone_number_task_remaining_before_delay","","61","","426","100","0","24",""
"","","","","","html-keyboard-response","157","348861","0.0-174.0-0.0","16","1","2023-10-31 18:48:25","a725c3012b74bf33a1020a98cb69c237","45.71.5.119","Mozilla/5.0 (Windows NT 10.0; Win64; x64) AppleWebKit/537.36 (KHTML, like Gecko) Chrome/118.0.0.0 Safari/537.36","WebKit","Chrome","118.0.0.0","Windows","10.0","null","es-ES,es;q=0.9","true","512","<p id=""stimulus"" style=""font-size:100px;"">61</p>","k","","","empty_block","","61","","","","0","24",""
"","","","","","html-keyboard-response","158","351725","0.0-175.0","16","1","2023-10-31 18:48:25","a725c3012b74bf33a1020a98cb69c237","45.71.5.119","Mozilla/5.0 (Windows NT 10.0; Win64; x64) AppleWebKit/537.36 (KHTML, like Gecko) Chrome/118.0.0.0 Safari/537.36","WebKit","Chrome","118.0.0.0","Windows","10.0","null","es-ES,es;q=0.9","true","null","<div style=""font-size:100px;"">X</div>","null","","","fixation","","","","","","","",""
"","","","","","audio-keyboard-response","159","351881","0.0-176.0","16","1","2023-10-31 18:48:25","a725c3012b74bf33a1020a98cb69c237","45.71.5.119","Mozilla/5.0 (Windows NT 10.0; Win64; x64) AppleWebKit/537.36 (KHTML, like Gecko) Chrome/118.0.0.0 Safari/537.36","WebKit","Chrome","118.0.0.0","Windows","10.0","null","es-ES,es;q=0.9","true","null","tones/880hz_short.mp3","null","","","tone_number_task","0","27","tones/880hz_short.mp3","150","100","0","25",""
"","","","","","html-keyboard-response","160","352608","0.0-179.0-0.0","16","1","2023-10-31 18:48:25","a725c3012b74bf33a1020a98cb69c237","45.71.5.119","Mozilla/5.0 (Windows NT 10.0; Win64; x64) AppleWebKit/537.36 (KHTML, like Gecko) Chrome/118.0.0.0 Safari/537.36","WebKit","Chrome","118.0.0.0","Windows","10.0","null","es-ES,es;q=0.9","true","721","tones/880hz_short.mp3","s","","","empty_block","","27","","","","0","25",""
"","","","","","html-keyboard-response","161","352843","0.0-179.0-1.0","16","1","2023-10-31 18:48:25","a725c3012b74bf33a1020a98cb69c237","45.71.5.119","Mozilla/5.0 (Windows NT 10.0; Win64; x64) AppleWebKit/537.36 (KHTML, like Gecko) Chrome/118.0.0.0 Safari/537.36","WebKit","Chrome","118.0.0.0","Windows","10.0","null","es-ES,es;q=0.9","true","230","tones/880hz_short.mp3","j","","","empty_block","","27","","","","0","25",""
"","","","","","html-keyboard-response","162","355706","0.0-181.0","16","1","2023-10-31 18:48:25","a725c3012b74bf33a1020a98cb69c237","45.71.5.119","Mozilla/5.0 (Windows NT 10.0; Win64; x64) AppleWebKit/537.36 (KHTML, like Gecko) Chrome/118.0.0.0 Safari/537.36","WebKit","Chrome","118.0.0.0","Windows","10.0","null","es-ES,es;q=0.9","true","null","<div style=""font-size:100px;"">X</div>","null","","","fixation","","","","","","","",""
"","","","","","audio-keyboard-response","163","356431","0.0-182.0","16","1","2023-10-31 18:48:25","a725c3012b74bf33a1020a98cb69c237","45.71.5.119","Mozilla/5.0 (Windows NT 10.0; Win64; x64) AppleWebKit/537.36 (KHTML, like Gecko) Chrome/118.0.0.0 Safari/537.36","WebKit","Chrome","118.0.0.0","Windows","10.0","null","es-ES,es;q=0.9","true","720","tones/880hz_short.mp3","s","","","tone_number_task","1025","35","tones/880hz_short.mp3","1175","100","0","26",""
"","","","","","html-keyboard-response","164","356742","0.0-183.0-0.0","16","1","2023-10-31 18:48:25","a725c3012b74bf33a1020a98cb69c237","45.71.5.119","Mozilla/5.0 (Windows NT 10.0; Win64; x64) AppleWebKit/537.36 (KHTML, like Gecko) Chrome/118.0.0.0 Safari/537.36","WebKit","Chrome","118.0.0.0","Windows","10.0","null","es-ES,es;q=0.9","true","null","","null","","","delay_block","","","","","","0","26",""
"","","","","","html-keyboard-response","165","356898","0.0-183.0-1.0","16","1","2023-10-31 18:48:25","a725c3012b74bf33a1020a98cb69c237","45.71.5.119","Mozilla/5.0 (Windows NT 10.0; Win64; x64) AppleWebKit/537.36 (KHTML, like Gecko) Chrome/118.0.0.0 Safari/537.36","WebKit","Chrome","118.0.0.0","Windows","10.0","null","es-ES,es;q=0.9","true","null","<p id=""stimulus"" style=""font-size:100px;"">35</p>","null","","","tone_number_task_remaining_before_delay","","35","","455","100","0","26",""
"","","","","","html-keyboard-response","166","357528","0.0-186.0-0.0","16","1","2023-10-31 18:48:25","a725c3012b74bf33a1020a98cb69c237","45.71.5.119","Mozilla/5.0 (Windows NT 10.0; Win64; x64) AppleWebKit/537.36 (KHTML, like Gecko) Chrome/118.0.0.0 Safari/537.36","WebKit","Chrome","118.0.0.0","Windows","10.0","null","es-ES,es;q=0.9","true","624","<p id=""stimulus"" style=""font-size:100px;"">35</p>","j","","","empty_block","","35","","","","0","26",""
"","","","","","html-keyboard-response","167","360391","0.0-187.0","16","1","2023-10-31 18:48:25","a725c3012b74bf33a1020a98cb69c237","45.71.5.119","Mozilla/5.0 (Windows NT 10.0; Win64; x64) AppleWebKit/537.36 (KHTML, like Gecko) Chrome/118.0.0.0 Safari/537.36","WebKit","Chrome","118.0.0.0","Windows","10.0","null","es-ES,es;q=0.9","true","null","<div style=""font-size:100px;"">X</div>","null","","","fixation","","","","","","","",""
"","","","","","audio-keyboard-response","168","361290","0.0-188.0","16","1","2023-10-31 18:48:25","a725c3012b74bf33a1020a98cb69c237","45.71.5.119","Mozilla/5.0 (Windows NT 10.0; Win64; x64) AppleWebKit/537.36 (KHTML, like Gecko) Chrome/118.0.0.0 Safari/537.36","WebKit","Chrome","118.0.0.0","Windows","10.0","null","es-ES,es;q=0.9","true","900","tones/440hz_short.mp3","a","","","tone_number_task","1025","63","tones/440hz_short.mp3","1175","100","0","27",""
"","","","","","html-keyboard-response","169","361421","0.0-189.0-0.0","16","1","2023-10-31 18:48:25","a725c3012b74bf33a1020a98cb69c237","45.71.5.119","Mozilla/5.0 (Windows NT 10.0; Win64; x64) AppleWebKit/537.36 (KHTML, like Gecko) Chrome/118.0.0.0 Safari/537.36","WebKit","Chrome","118.0.0.0","Windows","10.0","null","es-ES,es;q=0.9","true","null","","null","","","delay_block","","","","","","0","27",""
"","","","","","html-keyboard-response","170","361587","0.0-189.0-1.0","16","1","2023-10-31 18:48:25","a725c3012b74bf33a1020a98cb69c237","45.71.5.119","Mozilla/5.0 (Windows NT 10.0; Win64; x64) AppleWebKit/537.36 (KHTML, like Gecko) Chrome/118.0.0.0 Safari/537.36","WebKit","Chrome","118.0.0.0","Windows","10.0","null","es-ES,es;q=0.9","true","null","<p id=""stimulus"" style=""font-size:100px;"">63</p>","null","","","tone_number_task_remaining_before_delay","","63","","275","100","0","27",""
"","","","","","html-keyboard-response","171","362055","0.0-192.0-0.0","16","1","2023-10-31 18:48:25","a725c3012b74bf33a1020a98cb69c237","45.71.5.119","Mozilla/5.0 (Windows NT 10.0; Win64; x64) AppleWebKit/537.36 (KHTML, like Gecko) Chrome/118.0.0.0 Safari/537.36","WebKit","Chrome","118.0.0.0","Windows","10.0","null","es-ES,es;q=0.9","true","461","<p id=""stimulus"" style=""font-size:100px;"">63</p>","k","","","empty_block","","63","","","","0","27",""
"","","","","","html-keyboard-response","172","364919","0.0-193.0","16","1","2023-10-31 18:48:25","a725c3012b74bf33a1020a98cb69c237","45.71.5.119","Mozilla/5.0 (Windows NT 10.0; Win64; x64) AppleWebKit/537.36 (KHTML, like Gecko) Chrome/118.0.0.0 Safari/537.36","WebKit","Chrome","118.0.0.0","Windows","10.0","null","es-ES,es;q=0.9","true","null","<div style=""font-size:100px;"">X</div>","null","","","fixation","","","","","","","",""
"","","","","","audio-keyboard-response","173","365730","0.0-194.0","16","1","2023-10-31 18:48:25","a725c3012b74bf33a1020a98cb69c237","45.71.5.119","Mozilla/5.0 (Windows NT 10.0; Win64; x64) AppleWebKit/537.36 (KHTML, like Gecko) Chrome/118.0.0.0 Safari/537.36","WebKit","Chrome","118.0.0.0","Windows","10.0","null","es-ES,es;q=0.9","true","810","tones/440hz_short.mp3","a","","","tone_number_task","1025","38","tones/440hz_short.mp3","1175","100","0","28",""
"","","","","","html-keyboard-response","174","365950","0.0-195.0-0.0","16","1","2023-10-31 18:48:25","a725c3012b74bf33a1020a98cb69c237","45.71.5.119","Mozilla/5.0 (Windows NT 10.0; Win64; x64) AppleWebKit/537.36 (KHTML, like Gecko) Chrome/118.0.0.0 Safari/537.36","WebKit","Chrome","118.0.0.0","Windows","10.0","null","es-ES,es;q=0.9","true","null","","null","","","delay_block","","","","","","0","28",""
"","","","","","html-keyboard-response","175","366107","0.0-195.0-1.0","16","1","2023-10-31 18:48:25","a725c3012b74bf33a1020a98cb69c237","45.71.5.119","Mozilla/5.0 (Windows NT 10.0; Win64; x64) AppleWebKit/537.36 (KHTML, like Gecko) Chrome/118.0.0.0 Safari/537.36","WebKit","Chrome","118.0.0.0","Windows","10.0","null","es-ES,es;q=0.9","true","null","<p id=""stimulus"" style=""font-size:100px;"">38</p>","null","","","tone_number_task_remaining_before_delay","","38","","365","100","0","28",""
"","","","","","html-keyboard-response","176","366829","0.0-198.0-0.0","16","1","2023-10-31 18:48:25","a725c3012b74bf33a1020a98cb69c237","45.71.5.119","Mozilla/5.0 (Windows NT 10.0; Win64; x64) AppleWebKit/537.36 (KHTML, like Gecko) Chrome/118.0.0.0 Safari/537.36","WebKit","Chrome","118.0.0.0","Windows","10.0","null","es-ES,es;q=0.9","true","716","<p id=""stimulus"" style=""font-size:100px;"">38</p>","j","","","empty_block","","38","","","","0","28",""
"","","","","","html-keyboard-response","177","369693","0.0-199.0","16","1","2023-10-31 18:48:25","a725c3012b74bf33a1020a98cb69c237","45.71.5.119","Mozilla/5.0 (Windows NT 10.0; Win64; x64) AppleWebKit/537.36 (KHTML, like Gecko) Chrome/118.0.0.0 Safari/537.36","WebKit","Chrome","118.0.0.0","Windows","10.0","null","es-ES,es;q=0.9","true","null","<div style=""font-size:100px;"">X</div>","null","","","fixation","","","","","","","",""
"","","","","","audio-keyboard-response","178","369951","0.0-200.0","16","1","2023-10-31 18:48:25","a725c3012b74bf33a1020a98cb69c237","45.71.5.119","Mozilla/5.0 (Windows NT 10.0; Win64; x64) AppleWebKit/537.36 (KHTML, like Gecko) Chrome/118.0.0.0 Safari/537.36","WebKit","Chrome","118.0.0.0","Windows","10.0","null","es-ES,es;q=0.9","true","null","tones/880hz_short.mp3","null","","","tone_number_task","102.5","57","tones/880hz_short.mp3","252.5","100","0","29",""
"","","","","","html-keyboard-response","179","370815","0.0-203.0-0.0","16","1","2023-10-31 18:48:25","a725c3012b74bf33a1020a98cb69c237","45.71.5.119","Mozilla/5.0 (Windows NT 10.0; Win64; x64) AppleWebKit/537.36 (KHTML, like Gecko) Chrome/118.0.0.0 Safari/537.36","WebKit","Chrome","118.0.0.0","Windows","10.0","null","es-ES,es;q=0.9","true","858","tones/880hz_short.mp3","s","","","empty_block","","57","","","","0","29",""
"","","","","","html-keyboard-response","180","371199","0.0-203.0-1.0","16","1","2023-10-31 18:48:25","a725c3012b74bf33a1020a98cb69c237","45.71.5.119","Mozilla/5.0 (Windows NT 10.0; Win64; x64) AppleWebKit/537.36 (KHTML, like Gecko) Chrome/118.0.0.0 Safari/537.36","WebKit","Chrome","118.0.0.0","Windows","10.0","null","es-ES,es;q=0.9","true","378","tones/880hz_short.mp3","k","","","empty_block","","57","","","","0","29",""
"","","","","","html-keyboard-response","181","374064","0.0-205.0","16","1","2023-10-31 18:48:25","a725c3012b74bf33a1020a98cb69c237","45.71.5.119","Mozilla/5.0 (Windows NT 10.0; Win64; x64) AppleWebKit/537.36 (KHTML, like Gecko) Chrome/118.0.0.0 Safari/537.36","WebKit","Chrome","118.0.0.0","Windows","10.0","null","es-ES,es;q=0.9","true","null","<div style=""font-size:100px;"">X</div>","null","","","fixation","","","","","","","",""
"","","","","","audio-keyboard-response","182","374321","0.0-206.0","16","1","2023-10-31 18:48:25","a725c3012b74bf33a1020a98cb69c237","45.71.5.119","Mozilla/5.0 (Windows NT 10.0; Win64; x64) AppleWebKit/537.36 (KHTML, like Gecko) Chrome/118.0.0.0 Safari/537.36","WebKit","Chrome","118.0.0.0","Windows","10.0","null","es-ES,es;q=0.9","true","null","tones/880hz_short.mp3","null","","","tone_number_task","102.5","54","tones/880hz_short.mp3","252.5","100","0","30",""
"","","","","","html-keyboard-response","183","375053","0.0-209.0-0.0","16","1","2023-10-31 18:48:25","a725c3012b74bf33a1020a98cb69c237","45.71.5.119","Mozilla/5.0 (Windows NT 10.0; Win64; x64) AppleWebKit/537.36 (KHTML, like Gecko) Chrome/118.0.0.0 Safari/537.36","WebKit","Chrome","118.0.0.0","Windows","10.0","null","es-ES,es;q=0.9","true","724","tones/880hz_short.mp3","s","","","empty_block","","54","","","","0","30",""
"","","","","","html-keyboard-response","184","376124","0.0-209.0-1.0","16","1","2023-10-31 18:48:25","a725c3012b74bf33a1020a98cb69c237","45.71.5.119","Mozilla/5.0 (Windows NT 10.0; Win64; x64) AppleWebKit/537.36 (KHTML, like Gecko) Chrome/118.0.0.0 Safari/537.36","WebKit","Chrome","118.0.0.0","Windows","10.0","null","es-ES,es;q=0.9","true","1066","tones/880hz_short.mp3","k","","","empty_block","","54","","","","0","30",""
"","","","","","html-keyboard-response","185","378989","0.0-211.0","16","1","2023-10-31 18:48:25","a725c3012b74bf33a1020a98cb69c237","45.71.5.119","Mozilla/5.0 (Windows NT 10.0; Win64; x64) AppleWebKit/537.36 (KHTML, like Gecko) Chrome/118.0.0.0 Safari/537.36","WebKit","Chrome","118.0.0.0","Windows","10.0","null","es-ES,es;q=0.9","true","null","<div style=""font-size:100px;"">X</div>","null","","","fixation","","","","","","","",""
"","","","","","audio-keyboard-response","186","379145","0.0-212.0","16","1","2023-10-31 18:48:25","a725c3012b74bf33a1020a98cb69c237","45.71.5.119","Mozilla/5.0 (Windows NT 10.0; Win64; x64) AppleWebKit/537.36 (KHTML, like Gecko) Chrome/118.0.0.0 Safari/537.36","WebKit","Chrome","118.0.0.0","Windows","10.0","null","es-ES,es;q=0.9","true","null","tones/440hz_short.mp3","null","","","tone_number_task","0","67","tones/440hz_short.mp3","150","100","0","31",""
"","","","","","html-keyboard-response","187","380012","0.0-215.0-0.0","16","1","2023-10-31 18:48:25","a725c3012b74bf33a1020a98cb69c237","45.71.5.119","Mozilla/5.0 (Windows NT 10.0; Win64; x64) AppleWebKit/537.36 (KHTML, like Gecko) Chrome/118.0.0.0 Safari/537.36","WebKit","Chrome","118.0.0.0","Windows","10.0","null","es-ES,es;q=0.9","true","859","tones/440hz_short.mp3","a","","","empty_block","","67","","","","0","31",""
"","","","","","html-keyboard-response","188","380295","0.0-215.0-1.0","16","1","2023-10-31 18:48:25","a725c3012b74bf33a1020a98cb69c237","45.71.5.119","Mozilla/5.0 (Windows NT 10.0; Win64; x64) AppleWebKit/537.36 (KHTML, like Gecko) Chrome/118.0.0.0 Safari/537.36","WebKit","Chrome","118.0.0.0","Windows","10.0","null","es-ES,es;q=0.9","true","278","tones/440hz_short.mp3","k","","","empty_block","","67","","","","0","31",""
"","","","","","html-keyboard-response","189","383161","0.0-217.0","16","1","2023-10-31 18:48:25","a725c3012b74bf33a1020a98cb69c237","45.71.5.119","Mozilla/5.0 (Windows NT 10.0; Win64; x64) AppleWebKit/537.36 (KHTML, like Gecko) Chrome/118.0.0.0 Safari/537.36","WebKit","Chrome","118.0.0.0","Windows","10.0","null","es-ES,es;q=0.9","true","null","<div style=""font-size:100px;"">X</div>","null","","","fixation","","","","","","","",""
"","","","","","audio-keyboard-response","190","384008","0.0-218.0","16","1","2023-10-31 18:48:25","a725c3012b74bf33a1020a98cb69c237","45.71.5.119","Mozilla/5.0 (Windows NT 10.0; Win64; x64) AppleWebKit/537.36 (KHTML, like Gecko) Chrome/118.0.0.0 Safari/537.36","WebKit","Chrome","118.0.0.0","Windows","10.0","null","es-ES,es;q=0.9","true","842","tones/880hz_short.mp3","s","","","tone_number_task","992.5","26","tones/880hz_short.mp3","1142.5","100","0","32",""
"","","","","","html-keyboard-response","191","384165","0.0-219.0-0.0","16","1","2023-10-31 18:48:25","a725c3012b74bf33a1020a98cb69c237","45.71.5.119","Mozilla/5.0 (Windows NT 10.0; Win64; x64) AppleWebKit/537.36 (KHTML, like Gecko) Chrome/118.0.0.0 Safari/537.36","WebKit","Chrome","118.0.0.0","Windows","10.0","null","es-ES,es;q=0.9","true","null","","null","","","delay_block","","","","","","0","32",""
"","","","","","html-keyboard-response","192","384321","0.0-219.0-1.0","16","1","2023-10-31 18:48:25","a725c3012b74bf33a1020a98cb69c237","45.71.5.119","Mozilla/5.0 (Windows NT 10.0; Win64; x64) AppleWebKit/537.36 (KHTML, like Gecko) Chrome/118.0.0.0 Safari/537.36","WebKit","Chrome","118.0.0.0","Windows","10.0","null","es-ES,es;q=0.9","true","null","<p id=""stimulus"" style=""font-size:100px;"">26</p>","null","","","tone_number_task_remaining_before_delay","","26","","300.5","100","0","32",""
"","","","","","html-keyboard-response","193","384716","0.0-222.0-0.0","16","1","2023-10-31 18:48:25","a725c3012b74bf33a1020a98cb69c237","45.71.5.119","Mozilla/5.0 (Windows NT 10.0; Win64; x64) AppleWebKit/537.36 (KHTML, like Gecko) Chrome/118.0.0.0 Safari/537.36","WebKit","Chrome","118.0.0.0","Windows","10.0","null","es-ES,es;q=0.9","true","388","<p id=""stimulus"" style=""font-size:100px;"">26</p>","j","","","empty_block","","26","","","","0","32",""
"","","","","","html-keyboard-response","194","387581","0.0-223.0","16","1","2023-10-31 18:48:25","a725c3012b74bf33a1020a98cb69c237","45.71.5.119","Mozilla/5.0 (Windows NT 10.0; Win64; x64) AppleWebKit/537.36 (KHTML, like Gecko) Chrome/118.0.0.0 Safari/537.36","WebKit","Chrome","118.0.0.0","Windows","10.0","null","es-ES,es;q=0.9","true","null","<div style=""font-size:100px;"">X</div>","null","","","fixation","","","","","","","",""
"","","","","","audio-keyboard-response","195","387736","0.0-224.0","16","1","2023-10-31 18:48:25","a725c3012b74bf33a1020a98cb69c237","45.71.5.119","Mozilla/5.0 (Windows NT 10.0; Win64; x64) AppleWebKit/537.36 (KHTML, like Gecko) Chrome/118.0.0.0 Safari/537.36","WebKit","Chrome","118.0.0.0","Windows","10.0","null","es-ES,es;q=0.9","true","null","tones/880hz_short.mp3","null","","","tone_number_task","0","57","tones/880hz_short.mp3","150","100","0","33",""
"","","","","","html-keyboard-response","196","388582","0.0-227.0-0.0","16","1","2023-10-31 18:48:25","a725c3012b74bf33a1020a98cb69c237","45.71.5.119","Mozilla/5.0 (Windows NT 10.0; Win64; x64) AppleWebKit/537.36 (KHTML, like Gecko) Chrome/118.0.0.0 Safari/537.36","WebKit","Chrome","118.0.0.0","Windows","10.0","null","es-ES,es;q=0.9","true","839","tones/880hz_short.mp3","s","","","empty_block","","57","","","","0","33",""
"","","","","","html-keyboard-response","197","389136","0.0-227.0-1.0","16","1","2023-10-31 18:48:25","a725c3012b74bf33a1020a98cb69c237","45.71.5.119","Mozilla/5.0 (Windows NT 10.0; Win64; x64) AppleWebKit/537.36 (KHTML, like Gecko) Chrome/118.0.0.0 Safari/537.36","WebKit","Chrome","118.0.0.0","Windows","10.0","null","es-ES,es;q=0.9","true","548","tones/880hz_short.mp3","k","","","empty_block","","57","","","","0","33",""
"","","","","","html-keyboard-response","198","392001","0.0-229.0","16","1","2023-10-31 18:48:25","a725c3012b74bf33a1020a98cb69c237","45.71.5.119","Mozilla/5.0 (Windows NT 10.0; Win64; x64) AppleWebKit/537.36 (KHTML, like Gecko) Chrome/118.0.0.0 Safari/537.36","WebKit","Chrome","118.0.0.0","Windows","10.0","null","es-ES,es;q=0.9","true","null","<div style=""font-size:100px;"">X</div>","null","","","fixation","","","","","","","",""
"","","","","","audio-keyboard-response","199","392156","0.0-230.0","16","1","2023-10-31 18:48:25","a725c3012b74bf33a1020a98cb69c237","45.71.5.119","Mozilla/5.0 (Windows NT 10.0; Win64; x64) AppleWebKit/537.36 (KHTML, like Gecko) Chrome/118.0.0.0 Safari/537.36","WebKit","Chrome","118.0.0.0","Windows","10.0","null","es-ES,es;q=0.9","true","null","tones/880hz_short.mp3","null","","","tone_number_task","0","60","tones/880hz_short.mp3","150","100","0","34",""
"","","","","","html-keyboard-response","200","392724","0.0-233.0-0.0","16","1","2023-10-31 18:48:25","a725c3012b74bf33a1020a98cb69c237","45.71.5.119","Mozilla/5.0 (Windows NT 10.0; Win64; x64) AppleWebKit/537.36 (KHTML, like Gecko) Chrome/118.0.0.0 Safari/537.36","WebKit","Chrome","118.0.0.0","Windows","10.0","null","es-ES,es;q=0.9","true","562","tones/880hz_short.mp3","s","","","empty_block","","60","","","","0","34",""
"","","","","","html-keyboard-response","201","393103","0.0-233.0-1.0","16","1","2023-10-31 18:48:25","a725c3012b74bf33a1020a98cb69c237","45.71.5.119","Mozilla/5.0 (Windows NT 10.0; Win64; x64) AppleWebKit/537.36 (KHTML, like Gecko) Chrome/118.0.0.0 Safari/537.36","WebKit","Chrome","118.0.0.0","Windows","10.0","null","es-ES,es;q=0.9","true","373","tones/880hz_short.mp3","k","","","empty_block","","60","","","","0","34",""
"","","","","","html-keyboard-response","202","395966","0.0-235.0","16","1","2023-10-31 18:48:25","a725c3012b74bf33a1020a98cb69c237","45.71.5.119","Mozilla/5.0 (Windows NT 10.0; Win64; x64) AppleWebKit/537.36 (KHTML, like Gecko) Chrome/118.0.0.0 Safari/537.36","WebKit","Chrome","118.0.0.0","Windows","10.0","null","es-ES,es;q=0.9","true","null","<div style=""font-size:100px;"">X</div>","null","","","fixation","","","","","","","",""
"","","","","","audio-keyboard-response","203","396124","0.0-236.0","16","1","2023-10-31 18:48:25","a725c3012b74bf33a1020a98cb69c237","45.71.5.119","Mozilla/5.0 (Windows NT 10.0; Win64; x64) AppleWebKit/537.36 (KHTML, like Gecko) Chrome/118.0.0.0 Safari/537.36","WebKit","Chrome","118.0.0.0","Windows","10.0","null","es-ES,es;q=0.9","true","null","tones/880hz_short.mp3","null","","","tone_number_task","0","64","tones/880hz_short.mp3","150","100","0","35",""
"","","","","","html-keyboard-response","204","396755","0.0-239.0-0.0","16","1","2023-10-31 18:48:25","a725c3012b74bf33a1020a98cb69c237","45.71.5.119","Mozilla/5.0 (Windows NT 10.0; Win64; x64) AppleWebKit/537.36 (KHTML, like Gecko) Chrome/118.0.0.0 Safari/537.36","WebKit","Chrome","118.0.0.0","Windows","10.0","null","es-ES,es;q=0.9","true","625","tones/880hz_short.mp3","s","","","empty_block","","64","","","","0","35",""
"","","","","","html-keyboard-response","205","397029","0.0-239.0-1.0","16","1","2023-10-31 18:48:25","a725c3012b74bf33a1020a98cb69c237","45.71.5.119","Mozilla/5.0 (Windows NT 10.0; Win64; x64) AppleWebKit/537.36 (KHTML, like Gecko) Chrome/118.0.0.0 Safari/537.36","WebKit","Chrome","118.0.0.0","Windows","10.0","null","es-ES,es;q=0.9","true","268","tones/880hz_short.mp3","k","","","empty_block","","64","","","","0","35",""
"","","","","","html-keyboard-response","206","399895","0.0-241.0","16","1","2023-10-31 18:48:25","a725c3012b74bf33a1020a98cb69c237","45.71.5.119","Mozilla/5.0 (Windows NT 10.0; Win64; x64) AppleWebKit/537.36 (KHTML, like Gecko) Chrome/118.0.0.0 Safari/537.36","WebKit","Chrome","118.0.0.0","Windows","10.0","null","es-ES,es;q=0.9","true","null","<div style=""font-size:100px;"">X</div>","null","","","fixation","","","","","","","",""
"","","","","","audio-keyboard-response","207","400053","0.0-242.0","16","1","2023-10-31 18:48:25","a725c3012b74bf33a1020a98cb69c237","45.71.5.119","Mozilla/5.0 (Windows NT 10.0; Win64; x64) AppleWebKit/537.36 (KHTML, like Gecko) Chrome/118.0.0.0 Safari/537.36","WebKit","Chrome","118.0.0.0","Windows","10.0","null","es-ES,es;q=0.9","true","null","tones/440hz_short.mp3","null","","","tone_number_task","0","40","tones/440hz_short.mp3","150","100","0","36",""
"","","","","","html-keyboard-response","208","400657","0.0-245.0-0.0","16","1","2023-10-31 18:48:25","a725c3012b74bf33a1020a98cb69c237","45.71.5.119","Mozilla/5.0 (Windows NT 10.0; Win64; x64) AppleWebKit/537.36 (KHTML, like Gecko) Chrome/118.0.0.0 Safari/537.36","WebKit","Chrome","118.0.0.0","Windows","10.0","null","es-ES,es;q=0.9","true","597","tones/440hz_short.mp3","a","","","empty_block","","40","","","","0","36",""
"","","","","","html-keyboard-response","209","401455","0.0-245.0-1.0","16","1","2023-10-31 18:48:25","a725c3012b74bf33a1020a98cb69c237","45.71.5.119","Mozilla/5.0 (Windows NT 10.0; Win64; x64) AppleWebKit/537.36 (KHTML, like Gecko) Chrome/118.0.0.0 Safari/537.36","WebKit","Chrome","118.0.0.0","Windows","10.0","null","es-ES,es;q=0.9","true","791","tones/440hz_short.mp3","j","","","empty_block","","40","","","","0","36",""
"","","","","","html-keyboard-response","210","404320","0.0-247.0","16","1","2023-10-31 18:48:25","a725c3012b74bf33a1020a98cb69c237","45.71.5.119","Mozilla/5.0 (Windows NT 10.0; Win64; x64) AppleWebKit/537.36 (KHTML, like Gecko) Chrome/118.0.0.0 Safari/537.36","WebKit","Chrome","118.0.0.0","Windows","10.0","null","es-ES,es;q=0.9","true","null","<div style=""font-size:100px;"">X</div>","null","","","fixation","","","","","","","",""
"","","","","","audio-keyboard-response","211","404476","0.0-248.0","16","1","2023-10-31 18:48:25","a725c3012b74bf33a1020a98cb69c237","45.71.5.119","Mozilla/5.0 (Windows NT 10.0; Win64; x64) AppleWebKit/537.36 (KHTML, like Gecko) Chrome/118.0.0.0 Safari/537.36","WebKit","Chrome","118.0.0.0","Windows","10.0","null","es-ES,es;q=0.9","true","null","tones/880hz_short.mp3","null","","","tone_number_task","0","29","tones/880hz_short.mp3","150","100","0","37",""
"","","","","","html-keyboard-response","212","405302","0.0-251.0-0.0","16","1","2023-10-31 18:48:25","a725c3012b74bf33a1020a98cb69c237","45.71.5.119","Mozilla/5.0 (Windows NT 10.0; Win64; x64) AppleWebKit/537.36 (KHTML, like Gecko) Chrome/118.0.0.0 Safari/537.36","WebKit","Chrome","118.0.0.0","Windows","10.0","null","es-ES,es;q=0.9","true","819","tones/880hz_short.mp3","s","","","empty_block","","29","","","","0","37",""
"","","","","","html-keyboard-response","213","405527","0.0-251.0-1.0","16","1","2023-10-31 18:48:25","a725c3012b74bf33a1020a98cb69c237","45.71.5.119","Mozilla/5.0 (Windows NT 10.0; Win64; x64) AppleWebKit/537.36 (KHTML, like Gecko) Chrome/118.0.0.0 Safari/537.36","WebKit","Chrome","118.0.0.0","Windows","10.0","null","es-ES,es;q=0.9","true","220","tones/880hz_short.mp3","j","","","empty_block","","29","","","","0","37",""
"","","","","","html-keyboard-response","214","408392","0.0-253.0","16","1","2023-10-31 18:48:25","a725c3012b74bf33a1020a98cb69c237","45.71.5.119","Mozilla/5.0 (Windows NT 10.0; Win64; x64) AppleWebKit/537.36 (KHTML, like Gecko) Chrome/118.0.0.0 Safari/537.36","WebKit","Chrome","118.0.0.0","Windows","10.0","null","es-ES,es;q=0.9","true","null","<div style=""font-size:100px;"">X</div>","null","","","fixation","","","","","","","",""
"","","","","","audio-keyboard-response","215","408549","0.0-254.0","16","1","2023-10-31 18:48:25","a725c3012b74bf33a1020a98cb69c237","45.71.5.119","Mozilla/5.0 (Windows NT 10.0; Win64; x64) AppleWebKit/537.36 (KHTML, like Gecko) Chrome/118.0.0.0 Safari/537.36","WebKit","Chrome","118.0.0.0","Windows","10.0","null","es-ES,es;q=0.9","true","null","tones/880hz_short.mp3","null","","","tone_number_task","0","59","tones/880hz_short.mp3","150","100","0","38",""
"","","","","","html-keyboard-response","216","409169","0.0-257.0-0.0","16","1","2023-10-31 18:48:25","a725c3012b74bf33a1020a98cb69c237","45.71.5.119","Mozilla/5.0 (Windows NT 10.0; Win64; x64) AppleWebKit/537.36 (KHTML, like Gecko) Chrome/118.0.0.0 Safari/537.36","WebKit","Chrome","118.0.0.0","Windows","10.0","null","es-ES,es;q=0.9","true","613","tones/880hz_short.mp3","s","","","empty_block","","59","","","","0","38",""
"","","","","","html-keyboard-response","217","409698","0.0-257.0-1.0","16","1","2023-10-31 18:48:25","a725c3012b74bf33a1020a98cb69c237","45.71.5.119","Mozilla/5.0 (Windows NT 10.0; Win64; x64) AppleWebKit/537.36 (KHTML, like Gecko) Chrome/118.0.0.0 Safari/537.36","WebKit","Chrome","118.0.0.0","Windows","10.0","null","es-ES,es;q=0.9","true","523","tones/880hz_short.mp3","k","","","empty_block","","59","","","","0","38",""
"","","","","","html-keyboard-response","218","412563","0.0-259.0","16","1","2023-10-31 18:48:25","a725c3012b74bf33a1020a98cb69c237","45.71.5.119","Mozilla/5.0 (Windows NT 10.0; Win64; x64) AppleWebKit/537.36 (KHTML, like Gecko) Chrome/118.0.0.0 Safari/537.36","WebKit","Chrome","118.0.0.0","Windows","10.0","null","es-ES,es;q=0.9","true","null","<div style=""font-size:100px;"">X</div>","null","","","fixation","","","","","","","",""
"","","","","","audio-keyboard-response","219","412821","0.0-260.0","16","1","2023-10-31 18:48:25","a725c3012b74bf33a1020a98cb69c237","45.71.5.119","Mozilla/5.0 (Windows NT 10.0; Win64; x64) AppleWebKit/537.36 (KHTML, like Gecko) Chrome/118.0.0.0 Safari/537.36","WebKit","Chrome","118.0.0.0","Windows","10.0","null","es-ES,es;q=0.9","true","null","tones/880hz_short.mp3","null","","","tone_number_task","102.5","66","tones/880hz_short.mp3","252.5","100","0","39",""
"","","","","","html-keyboard-response","220","413350","0.0-263.0-0.0","16","1","2023-10-31 18:48:25","a725c3012b74bf33a1020a98cb69c237","45.71.5.119","Mozilla/5.0 (Windows NT 10.0; Win64; x64) AppleWebKit/537.36 (KHTML, like Gecko) Chrome/118.0.0.0 Safari/537.36","WebKit","Chrome","118.0.0.0","Windows","10.0","null","es-ES,es;q=0.9","true","522","tones/880hz_short.mp3","s","","","empty_block","","66","","","","0","39",""
"","","","","","html-keyboard-response","221","413565","0.0-263.0-1.0","16","1","2023-10-31 18:48:25","a725c3012b74bf33a1020a98cb69c237","45.71.5.119","Mozilla/5.0 (Windows NT 10.0; Win64; x64) AppleWebKit/537.36 (KHTML, like Gecko) Chrome/118.0.0.0 Safari/537.36","WebKit","Chrome","118.0.0.0","Windows","10.0","null","es-ES,es;q=0.9","true","210","tones/880hz_short.mp3","k","","","empty_block","","66","","","","0","39",""
