"success","timeout","failed_images","failed_audio","failed_video","trial_type","trial_index","time_elapsed","internal_node_id","run_id","condition","recorded_at","source_code_version","ip","user_agent","device","browser","browser_version","platform","platform_version","referer","accept_language","check","rt","stimulus","response","question_order","url","task","delay","number","audioFile","trial_duration","font_size","block","round","value"
"true","false","[]","[]","[]","preload","0","510","0.0-0.0","27","1","2023-10-23 04:04:52","a725c3012b74bf33a1020a98cb69c237","189.130.99.142","Mozilla/5.0 (Macintosh; Intel Mac OS X 10_15_7) AppleWebKit/605.1.15 (KHTML, like Gecko) Version/16.3 Safari/605.1.15","Macintosh","Safari","16.3","OS X","10_15_7","null","en-US,en;q=0.9","true","","","","","","","","","","","","","",""
"true","","","","","fullscreen","1","4516","0.0-1.0","27","1","2023-10-23 04:04:52","a725c3012b74bf33a1020a98cb69c237","189.130.99.142","Mozilla/5.0 (Macintosh; Intel Mac OS X 10_15_7) AppleWebKit/605.1.15 (KHTML, like Gecko) Version/16.3 Safari/605.1.15","Macintosh","Safari","16.3","OS X","10_15_7","null","en-US,en;q=0.9","true","","","","","","","","","","","","","",""
"","","","","","html-button-response","2","6069","0.0-2.0","27","1","2023-10-23 04:04:52","a725c3012b74bf33a1020a98cb69c237","189.130.99.142","Mozilla/5.0 (Macintosh; Intel Mac OS X 10_15_7) AppleWebKit/605.1.15 (KHTML, like Gecko) Version/16.3 Safari/605.1.15","Macintosh","Safari","16.3","OS X","10_15_7","null","en-US,en;q=0.9","true","1551","<p style=""font-size:24px; color:red;"">Cosas importantes a tener en cuenta antes de comenzar el experimento:</p>","0","","","","","","","","","","",""
"","","","","","html-button-response","3","7730","0.0-3.0","27","1","2023-10-23 04:04:52","a725c3012b74bf33a1020a98cb69c237","189.130.99.142","Mozilla/5.0 (Macintosh; Intel Mac OS X 10_15_7) AppleWebKit/605.1.15 (KHTML, like Gecko) Version/16.3 Safari/605.1.15","Macintosh","Safari","16.3","OS X","10_15_7","null","en-US,en;q=0.9","true","1660","<p style=""font-size:24px;"">El experimento dura aproximadamente 15 minutos.</p><p style=""font-size:24px;"">Por favor, no cierres la ventana del navegador durante el experimento.</p><p style=""font-size:24px;"">Si se completa de forma parcial, no se guardará ningún resultado.</p>","0","","","","","","","","","","",""
"","","","","","html-button-response","4","9228","0.0-4.0","27","1","2023-10-23 04:04:52","a725c3012b74bf33a1020a98cb69c237","189.130.99.142","Mozilla/5.0 (Macintosh; Intel Mac OS X 10_15_7) AppleWebKit/605.1.15 (KHTML, like Gecko) Version/16.3 Safari/605.1.15","Macintosh","Safari","16.3","OS X","10_15_7","null","en-US,en;q=0.9","true","1497","<p style=""font-size:24px;"">El experimento contiene estímulos sonoros.</p>","0","","","","","","","","","","",""
"","","","","","audio-button-response","5","12001","0.0-5.0-0.0","27","1","2023-10-23 04:04:52","a725c3012b74bf33a1020a98cb69c237","189.130.99.142","Mozilla/5.0 (Macintosh; Intel Mac OS X 10_15_7) AppleWebKit/605.1.15 (KHTML, like Gecko) Version/16.3 Safari/605.1.15","Macintosh","Safari","16.3","OS X","10_15_7","null","en-US,en;q=0.9","true","2708","tones/440hz_short.mp3","1","","","","","","","","","","",""
"","","","","","audio-button-response","6","16991","0.0-6.0-0.0","27","1","2023-10-23 04:04:52","a725c3012b74bf33a1020a98cb69c237","189.130.99.142","Mozilla/5.0 (Macintosh; Intel Mac OS X 10_15_7) AppleWebKit/605.1.15 (KHTML, like Gecko) Version/16.3 Safari/605.1.15","Macintosh","Safari","16.3","OS X","10_15_7","null","en-US,en;q=0.9","true","4986","tones/880hz_short.mp3","1","","","","","","","","","","",""
"","","","","","survey-html-form","7","21248","0.0-7.0","27","1","2023-10-23 04:04:52","a725c3012b74bf33a1020a98cb69c237","189.130.99.142","Mozilla/5.0 (Macintosh; Intel Mac OS X 10_15_7) AppleWebKit/605.1.15 (KHTML, like Gecko) Version/16.3 Safari/605.1.15","Macintosh","Safari","16.3","OS X","10_15_7","null","en-US,en;q=0.9","true","4239","","{""response"":""46""}","","","","","","","","","","",""
"","","","","","survey-multi-choice","8","27021","0.0-8.0","27","1","2023-10-23 04:04:52","a725c3012b74bf33a1020a98cb69c237","189.130.99.142","Mozilla/5.0 (Macintosh; Intel Mac OS X 10_15_7) AppleWebKit/605.1.15 (KHTML, like Gecko) Version/16.3 Safari/605.1.15","Macintosh","Safari","16.3","OS X","10_15_7","null","en-US,en;q=0.9","true","5772","","{""gender"":""Mujer"",""hand"":""Derecha""}","[0,1]","","","","","","","","","",""
"","","","","","external-html","9","107901","0.0-9.0","27","1","2023-10-23 04:04:52","a725c3012b74bf33a1020a98cb69c237","189.130.99.142","Mozilla/5.0 (Macintosh; Intel Mac OS X 10_15_7) AppleWebKit/605.1.15 (KHTML, like Gecko) Version/16.3 Safari/605.1.15","Macintosh","Safari","16.3","OS X","10_15_7","null","en-US,en;q=0.9","true","80592","","","","instructions/instructions.html","","","","","","","","",""
"","","","","","external-html","10","168680","0.0-10.0","27","1","2023-10-23 04:04:52","a725c3012b74bf33a1020a98cb69c237","189.130.99.142","Mozilla/5.0 (Macintosh; Intel Mac OS X 10_15_7) AppleWebKit/605.1.15 (KHTML, like Gecko) Version/16.3 Safari/605.1.15","Macintosh","Safari","16.3","OS X","10_15_7","null","en-US,en;q=0.9","true","60472","","","","instructions/animation.html","","","","","","","","",""
"","","","","","html-keyboard-response","11","171552","0.0-11.0-0.0","27","1","2023-10-23 04:04:52","a725c3012b74bf33a1020a98cb69c237","189.130.99.142","Mozilla/5.0 (Macintosh; Intel Mac OS X 10_15_7) AppleWebKit/605.1.15 (KHTML, like Gecko) Version/16.3 Safari/605.1.15","Macintosh","Safari","16.3","OS X","10_15_7","null","en-US,en;q=0.9","true","null","<div style=""font-size:100px;"">X</div>","null","","","fixation","","","","","","","",""
"","","","","","audio-keyboard-response","12","172703","0.0-11.0-1.0","27","1","2023-10-23 04:04:52","a725c3012b74bf33a1020a98cb69c237","189.130.99.142","Mozilla/5.0 (Macintosh; Intel Mac OS X 10_15_7) AppleWebKit/605.1.15 (KHTML, like Gecko) Version/16.3 Safari/605.1.15","Macintosh","Safari","16.3","OS X","10_15_7","null","en-US,en;q=0.9","true","null","tones/880hz_short.mp3","null","","","tone_number_task","1000","31","tones/880hz_short.mp3","1150","100","null","null",""
"","","","","","html-keyboard-response","13","172885","0.0-11.0-4.0-0.0","27","1","2023-10-23 04:04:52","a725c3012b74bf33a1020a98cb69c237","189.130.99.142","Mozilla/5.0 (Macintosh; Intel Mac OS X 10_15_7) AppleWebKit/605.1.15 (KHTML, like Gecko) Version/16.3 Safari/605.1.15","Macintosh","Safari","16.3","OS X","10_15_7","null","en-US,en;q=0.9","true","180","tones/880hz_short.mp3","s","","","empty_block","","31","","","","null","null",""
"","","","","","html-keyboard-response","14","174648","0.0-11.0-4.0-1.0","27","1","2023-10-23 04:04:52","a725c3012b74bf33a1020a98cb69c237","189.130.99.142","Mozilla/5.0 (Macintosh; Intel Mac OS X 10_15_7) AppleWebKit/605.1.15 (KHTML, like Gecko) Version/16.3 Safari/605.1.15","Macintosh","Safari","16.3","OS X","10_15_7","null","en-US,en;q=0.9","true","1763","tones/880hz_short.mp3","j","","","empty_block","","31","","","","null","null",""
"","","","","","html-keyboard-response","15","177520","0.0-13.0-0.0","27","1","2023-10-23 04:04:52","a725c3012b74bf33a1020a98cb69c237","189.130.99.142","Mozilla/5.0 (Macintosh; Intel Mac OS X 10_15_7) AppleWebKit/605.1.15 (KHTML, like Gecko) Version/16.3 Safari/605.1.15","Macintosh","Safari","16.3","OS X","10_15_7","null","en-US,en;q=0.9","true","null","<div style=""font-size:100px;"">X</div>","null","","","fixation","","","","","","","",""
"","","","","","audio-keyboard-response","16","178172","0.0-13.0-1.0","27","1","2023-10-23 04:04:52","a725c3012b74bf33a1020a98cb69c237","189.130.99.142","Mozilla/5.0 (Macintosh; Intel Mac OS X 10_15_7) AppleWebKit/605.1.15 (KHTML, like Gecko) Version/16.3 Safari/605.1.15","Macintosh","Safari","16.3","OS X","10_15_7","null","en-US,en;q=0.9","true","null","tones/880hz_short.mp3","null","","","tone_number_task","500","30","tones/880hz_short.mp3","650","100","null","null",""
"","","","","","html-keyboard-response","17","178772","0.0-13.0-4.0-0.0","27","1","2023-10-23 04:04:52","a725c3012b74bf33a1020a98cb69c237","189.130.99.142","Mozilla/5.0 (Macintosh; Intel Mac OS X 10_15_7) AppleWebKit/605.1.15 (KHTML, like Gecko) Version/16.3 Safari/605.1.15","Macintosh","Safari","16.3","OS X","10_15_7","null","en-US,en;q=0.9","true","598","tones/880hz_short.mp3","s","","","empty_block","","30","","","","null","null",""
"","","","","","html-keyboard-response","18","188774","0.0-13.0-4.0-1.0","27","1","2023-10-23 04:04:52","a725c3012b74bf33a1020a98cb69c237","189.130.99.142","Mozilla/5.0 (Macintosh; Intel Mac OS X 10_15_7) AppleWebKit/605.1.15 (KHTML, like Gecko) Version/16.3 Safari/605.1.15","Macintosh","Safari","16.3","OS X","10_15_7","null","en-US,en;q=0.9","true","null","tones/880hz_short.mp3","null","","","empty_block","","30","","","","null","null",""
"","","","","","html-keyboard-response","19","191646","0.0-15.0-0.0","27","1","2023-10-23 04:04:52","a725c3012b74bf33a1020a98cb69c237","189.130.99.142","Mozilla/5.0 (Macintosh; Intel Mac OS X 10_15_7) AppleWebKit/605.1.15 (KHTML, like Gecko) Version/16.3 Safari/605.1.15","Macintosh","Safari","16.3","OS X","10_15_7","null","en-US,en;q=0.9","true","null","<div style=""font-size:100px;"">X</div>","null","","","fixation","","","","","","","",""
"","","","","","audio-keyboard-response","20","191948","0.0-15.0-1.0","27","1","2023-10-23 04:04:52","a725c3012b74bf33a1020a98cb69c237","189.130.99.142","Mozilla/5.0 (Macintosh; Intel Mac OS X 10_15_7) AppleWebKit/605.1.15 (KHTML, like Gecko) Version/16.3 Safari/605.1.15","Macintosh","Safari","16.3","OS X","10_15_7","null","en-US,en;q=0.9","true","null","tones/880hz_short.mp3","null","","","tone_number_task","150","47","tones/880hz_short.mp3","300","100","null","null",""
"","","","","","html-keyboard-response","21","194615","0.0-15.0-4.0-0.0","27","1","2023-10-23 04:04:52","a725c3012b74bf33a1020a98cb69c237","189.130.99.142","Mozilla/5.0 (Macintosh; Intel Mac OS X 10_15_7) AppleWebKit/605.1.15 (KHTML, like Gecko) Version/16.3 Safari/605.1.15","Macintosh","Safari","16.3","OS X","10_15_7","null","en-US,en;q=0.9","true","2665","tones/880hz_short.mp3","s","","","empty_block","","47","","","","null","null",""
"","","","","","html-keyboard-response","22","194832","0.0-15.0-4.0-1.0","27","1","2023-10-23 04:04:52","a725c3012b74bf33a1020a98cb69c237","189.130.99.142","Mozilla/5.0 (Macintosh; Intel Mac OS X 10_15_7) AppleWebKit/605.1.15 (KHTML, like Gecko) Version/16.3 Safari/605.1.15","Macintosh","Safari","16.3","OS X","10_15_7","null","en-US,en;q=0.9","true","216","tones/880hz_short.mp3","k","","","empty_block","","47","","","","null","null",""
"","","","","","html-keyboard-response","23","197704","0.0-17.0-0.0","27","1","2023-10-23 04:04:52","a725c3012b74bf33a1020a98cb69c237","189.130.99.142","Mozilla/5.0 (Macintosh; Intel Mac OS X 10_15_7) AppleWebKit/605.1.15 (KHTML, like Gecko) Version/16.3 Safari/605.1.15","Macintosh","Safari","16.3","OS X","10_15_7","null","en-US,en;q=0.9","true","null","<div style=""font-size:100px;"">X</div>","null","","","fixation","","","","","","","",""
"","","","","","audio-keyboard-response","24","197906","0.0-17.0-1.0","27","1","2023-10-23 04:04:52","a725c3012b74bf33a1020a98cb69c237","189.130.99.142","Mozilla/5.0 (Macintosh; Intel Mac OS X 10_15_7) AppleWebKit/605.1.15 (KHTML, like Gecko) Version/16.3 Safari/605.1.15","Macintosh","Safari","16.3","OS X","10_15_7","null","en-US,en;q=0.9","true","null","tones/440hz_short.mp3","null","","","tone_number_task","50","65","tones/440hz_short.mp3","200","100","null","null",""
"","","","","","html-keyboard-response","25","198678","0.0-17.0-4.0-0.0","27","1","2023-10-23 04:04:52","a725c3012b74bf33a1020a98cb69c237","189.130.99.142","Mozilla/5.0 (Macintosh; Intel Mac OS X 10_15_7) AppleWebKit/605.1.15 (KHTML, like Gecko) Version/16.3 Safari/605.1.15","Macintosh","Safari","16.3","OS X","10_15_7","null","en-US,en;q=0.9","true","771","tones/440hz_short.mp3","k","","","empty_block","","65","","","","null","null",""
"","","","","","html-keyboard-response","26","199656","0.0-17.0-4.0-1.0","27","1","2023-10-23 04:04:52","a725c3012b74bf33a1020a98cb69c237","189.130.99.142","Mozilla/5.0 (Macintosh; Intel Mac OS X 10_15_7) AppleWebKit/605.1.15 (KHTML, like Gecko) Version/16.3 Safari/605.1.15","Macintosh","Safari","16.3","OS X","10_15_7","null","en-US,en;q=0.9","true","977","tones/440hz_short.mp3","s","","","empty_block","","65","","","","null","null",""
"","","","","","html-button-response","27","208141","0.0-17.0-6.0-0.0","27","1","2023-10-23 04:04:52","a725c3012b74bf33a1020a98cb69c237","189.130.99.142","Mozilla/5.0 (Macintosh; Intel Mac OS X 10_15_7) AppleWebKit/605.1.15 (KHTML, like Gecko) Version/16.3 Safari/605.1.15","Macintosh","Safari","16.3","OS X","10_15_7","null","en-US,en;q=0.9","true","8484","
  '<p style=""font-size:24px; color:red;"">Incorrecto</p><p> Respondiste alguno de los estímulos de manera incorrecta.</p><p>Por favor, repasá las instrucciones y seguimos desde donde nos quedamos. </p>
  ","0","","","","","","","","","","",""
"","","","","","external-html","28","285102","0.0-17.0-6.0-1.0","27","1","2023-10-23 04:04:52","a725c3012b74bf33a1020a98cb69c237","189.130.99.142","Mozilla/5.0 (Macintosh; Intel Mac OS X 10_15_7) AppleWebKit/605.1.15 (KHTML, like Gecko) Version/16.3 Safari/605.1.15","Macintosh","Safari","16.3","OS X","10_15_7","null","en-US,en;q=0.9","true","76600","","","","instructions/instructions_B.html","","","","","","","","",""
"","","","","","html-keyboard-response","29","287974","0.0-17.1-0.1","27","1","2023-10-23 04:04:52","a725c3012b74bf33a1020a98cb69c237","189.130.99.142","Mozilla/5.0 (Macintosh; Intel Mac OS X 10_15_7) AppleWebKit/605.1.15 (KHTML, like Gecko) Version/16.3 Safari/605.1.15","Macintosh","Safari","16.3","OS X","10_15_7","null","en-US,en;q=0.9","true","null","<div style=""font-size:100px;"">X</div>","null","","","fixation","","","","","","","",""
"","","","","","audio-keyboard-response","30","288175","0.0-17.1-1.1","27","1","2023-10-23 04:04:52","a725c3012b74bf33a1020a98cb69c237","189.130.99.142","Mozilla/5.0 (Macintosh; Intel Mac OS X 10_15_7) AppleWebKit/605.1.15 (KHTML, like Gecko) Version/16.3 Safari/605.1.15","Macintosh","Safari","16.3","OS X","10_15_7","null","en-US,en;q=0.9","true","null","tones/440hz_short.mp3","null","","","tone_number_task","50","65","tones/440hz_short.mp3","200","100","null","null",""
"","","","","","html-keyboard-response","31","288717","0.0-17.1-4.1-0.1","27","1","2023-10-23 04:04:52","a725c3012b74bf33a1020a98cb69c237","189.130.99.142","Mozilla/5.0 (Macintosh; Intel Mac OS X 10_15_7) AppleWebKit/605.1.15 (KHTML, like Gecko) Version/16.3 Safari/605.1.15","Macintosh","Safari","16.3","OS X","10_15_7","null","en-US,en;q=0.9","true","541","tones/440hz_short.mp3","s","","","empty_block","","65","","","","null","null",""
"","","","","","html-keyboard-response","32","296633","0.0-17.1-4.1-1.1","27","1","2023-10-23 04:04:52","a725c3012b74bf33a1020a98cb69c237","189.130.99.142","Mozilla/5.0 (Macintosh; Intel Mac OS X 10_15_7) AppleWebKit/605.1.15 (KHTML, like Gecko) Version/16.3 Safari/605.1.15","Macintosh","Safari","16.3","OS X","10_15_7","null","en-US,en;q=0.9","true","7915","tones/440hz_short.mp3","j","","","empty_block","","65","","","","null","null",""
"","","","","","html-button-response","33","299427","0.0-17.1-6.1-0.1","27","1","2023-10-23 04:04:52","a725c3012b74bf33a1020a98cb69c237","189.130.99.142","Mozilla/5.0 (Macintosh; Intel Mac OS X 10_15_7) AppleWebKit/605.1.15 (KHTML, like Gecko) Version/16.3 Safari/605.1.15","Macintosh","Safari","16.3","OS X","10_15_7","null","en-US,en;q=0.9","true","2792","
  '<p style=""font-size:24px; color:red;"">Incorrecto</p><p> Respondiste alguno de los estímulos de manera incorrecta.</p><p>Por favor, repasá las instrucciones y seguimos desde donde nos quedamos. </p>
  ","0","","","","","","","","","","",""
"","","","","","external-html","34","307891","0.0-17.1-6.1-1.1","27","1","2023-10-23 04:04:52","a725c3012b74bf33a1020a98cb69c237","189.130.99.142","Mozilla/5.0 (Macintosh; Intel Mac OS X 10_15_7) AppleWebKit/605.1.15 (KHTML, like Gecko) Version/16.3 Safari/605.1.15","Macintosh","Safari","16.3","OS X","10_15_7","null","en-US,en;q=0.9","true","8210","","","","instructions/instructions_B.html","","","","","","","","",""
"","","","","","html-keyboard-response","35","310763","0.0-17.2-0.2","27","1","2023-10-23 04:04:52","a725c3012b74bf33a1020a98cb69c237","189.130.99.142","Mozilla/5.0 (Macintosh; Intel Mac OS X 10_15_7) AppleWebKit/605.1.15 (KHTML, like Gecko) Version/16.3 Safari/605.1.15","Macintosh","Safari","16.3","OS X","10_15_7","null","en-US,en;q=0.9","true","null","<div style=""font-size:100px;"">X</div>","null","","","fixation","","","","","","","",""
"","","","","","audio-keyboard-response","36","310965","0.0-17.2-1.2","27","1","2023-10-23 04:04:52","a725c3012b74bf33a1020a98cb69c237","189.130.99.142","Mozilla/5.0 (Macintosh; Intel Mac OS X 10_15_7) AppleWebKit/605.1.15 (KHTML, like Gecko) Version/16.3 Safari/605.1.15","Macintosh","Safari","16.3","OS X","10_15_7","null","en-US,en;q=0.9","true","null","tones/440hz_short.mp3","null","","","tone_number_task","50","65","tones/440hz_short.mp3","200","100","null","null",""
"","","","","","html-keyboard-response","37","312461","0.0-17.2-4.2-0.2","27","1","2023-10-23 04:04:52","a725c3012b74bf33a1020a98cb69c237","189.130.99.142","Mozilla/5.0 (Macintosh; Intel Mac OS X 10_15_7) AppleWebKit/605.1.15 (KHTML, like Gecko) Version/16.3 Safari/605.1.15","Macintosh","Safari","16.3","OS X","10_15_7","null","en-US,en;q=0.9","true","1494","tones/440hz_short.mp3","s","","","empty_block","","65","","","","null","null",""
"","","","","","html-keyboard-response","38","313057","0.0-17.2-4.2-1.2","27","1","2023-10-23 04:04:52","a725c3012b74bf33a1020a98cb69c237","189.130.99.142","Mozilla/5.0 (Macintosh; Intel Mac OS X 10_15_7) AppleWebKit/605.1.15 (KHTML, like Gecko) Version/16.3 Safari/605.1.15","Macintosh","Safari","16.3","OS X","10_15_7","null","en-US,en;q=0.9","true","595","tones/440hz_short.mp3","k","","","empty_block","","65","","","","null","null",""
"","","","","","html-button-response","39","315990","0.0-17.2-6.2-0.2","27","1","2023-10-23 04:04:52","a725c3012b74bf33a1020a98cb69c237","189.130.99.142","Mozilla/5.0 (Macintosh; Intel Mac OS X 10_15_7) AppleWebKit/605.1.15 (KHTML, like Gecko) Version/16.3 Safari/605.1.15","Macintosh","Safari","16.3","OS X","10_15_7","null","en-US,en;q=0.9","true","2932","
  '<p style=""font-size:24px; color:red;"">Incorrecto</p><p> Respondiste alguno de los estímulos de manera incorrecta.</p><p>Por favor, repasá las instrucciones y seguimos desde donde nos quedamos. </p>
  ","0","","","","","","","","","","",""
"","","","","","external-html","40","331947","0.0-17.2-6.2-1.2","27","1","2023-10-23 04:04:52","a725c3012b74bf33a1020a98cb69c237","189.130.99.142","Mozilla/5.0 (Macintosh; Intel Mac OS X 10_15_7) AppleWebKit/605.1.15 (KHTML, like Gecko) Version/16.3 Safari/605.1.15","Macintosh","Safari","16.3","OS X","10_15_7","null","en-US,en;q=0.9","true","15713","","","","instructions/instructions_B.html","","","","","","","","",""
"","","","","","html-keyboard-response","41","334819","0.0-17.3-0.3","27","1","2023-10-23 04:04:52","a725c3012b74bf33a1020a98cb69c237","189.130.99.142","Mozilla/5.0 (Macintosh; Intel Mac OS X 10_15_7) AppleWebKit/605.1.15 (KHTML, like Gecko) Version/16.3 Safari/605.1.15","Macintosh","Safari","16.3","OS X","10_15_7","null","en-US,en;q=0.9","true","null","<div style=""font-size:100px;"">X</div>","null","","","fixation","","","","","","","",""
"","","","","","audio-keyboard-response","42","335021","0.0-17.3-1.3","27","1","2023-10-23 04:04:52","a725c3012b74bf33a1020a98cb69c237","189.130.99.142","Mozilla/5.0 (Macintosh; Intel Mac OS X 10_15_7) AppleWebKit/605.1.15 (KHTML, like Gecko) Version/16.3 Safari/605.1.15","Macintosh","Safari","16.3","OS X","10_15_7","null","en-US,en;q=0.9","true","null","tones/440hz_short.mp3","null","","","tone_number_task","50","65","tones/440hz_short.mp3","200","100","null","null",""
"","","","","","html-keyboard-response","43","335485","0.0-17.3-4.3-0.3","27","1","2023-10-23 04:04:52","a725c3012b74bf33a1020a98cb69c237","189.130.99.142","Mozilla/5.0 (Macintosh; Intel Mac OS X 10_15_7) AppleWebKit/605.1.15 (KHTML, like Gecko) Version/16.3 Safari/605.1.15","Macintosh","Safari","16.3","OS X","10_15_7","null","en-US,en;q=0.9","true","463","tones/440hz_short.mp3","s","","","empty_block","","65","","","","null","null",""
"","","","","","html-keyboard-response","44","335800","0.0-17.3-4.3-1.3","27","1","2023-10-23 04:04:52","a725c3012b74bf33a1020a98cb69c237","189.130.99.142","Mozilla/5.0 (Macintosh; Intel Mac OS X 10_15_7) AppleWebKit/605.1.15 (KHTML, like Gecko) Version/16.3 Safari/605.1.15","Macintosh","Safari","16.3","OS X","10_15_7","null","en-US,en;q=0.9","true","313","tones/440hz_short.mp3","k","","","empty_block","","65","","","","null","null",""
"","","","","","html-button-response","45","342204","0.0-17.3-6.3-0.3","27","1","2023-10-23 04:04:52","a725c3012b74bf33a1020a98cb69c237","189.130.99.142","Mozilla/5.0 (Macintosh; Intel Mac OS X 10_15_7) AppleWebKit/605.1.15 (KHTML, like Gecko) Version/16.3 Safari/605.1.15","Macintosh","Safari","16.3","OS X","10_15_7","null","en-US,en;q=0.9","true","6402","
  '<p style=""font-size:24px; color:red;"">Incorrecto</p><p> Respondiste alguno de los estímulos de manera incorrecta.</p><p>Por favor, repasá las instrucciones y seguimos desde donde nos quedamos. </p>
  ","0","","","","","","","","","","",""
"","","","","","external-html","46","359940","0.0-17.3-6.3-1.3","27","1","2023-10-23 04:04:52","a725c3012b74bf33a1020a98cb69c237","189.130.99.142","Mozilla/5.0 (Macintosh; Intel Mac OS X 10_15_7) AppleWebKit/605.1.15 (KHTML, like Gecko) Version/16.3 Safari/605.1.15","Macintosh","Safari","16.3","OS X","10_15_7","null","en-US,en;q=0.9","true","17488","","","","instructions/instructions_B.html","","","","","","","","",""
"","","","","","html-keyboard-response","47","362811","0.0-17.4-0.4","27","1","2023-10-23 04:04:52","a725c3012b74bf33a1020a98cb69c237","189.130.99.142","Mozilla/5.0 (Macintosh; Intel Mac OS X 10_15_7) AppleWebKit/605.1.15 (KHTML, like Gecko) Version/16.3 Safari/605.1.15","Macintosh","Safari","16.3","OS X","10_15_7","null","en-US,en;q=0.9","true","null","<div style=""font-size:100px;"">X</div>","null","","","fixation","","","","","","","",""
"","","","","","audio-keyboard-response","48","363014","0.0-17.4-1.4","27","1","2023-10-23 04:04:52","a725c3012b74bf33a1020a98cb69c237","189.130.99.142","Mozilla/5.0 (Macintosh; Intel Mac OS X 10_15_7) AppleWebKit/605.1.15 (KHTML, like Gecko) Version/16.3 Safari/605.1.15","Macintosh","Safari","16.3","OS X","10_15_7","null","en-US,en;q=0.9","true","null","tones/440hz_short.mp3","null","","","tone_number_task","50","65","tones/440hz_short.mp3","200","100","null","null",""
"","","","","","html-keyboard-response","49","363442","0.0-17.4-4.4-0.4","27","1","2023-10-23 04:04:52","a725c3012b74bf33a1020a98cb69c237","189.130.99.142","Mozilla/5.0 (Macintosh; Intel Mac OS X 10_15_7) AppleWebKit/605.1.15 (KHTML, like Gecko) Version/16.3 Safari/605.1.15","Macintosh","Safari","16.3","OS X","10_15_7","null","en-US,en;q=0.9","true","427","tones/440hz_short.mp3","a","","","empty_block","","65","","","","null","null",""
"","","","","","html-keyboard-response","50","363764","0.0-17.4-4.4-1.4","27","1","2023-10-23 04:04:52","a725c3012b74bf33a1020a98cb69c237","189.130.99.142","Mozilla/5.0 (Macintosh; Intel Mac OS X 10_15_7) AppleWebKit/605.1.15 (KHTML, like Gecko) Version/16.3 Safari/605.1.15","Macintosh","Safari","16.3","OS X","10_15_7","null","en-US,en;q=0.9","true","321","tones/440hz_short.mp3","k","","","empty_block","","65","","","","null","null",""
"","","","","","html-button-response","51","373362","0.0-19.0","27","1","2023-10-23 04:04:52","a725c3012b74bf33a1020a98cb69c237","189.130.99.142","Mozilla/5.0 (Macintosh; Intel Mac OS X 10_15_7) AppleWebKit/605.1.15 (KHTML, like Gecko) Version/16.3 Safari/605.1.15","Macintosh","Safari","16.3","OS X","10_15_7","null","en-US,en;q=0.9","true","9596","
  <h1> Muy bien </h1>
  <p> Ahora, en vez de ser presentados en dígitos, los números vendrán escritos en palabras. </p>
  <p> Por ejemplo, en vez de 44 te aparecerá ""cuarenta y cuatro"". </p>
  ","0","","","","","","","","","","",""
"","","","","","html-keyboard-response","52","376232","0.0-20.0-0.0","27","1","2023-10-23 04:04:52","a725c3012b74bf33a1020a98cb69c237","189.130.99.142","Mozilla/5.0 (Macintosh; Intel Mac OS X 10_15_7) AppleWebKit/605.1.15 (KHTML, like Gecko) Version/16.3 Safari/605.1.15","Macintosh","Safari","16.3","OS X","10_15_7","null","en-US,en;q=0.9","true","null","<div style=""font-size:100px;"">X</div>","null","","","fixation","","","","","","","",""
"","","","","","audio-keyboard-response","53","377216","0.0-20.0-1.0","27","1","2023-10-23 04:04:52","a725c3012b74bf33a1020a98cb69c237","189.130.99.142","Mozilla/5.0 (Macintosh; Intel Mac OS X 10_15_7) AppleWebKit/605.1.15 (KHTML, like Gecko) Version/16.3 Safari/605.1.15","Macintosh","Safari","16.3","OS X","10_15_7","null","en-US,en;q=0.9","true","981","tones/880hz_short.mp3","s","","","tone_number_task","1000","cincuenta y nueve","tones/880hz_short.mp3","1150","60","null","null",""
"","","","","","html-keyboard-response","54","377237","0.0-20.0-2.0-0.0","27","1","2023-10-23 04:04:52","a725c3012b74bf33a1020a98cb69c237","189.130.99.142","Mozilla/5.0 (Macintosh; Intel Mac OS X 10_15_7) AppleWebKit/605.1.15 (KHTML, like Gecko) Version/16.3 Safari/605.1.15","Macintosh","Safari","16.3","OS X","10_15_7","null","en-US,en;q=0.9","true","null","","null","","","delay_block","","","","","","null","null",""
"","","","","","html-keyboard-response","55","377389","0.0-20.0-2.0-1.0","27","1","2023-10-23 04:04:52","a725c3012b74bf33a1020a98cb69c237","189.130.99.142","Mozilla/5.0 (Macintosh; Intel Mac OS X 10_15_7) AppleWebKit/605.1.15 (KHTML, like Gecko) Version/16.3 Safari/605.1.15","Macintosh","Safari","16.3","OS X","10_15_7","null","en-US,en;q=0.9","true","null","<p id=""stimulus"" style=""font-size:60px;"">cincuenta y nueve</p>","null","","","tone_number_task_remaining_before_delay","","cincuenta y nueve","","169","60","null","null",""
"","","","","","html-keyboard-response","56","387393","0.0-20.0-5.0-0.0","27","1","2023-10-23 04:04:52","a725c3012b74bf33a1020a98cb69c237","189.130.99.142","Mozilla/5.0 (Macintosh; Intel Mac OS X 10_15_7) AppleWebKit/605.1.15 (KHTML, like Gecko) Version/16.3 Safari/605.1.15","Macintosh","Safari","16.3","OS X","10_15_7","null","en-US,en;q=0.9","true","null","<p id=""stimulus"" style=""font-size:60px;"">cincuenta y nueve</p>","null","","","empty_block","","cincuenta y nueve","","","","null","null",""
"","","","","","html-button-response","57","405908","0.0-22.0","27","1","2023-10-23 04:04:52","a725c3012b74bf33a1020a98cb69c237","189.130.99.142","Mozilla/5.0 (Macintosh; Intel Mac OS X 10_15_7) AppleWebKit/605.1.15 (KHTML, like Gecko) Version/16.3 Safari/605.1.15","Macintosh","Safari","16.3","OS X","10_15_7","null","en-US,en;q=0.9","true","18513","
  <h1> Fin del Entrenamiento </h1>
  <p> ¡Felicitaciones, terminaste el entrenamiento! Ahora vamos a comenzar con el experimento. </p>
  <p> Es importante tener en cuenta que consta de cuatro bloques.</p>
  <p> Podés aprovechar los momentos entre bloques para tomar un breve descanso o tomar agua entre cada uno</p>
  <p> Recordá que tenés que responder lo más rápido que puedas, pero sin equivocarte. </p>
  ","0","","","","","","","","","","",""
"","","","","","external-html","58","421506","0.0-23.0","27","1","2023-10-23 04:04:52","a725c3012b74bf33a1020a98cb69c237","189.130.99.142","Mozilla/5.0 (Macintosh; Intel Mac OS X 10_15_7) AppleWebKit/605.1.15 (KHTML, like Gecko) Version/16.3 Safari/605.1.15","Macintosh","Safari","16.3","OS X","10_15_7","null","en-US,en;q=0.9","true","15262","","","","instructions/instructions_digits_first.html","","","","","","","","",""
"","","","","","call-function","59","421507","0.0-24.0","27","1","2023-10-23 04:04:52","a725c3012b74bf33a1020a98cb69c237","189.130.99.142","Mozilla/5.0 (Macintosh; Intel Mac OS X 10_15_7) AppleWebKit/605.1.15 (KHTML, like Gecko) Version/16.3 Safari/605.1.15","Macintosh","Safari","16.3","OS X","10_15_7","null","en-US,en;q=0.9","true","","","","","","","","","","","","","",""
"","","","","","html-keyboard-response","60","424378","0.0-25.0","27","1","2023-10-23 04:04:52","a725c3012b74bf33a1020a98cb69c237","189.130.99.142","Mozilla/5.0 (Macintosh; Intel Mac OS X 10_15_7) AppleWebKit/605.1.15 (KHTML, like Gecko) Version/16.3 Safari/605.1.15","Macintosh","Safari","16.3","OS X","10_15_7","null","en-US,en;q=0.9","true","null","<div style=""font-size:100px;"">X</div>","null","","","fixation","","","","","","","",""
"","","","","","audio-keyboard-response","61","424530","0.0-26.0","27","1","2023-10-23 04:04:52","a725c3012b74bf33a1020a98cb69c237","189.130.99.142","Mozilla/5.0 (Macintosh; Intel Mac OS X 10_15_7) AppleWebKit/605.1.15 (KHTML, like Gecko) Version/16.3 Safari/605.1.15","Macintosh","Safari","16.3","OS X","10_15_7","null","en-US,en;q=0.9","true","null","tones/440hz_short.mp3","null","","","tone_number_task","0","61","tones/440hz_short.mp3","150","100","0","0",""
"","","","","","html-keyboard-response","62","425732","0.0-29.0-0.0","27","1","2023-10-23 04:04:52","a725c3012b74bf33a1020a98cb69c237","189.130.99.142","Mozilla/5.0 (Macintosh; Intel Mac OS X 10_15_7) AppleWebKit/605.1.15 (KHTML, like Gecko) Version/16.3 Safari/605.1.15","Macintosh","Safari","16.3","OS X","10_15_7","null","en-US,en;q=0.9","true","null","tones/440hz_short.mp3","null","","","empty_block","","61","","","","0","0",""
"","","","","","html-keyboard-response","63","425843","0.0-29.0-1.0","27","1","2023-10-23 04:04:52","a725c3012b74bf33a1020a98cb69c237","189.130.99.142","Mozilla/5.0 (Macintosh; Intel Mac OS X 10_15_7) AppleWebKit/605.1.15 (KHTML, like Gecko) Version/16.3 Safari/605.1.15","Macintosh","Safari","16.3","OS X","10_15_7","null","en-US,en;q=0.9","true","108","tones/440hz_short.mp3","s","","","empty_block","","61","","","","0","0",""
"","","","","","html-keyboard-response","64","428714","0.0-31.0","27","1","2023-10-23 04:04:52","a725c3012b74bf33a1020a98cb69c237","189.130.99.142","Mozilla/5.0 (Macintosh; Intel Mac OS X 10_15_7) AppleWebKit/605.1.15 (KHTML, like Gecko) Version/16.3 Safari/605.1.15","Macintosh","Safari","16.3","OS X","10_15_7","null","en-US,en;q=0.9","true","null","<div style=""font-size:100px;"">X</div>","null","","","fixation","","","","","","","",""
"","","","","","audio-keyboard-response","65","428969","0.0-32.0","27","1","2023-10-23 04:04:52","a725c3012b74bf33a1020a98cb69c237","189.130.99.142","Mozilla/5.0 (Macintosh; Intel Mac OS X 10_15_7) AppleWebKit/605.1.15 (KHTML, like Gecko) Version/16.3 Safari/605.1.15","Macintosh","Safari","16.3","OS X","10_15_7","null","en-US,en;q=0.9","true","null","tones/440hz_short.mp3","null","","","tone_number_task","102.5","55","tones/440hz_short.mp3","252.5","100","0","1",""
"","","","","","html-keyboard-response","66","429224","0.0-35.0-0.0","27","1","2023-10-23 04:04:52","a725c3012b74bf33a1020a98cb69c237","189.130.99.142","Mozilla/5.0 (Macintosh; Intel Mac OS X 10_15_7) AppleWebKit/605.1.15 (KHTML, like Gecko) Version/16.3 Safari/605.1.15","Macintosh","Safari","16.3","OS X","10_15_7","null","en-US,en;q=0.9","true","253","tones/440hz_short.mp3","s","","","empty_block","","55","","","","0","1",""
"","","","","","html-keyboard-response","67","429542","0.0-35.0-1.0","27","1","2023-10-23 04:04:52","a725c3012b74bf33a1020a98cb69c237","189.130.99.142","Mozilla/5.0 (Macintosh; Intel Mac OS X 10_15_7) AppleWebKit/605.1.15 (KHTML, like Gecko) Version/16.3 Safari/605.1.15","Macintosh","Safari","16.3","OS X","10_15_7","null","en-US,en;q=0.9","true","316","tones/440hz_short.mp3","k","","","empty_block","","55","","","","0","1",""
"","","","","","html-keyboard-response","68","432417","0.0-37.0","27","1","2023-10-23 04:04:52","a725c3012b74bf33a1020a98cb69c237","189.130.99.142","Mozilla/5.0 (Macintosh; Intel Mac OS X 10_15_7) AppleWebKit/605.1.15 (KHTML, like Gecko) Version/16.3 Safari/605.1.15","Macintosh","Safari","16.3","OS X","10_15_7","null","en-US,en;q=0.9","true","null","<div style=""font-size:100px;"">X</div>","null","","","fixation","","","","","","","",""
"","","","","","audio-keyboard-response","69","432672","0.0-38.0","27","1","2023-10-23 04:04:52","a725c3012b74bf33a1020a98cb69c237","189.130.99.142","Mozilla/5.0 (Macintosh; Intel Mac OS X 10_15_7) AppleWebKit/605.1.15 (KHTML, like Gecko) Version/16.3 Safari/605.1.15","Macintosh","Safari","16.3","OS X","10_15_7","null","en-US,en;q=0.9","true","null","tones/440hz_short.mp3","null","","","tone_number_task","102.5","55","tones/440hz_short.mp3","252.5","100","0","2",""
"","","","","","html-keyboard-response","70","432979","0.0-41.0-0.0","27","1","2023-10-23 04:04:52","a725c3012b74bf33a1020a98cb69c237","189.130.99.142","Mozilla/5.0 (Macintosh; Intel Mac OS X 10_15_7) AppleWebKit/605.1.15 (KHTML, like Gecko) Version/16.3 Safari/605.1.15","Macintosh","Safari","16.3","OS X","10_15_7","null","en-US,en;q=0.9","true","305","tones/440hz_short.mp3","s","","","empty_block","","55","","","","0","2",""
"","","","","","html-keyboard-response","71","433275","0.0-41.0-1.0","27","1","2023-10-23 04:04:52","a725c3012b74bf33a1020a98cb69c237","189.130.99.142","Mozilla/5.0 (Macintosh; Intel Mac OS X 10_15_7) AppleWebKit/605.1.15 (KHTML, like Gecko) Version/16.3 Safari/605.1.15","Macintosh","Safari","16.3","OS X","10_15_7","null","en-US,en;q=0.9","true","294","tones/440hz_short.mp3","k","","","empty_block","","55","","","","0","2",""
"","","","","","html-keyboard-response","72","436146","0.0-43.0","27","1","2023-10-23 04:04:52","a725c3012b74bf33a1020a98cb69c237","189.130.99.142","Mozilla/5.0 (Macintosh; Intel Mac OS X 10_15_7) AppleWebKit/605.1.15 (KHTML, like Gecko) Version/16.3 Safari/605.1.15","Macintosh","Safari","16.3","OS X","10_15_7","null","en-US,en;q=0.9","true","null","<div style=""font-size:100px;"">X</div>","null","","","fixation","","","","","","","",""
"","","","","","audio-keyboard-response","73","437324","0.0-44.0","27","1","2023-10-23 04:04:52","a725c3012b74bf33a1020a98cb69c237","189.130.99.142","Mozilla/5.0 (Macintosh; Intel Mac OS X 10_15_7) AppleWebKit/605.1.15 (KHTML, like Gecko) Version/16.3 Safari/605.1.15","Macintosh","Safari","16.3","OS X","10_15_7","null","en-US,en;q=0.9","true","null","tones/880hz_short.mp3","null","","","tone_number_task","1025","49","tones/880hz_short.mp3","1175","100","0","3",""
"","","","","","html-keyboard-response","74","438057","0.0-47.0-0.0","27","1","2023-10-23 04:04:52","a725c3012b74bf33a1020a98cb69c237","189.130.99.142","Mozilla/5.0 (Macintosh; Intel Mac OS X 10_15_7) AppleWebKit/605.1.15 (KHTML, like Gecko) Version/16.3 Safari/605.1.15","Macintosh","Safari","16.3","OS X","10_15_7","null","en-US,en;q=0.9","true","731","tones/880hz_short.mp3","a","","","empty_block","","49","","","","0","3",""
"","","","","","html-keyboard-response","75","439260","0.0-47.0-1.0","27","1","2023-10-23 04:04:52","a725c3012b74bf33a1020a98cb69c237","189.130.99.142","Mozilla/5.0 (Macintosh; Intel Mac OS X 10_15_7) AppleWebKit/605.1.15 (KHTML, like Gecko) Version/16.3 Safari/605.1.15","Macintosh","Safari","16.3","OS X","10_15_7","null","en-US,en;q=0.9","true","null","tones/880hz_short.mp3","null","","","empty_block","","49","","","","0","3",""
"","","","","","html-keyboard-response","76","442131","0.0-49.0","27","1","2023-10-23 04:04:52","a725c3012b74bf33a1020a98cb69c237","189.130.99.142","Mozilla/5.0 (Macintosh; Intel Mac OS X 10_15_7) AppleWebKit/605.1.15 (KHTML, like Gecko) Version/16.3 Safari/605.1.15","Macintosh","Safari","16.3","OS X","10_15_7","null","en-US,en;q=0.9","true","null","<div style=""font-size:100px;"">X</div>","null","","","fixation","","","","","","","",""
"","","","","","audio-keyboard-response","77","442387","0.0-50.0","27","1","2023-10-23 04:04:52","a725c3012b74bf33a1020a98cb69c237","189.130.99.142","Mozilla/5.0 (Macintosh; Intel Mac OS X 10_15_7) AppleWebKit/605.1.15 (KHTML, like Gecko) Version/16.3 Safari/605.1.15","Macintosh","Safari","16.3","OS X","10_15_7","null","en-US,en;q=0.9","true","null","tones/440hz_short.mp3","null","","","tone_number_task","102.5","37","tones/440hz_short.mp3","252.5","100","0","4",""
"","","","","","html-keyboard-response","78","443590","0.0-53.0-0.0","27","1","2023-10-23 04:04:52","a725c3012b74bf33a1020a98cb69c237","189.130.99.142","Mozilla/5.0 (Macintosh; Intel Mac OS X 10_15_7) AppleWebKit/605.1.15 (KHTML, like Gecko) Version/16.3 Safari/605.1.15","Macintosh","Safari","16.3","OS X","10_15_7","null","en-US,en;q=0.9","true","null","tones/440hz_short.mp3","null","","","empty_block","","37","","","","0","4",""
"","","","","","html-keyboard-response","79","444763","0.0-53.0-1.0","27","1","2023-10-23 04:04:52","a725c3012b74bf33a1020a98cb69c237","189.130.99.142","Mozilla/5.0 (Macintosh; Intel Mac OS X 10_15_7) AppleWebKit/605.1.15 (KHTML, like Gecko) Version/16.3 Safari/605.1.15","Macintosh","Safari","16.3","OS X","10_15_7","null","en-US,en;q=0.9","true","1171","tones/440hz_short.mp3","s","","","empty_block","","37","","","","0","4",""
"","","","","","html-keyboard-response","80","447634","0.0-55.0","27","1","2023-10-23 04:04:52","a725c3012b74bf33a1020a98cb69c237","189.130.99.142","Mozilla/5.0 (Macintosh; Intel Mac OS X 10_15_7) AppleWebKit/605.1.15 (KHTML, like Gecko) Version/16.3 Safari/605.1.15","Macintosh","Safari","16.3","OS X","10_15_7","null","en-US,en;q=0.9","true","null","<div style=""font-size:100px;"">X</div>","null","","","fixation","","","","","","","",""
"","","","","","audio-keyboard-response","81","447889","0.0-56.0","27","1","2023-10-23 04:04:52","a725c3012b74bf33a1020a98cb69c237","189.130.99.142","Mozilla/5.0 (Macintosh; Intel Mac OS X 10_15_7) AppleWebKit/605.1.15 (KHTML, like Gecko) Version/16.3 Safari/605.1.15","Macintosh","Safari","16.3","OS X","10_15_7","null","en-US,en;q=0.9","true","null","tones/880hz_short.mp3","null","","","tone_number_task","102.5","46","tones/880hz_short.mp3","252.5","100","0","5",""
"","","","","","html-keyboard-response","82","449093","0.0-59.0-0.0","27","1","2023-10-23 04:04:52","a725c3012b74bf33a1020a98cb69c237","189.130.99.142","Mozilla/5.0 (Macintosh; Intel Mac OS X 10_15_7) AppleWebKit/605.1.15 (KHTML, like Gecko) Version/16.3 Safari/605.1.15","Macintosh","Safari","16.3","OS X","10_15_7","null","en-US,en;q=0.9","true","null","tones/880hz_short.mp3","null","","","empty_block","","46","","","","0","5",""
"","","","","","html-keyboard-response","83","450201","0.0-59.0-1.0","27","1","2023-10-23 04:04:52","a725c3012b74bf33a1020a98cb69c237","189.130.99.142","Mozilla/5.0 (Macintosh; Intel Mac OS X 10_15_7) AppleWebKit/605.1.15 (KHTML, like Gecko) Version/16.3 Safari/605.1.15","Macintosh","Safari","16.3","OS X","10_15_7","null","en-US,en;q=0.9","true","1106","tones/880hz_short.mp3","s","","","empty_block","","46","","","","0","5",""
"","","","","","html-keyboard-response","84","453072","0.0-61.0","27","1","2023-10-23 04:04:52","a725c3012b74bf33a1020a98cb69c237","189.130.99.142","Mozilla/5.0 (Macintosh; Intel Mac OS X 10_15_7) AppleWebKit/605.1.15 (KHTML, like Gecko) Version/16.3 Safari/605.1.15","Macintosh","Safari","16.3","OS X","10_15_7","null","en-US,en;q=0.9","true","null","<div style=""font-size:100px;"">X</div>","null","","","fixation","","","","","","","",""
"","","","","","audio-keyboard-response","85","454217","0.0-62.0","27","1","2023-10-23 04:04:52","a725c3012b74bf33a1020a98cb69c237","189.130.99.142","Mozilla/5.0 (Macintosh; Intel Mac OS X 10_15_7) AppleWebKit/605.1.15 (KHTML, like Gecko) Version/16.3 Safari/605.1.15","Macintosh","Safari","16.3","OS X","10_15_7","null","en-US,en;q=0.9","true","null","tones/880hz_short.mp3","null","","","tone_number_task","992.5","62","tones/880hz_short.mp3","1142.5","100","0","6",""
"","","","","","html-keyboard-response","86","454773","0.0-65.0-0.0","27","1","2023-10-23 04:04:52","a725c3012b74bf33a1020a98cb69c237","189.130.99.142","Mozilla/5.0 (Macintosh; Intel Mac OS X 10_15_7) AppleWebKit/605.1.15 (KHTML, like Gecko) Version/16.3 Safari/605.1.15","Macintosh","Safari","16.3","OS X","10_15_7","null","en-US,en;q=0.9","true","554","tones/880hz_short.mp3","s","","","empty_block","","62","","","","0","6",""
"","","","","","html-keyboard-response","87","455975","0.0-65.0-1.0","27","1","2023-10-23 04:04:52","a725c3012b74bf33a1020a98cb69c237","189.130.99.142","Mozilla/5.0 (Macintosh; Intel Mac OS X 10_15_7) AppleWebKit/605.1.15 (KHTML, like Gecko) Version/16.3 Safari/605.1.15","Macintosh","Safari","16.3","OS X","10_15_7","null","en-US,en;q=0.9","true","null","tones/880hz_short.mp3","null","","","empty_block","","62","","","","0","6",""
"","","","","","html-keyboard-response","88","458847","0.0-67.0","27","1","2023-10-23 04:04:52","a725c3012b74bf33a1020a98cb69c237","189.130.99.142","Mozilla/5.0 (Macintosh; Intel Mac OS X 10_15_7) AppleWebKit/605.1.15 (KHTML, like Gecko) Version/16.3 Safari/605.1.15","Macintosh","Safari","16.3","OS X","10_15_7","null","en-US,en;q=0.9","true","null","<div style=""font-size:100px;"">X</div>","null","","","fixation","","","","","","","",""
"","","","","","audio-keyboard-response","89","459598","0.0-68.0","27","1","2023-10-23 04:04:52","a725c3012b74bf33a1020a98cb69c237","189.130.99.142","Mozilla/5.0 (Macintosh; Intel Mac OS X 10_15_7) AppleWebKit/605.1.15 (KHTML, like Gecko) Version/16.3 Safari/605.1.15","Macintosh","Safari","16.3","OS X","10_15_7","null","en-US,en;q=0.9","true","746","tones/880hz_short.mp3","s","","","tone_number_task","1025","34","tones/880hz_short.mp3","1175","100","0","7",""
"","","","","","html-keyboard-response","90","459879","0.0-69.0-0.0","27","1","2023-10-23 04:04:52","a725c3012b74bf33a1020a98cb69c237","189.130.99.142","Mozilla/5.0 (Macintosh; Intel Mac OS X 10_15_7) AppleWebKit/605.1.15 (KHTML, like Gecko) Version/16.3 Safari/605.1.15","Macintosh","Safari","16.3","OS X","10_15_7","null","en-US,en;q=0.9","true","null","","null","","","delay_block","","","","","","0","7",""
"","","","","","html-keyboard-response","91","460031","0.0-69.0-1.0","27","1","2023-10-23 04:04:52","a725c3012b74bf33a1020a98cb69c237","189.130.99.142","Mozilla/5.0 (Macintosh; Intel Mac OS X 10_15_7) AppleWebKit/605.1.15 (KHTML, like Gecko) Version/16.3 Safari/605.1.15","Macintosh","Safari","16.3","OS X","10_15_7","null","en-US,en;q=0.9","true","null","<p id=""stimulus"" style=""font-size:100px;"">34</p>","null","","","tone_number_task_remaining_before_delay","","34","","429","100","0","7",""
"","","","","","html-keyboard-response","92","461016","0.0-72.0-0.0","27","1","2023-10-23 04:04:52","a725c3012b74bf33a1020a98cb69c237","189.130.99.142","Mozilla/5.0 (Macintosh; Intel Mac OS X 10_15_7) AppleWebKit/605.1.15 (KHTML, like Gecko) Version/16.3 Safari/605.1.15","Macintosh","Safari","16.3","OS X","10_15_7","null","en-US,en;q=0.9","true","984","<p id=""stimulus"" style=""font-size:100px;"">34</p>","j","","","empty_block","","34","","","","0","7",""
"","","","","","html-keyboard-response","93","463887","0.0-73.0","27","1","2023-10-23 04:04:52","a725c3012b74bf33a1020a98cb69c237","189.130.99.142","Mozilla/5.0 (Macintosh; Intel Mac OS X 10_15_7) AppleWebKit/605.1.15 (KHTML, like Gecko) Version/16.3 Safari/605.1.15","Macintosh","Safari","16.3","OS X","10_15_7","null","en-US,en;q=0.9","true","null","<div style=""font-size:100px;"">X</div>","null","","","fixation","","","","","","","",""
"","","","","","audio-keyboard-response","94","465066","0.0-74.0","27","1","2023-10-23 04:04:52","a725c3012b74bf33a1020a98cb69c237","189.130.99.142","Mozilla/5.0 (Macintosh; Intel Mac OS X 10_15_7) AppleWebKit/605.1.15 (KHTML, like Gecko) Version/16.3 Safari/605.1.15","Macintosh","Safari","16.3","OS X","10_15_7","null","en-US,en;q=0.9","true","null","tones/880hz_short.mp3","null","","","tone_number_task","1025","49","tones/880hz_short.mp3","1175","100","0","8",""
"","","","","","html-keyboard-response","95","465255","0.0-77.0-0.0","27","1","2023-10-23 04:04:52","a725c3012b74bf33a1020a98cb69c237","189.130.99.142","Mozilla/5.0 (Macintosh; Intel Mac OS X 10_15_7) AppleWebKit/605.1.15 (KHTML, like Gecko) Version/16.3 Safari/605.1.15","Macintosh","Safari","16.3","OS X","10_15_7","null","en-US,en;q=0.9","true","188","tones/880hz_short.mp3","a","","","empty_block","","49","","","","0","8",""
"","","","","","html-keyboard-response","96","465678","0.0-77.0-1.0","27","1","2023-10-23 04:04:52","a725c3012b74bf33a1020a98cb69c237","189.130.99.142","Mozilla/5.0 (Macintosh; Intel Mac OS X 10_15_7) AppleWebKit/605.1.15 (KHTML, like Gecko) Version/16.3 Safari/605.1.15","Macintosh","Safari","16.3","OS X","10_15_7","null","en-US,en;q=0.9","true","421","tones/880hz_short.mp3","k","","","empty_block","","49","","","","0","8",""
"","","","","","html-keyboard-response","97","468551","0.0-79.0","27","1","2023-10-23 04:04:52","a725c3012b74bf33a1020a98cb69c237","189.130.99.142","Mozilla/5.0 (Macintosh; Intel Mac OS X 10_15_7) AppleWebKit/605.1.15 (KHTML, like Gecko) Version/16.3 Safari/605.1.15","Macintosh","Safari","16.3","OS X","10_15_7","null","en-US,en;q=0.9","true","null","<div style=""font-size:100px;"">X</div>","null","","","fixation","","","","","","","",""
"","","","","","audio-keyboard-response","98","469728","0.0-80.0","27","1","2023-10-23 04:04:52","a725c3012b74bf33a1020a98cb69c237","189.130.99.142","Mozilla/5.0 (Macintosh; Intel Mac OS X 10_15_7) AppleWebKit/605.1.15 (KHTML, like Gecko) Version/16.3 Safari/605.1.15","Macintosh","Safari","16.3","OS X","10_15_7","null","en-US,en;q=0.9","true","null","tones/440hz_short.mp3","null","","","tone_number_task","1025","28","tones/440hz_short.mp3","1175","100","0","9",""
"","","","","","html-keyboard-response","99","470128","0.0-83.0-0.0","27","1","2023-10-23 04:04:52","a725c3012b74bf33a1020a98cb69c237","189.130.99.142","Mozilla/5.0 (Macintosh; Intel Mac OS X 10_15_7) AppleWebKit/605.1.15 (KHTML, like Gecko) Version/16.3 Safari/605.1.15","Macintosh","Safari","16.3","OS X","10_15_7","null","en-US,en;q=0.9","true","398","tones/440hz_short.mp3","a","","","empty_block","","28","","","","0","9",""
"","","","","","html-keyboard-response","100","470491","0.0-83.0-1.0","27","1","2023-10-23 04:04:52","a725c3012b74bf33a1020a98cb69c237","189.130.99.142","Mozilla/5.0 (Macintosh; Intel Mac OS X 10_15_7) AppleWebKit/605.1.15 (KHTML, like Gecko) Version/16.3 Safari/605.1.15","Macintosh","Safari","16.3","OS X","10_15_7","null","en-US,en;q=0.9","true","362","tones/440hz_short.mp3","j","","","empty_block","","28","","","","0","9",""
"","","","","","html-keyboard-response","101","473363","0.0-85.0","27","1","2023-10-23 04:04:52","a725c3012b74bf33a1020a98cb69c237","189.130.99.142","Mozilla/5.0 (Macintosh; Intel Mac OS X 10_15_7) AppleWebKit/605.1.15 (KHTML, like Gecko) Version/16.3 Safari/605.1.15","Macintosh","Safari","16.3","OS X","10_15_7","null","en-US,en;q=0.9","true","null","<div style=""font-size:100px;"">X</div>","null","","","fixation","","","","","","","",""
"","","","","","audio-keyboard-response","102","473974","0.0-86.0","27","1","2023-10-23 04:04:52","a725c3012b74bf33a1020a98cb69c237","189.130.99.142","Mozilla/5.0 (Macintosh; Intel Mac OS X 10_15_7) AppleWebKit/605.1.15 (KHTML, like Gecko) Version/16.3 Safari/605.1.15","Macintosh","Safari","16.3","OS X","10_15_7","null","en-US,en;q=0.9","true","610","tones/880hz_short.mp3","s","","","tone_number_task","992.5","50","tones/880hz_short.mp3","1142.5","100","0","10",""
"","","","","","html-keyboard-response","103","474358","0.0-87.0-0.0","27","1","2023-10-23 04:04:52","a725c3012b74bf33a1020a98cb69c237","189.130.99.142","Mozilla/5.0 (Macintosh; Intel Mac OS X 10_15_7) AppleWebKit/605.1.15 (KHTML, like Gecko) Version/16.3 Safari/605.1.15","Macintosh","Safari","16.3","OS X","10_15_7","null","en-US,en;q=0.9","true","null","","null","","","delay_block","","","","","","0","10",""
"","","","","","html-keyboard-response","104","474511","0.0-87.0-1.0","27","1","2023-10-23 04:04:52","a725c3012b74bf33a1020a98cb69c237","189.130.99.142","Mozilla/5.0 (Macintosh; Intel Mac OS X 10_15_7) AppleWebKit/605.1.15 (KHTML, like Gecko) Version/16.3 Safari/605.1.15","Macintosh","Safari","16.3","OS X","10_15_7","null","en-US,en;q=0.9","true","null","<p id=""stimulus"" style=""font-size:100px;"">50</p>","null","","","tone_number_task_remaining_before_delay","","50","","532.5","100","0","10",""
"","","","","","html-keyboard-response","105","475452","0.0-90.0-0.0","27","1","2023-10-23 04:04:52","a725c3012b74bf33a1020a98cb69c237","189.130.99.142","Mozilla/5.0 (Macintosh; Intel Mac OS X 10_15_7) AppleWebKit/605.1.15 (KHTML, like Gecko) Version/16.3 Safari/605.1.15","Macintosh","Safari","16.3","OS X","10_15_7","null","en-US,en;q=0.9","true","939","<p id=""stimulus"" style=""font-size:100px;"">50</p>","k","","","empty_block","","50","","","","0","10",""
"","","","","","html-keyboard-response","106","478323","0.0-91.0","27","1","2023-10-23 04:04:52","a725c3012b74bf33a1020a98cb69c237","189.130.99.142","Mozilla/5.0 (Macintosh; Intel Mac OS X 10_15_7) AppleWebKit/605.1.15 (KHTML, like Gecko) Version/16.3 Safari/605.1.15","Macintosh","Safari","16.3","OS X","10_15_7","null","en-US,en;q=0.9","true","null","<div style=""font-size:100px;"">X</div>","null","","","fixation","","","","","","","",""
"","","","","","audio-keyboard-response","107","479468","0.0-92.0","27","1","2023-10-23 04:04:52","a725c3012b74bf33a1020a98cb69c237","189.130.99.142","Mozilla/5.0 (Macintosh; Intel Mac OS X 10_15_7) AppleWebKit/605.1.15 (KHTML, like Gecko) Version/16.3 Safari/605.1.15","Macintosh","Safari","16.3","OS X","10_15_7","null","en-US,en;q=0.9","true","null","tones/440hz_short.mp3","null","","","tone_number_task","992.5","49","tones/440hz_short.mp3","1142.5","100","0","11",""
"","","","","","html-keyboard-response","108","479823","0.0-95.0-0.0","27","1","2023-10-23 04:04:52","a725c3012b74bf33a1020a98cb69c237","189.130.99.142","Mozilla/5.0 (Macintosh; Intel Mac OS X 10_15_7) AppleWebKit/605.1.15 (KHTML, like Gecko) Version/16.3 Safari/605.1.15","Macintosh","Safari","16.3","OS X","10_15_7","null","en-US,en;q=0.9","true","353","tones/440hz_short.mp3","a","","","empty_block","","49","","","","0","11",""
"","","","","","html-keyboard-response","109","480240","0.0-95.0-1.0","27","1","2023-10-23 04:04:52","a725c3012b74bf33a1020a98cb69c237","189.130.99.142","Mozilla/5.0 (Macintosh; Intel Mac OS X 10_15_7) AppleWebKit/605.1.15 (KHTML, like Gecko) Version/16.3 Safari/605.1.15","Macintosh","Safari","16.3","OS X","10_15_7","null","en-US,en;q=0.9","true","415","tones/440hz_short.mp3","k","","","empty_block","","49","","","","0","11",""
"","","","","","html-keyboard-response","110","483112","0.0-97.0","27","1","2023-10-23 04:04:52","a725c3012b74bf33a1020a98cb69c237","189.130.99.142","Mozilla/5.0 (Macintosh; Intel Mac OS X 10_15_7) AppleWebKit/605.1.15 (KHTML, like Gecko) Version/16.3 Safari/605.1.15","Macintosh","Safari","16.3","OS X","10_15_7","null","en-US,en;q=0.9","true","null","<div style=""font-size:100px;"">X</div>","null","","","fixation","","","","","","","",""
"","","","","","audio-keyboard-response","111","483368","0.0-98.0","27","1","2023-10-23 04:04:52","a725c3012b74bf33a1020a98cb69c237","189.130.99.142","Mozilla/5.0 (Macintosh; Intel Mac OS X 10_15_7) AppleWebKit/605.1.15 (KHTML, like Gecko) Version/16.3 Safari/605.1.15","Macintosh","Safari","16.3","OS X","10_15_7","null","en-US,en;q=0.9","true","null","tones/880hz_short.mp3","null","","","tone_number_task","102.5","29","tones/880hz_short.mp3","252.5","100","0","12",""
"","","","","","html-keyboard-response","112","484571","0.0-101.0-0.0","27","1","2023-10-23 04:04:52","a725c3012b74bf33a1020a98cb69c237","189.130.99.142","Mozilla/5.0 (Macintosh; Intel Mac OS X 10_15_7) AppleWebKit/605.1.15 (KHTML, like Gecko) Version/16.3 Safari/605.1.15","Macintosh","Safari","16.3","OS X","10_15_7","null","en-US,en;q=0.9","true","null","tones/880hz_short.mp3","null","","","empty_block","","29","","","","0","12",""
"","","","","","html-keyboard-response","113","484887","0.0-101.0-1.0","27","1","2023-10-23 04:04:52","a725c3012b74bf33a1020a98cb69c237","189.130.99.142","Mozilla/5.0 (Macintosh; Intel Mac OS X 10_15_7) AppleWebKit/605.1.15 (KHTML, like Gecko) Version/16.3 Safari/605.1.15","Macintosh","Safari","16.3","OS X","10_15_7","null","en-US,en;q=0.9","true","314","tones/880hz_short.mp3","s","","","empty_block","","29","","","","0","12",""
"","","","","","html-keyboard-response","114","487759","0.0-103.0","27","1","2023-10-23 04:04:52","a725c3012b74bf33a1020a98cb69c237","189.130.99.142","Mozilla/5.0 (Macintosh; Intel Mac OS X 10_15_7) AppleWebKit/605.1.15 (KHTML, like Gecko) Version/16.3 Safari/605.1.15","Macintosh","Safari","16.3","OS X","10_15_7","null","en-US,en;q=0.9","true","null","<div style=""font-size:100px;"">X</div>","null","","","fixation","","","","","","","",""
"","","","","","audio-keyboard-response","115","488938","0.0-104.0","27","1","2023-10-23 04:04:52","a725c3012b74bf33a1020a98cb69c237","189.130.99.142","Mozilla/5.0 (Macintosh; Intel Mac OS X 10_15_7) AppleWebKit/605.1.15 (KHTML, like Gecko) Version/16.3 Safari/605.1.15","Macintosh","Safari","16.3","OS X","10_15_7","null","en-US,en;q=0.9","true","null","tones/440hz_short.mp3","null","","","tone_number_task","1025","30","tones/440hz_short.mp3","1175","100","0","13",""
"","","","","","html-keyboard-response","116","488990","0.0-107.0-0.0","27","1","2023-10-23 04:04:52","a725c3012b74bf33a1020a98cb69c237","189.130.99.142","Mozilla/5.0 (Macintosh; Intel Mac OS X 10_15_7) AppleWebKit/605.1.15 (KHTML, like Gecko) Version/16.3 Safari/605.1.15","Macintosh","Safari","16.3","OS X","10_15_7","null","en-US,en;q=0.9","true","51","tones/440hz_short.mp3","a","","","empty_block","","30","","","","0","13",""
"","","","","","html-keyboard-response","117","489619","0.0-107.0-1.0","27","1","2023-10-23 04:04:52","a725c3012b74bf33a1020a98cb69c237","189.130.99.142","Mozilla/5.0 (Macintosh; Intel Mac OS X 10_15_7) AppleWebKit/605.1.15 (KHTML, like Gecko) Version/16.3 Safari/605.1.15","Macintosh","Safari","16.3","OS X","10_15_7","null","en-US,en;q=0.9","true","628","tones/440hz_short.mp3","j","","","empty_block","","30","","","","0","13",""
"","","","","","html-keyboard-response","118","492490","0.0-109.0","27","1","2023-10-23 04:04:52","a725c3012b74bf33a1020a98cb69c237","189.130.99.142","Mozilla/5.0 (Macintosh; Intel Mac OS X 10_15_7) AppleWebKit/605.1.15 (KHTML, like Gecko) Version/16.3 Safari/605.1.15","Macintosh","Safari","16.3","OS X","10_15_7","null","en-US,en;q=0.9","true","null","<div style=""font-size:100px;"">X</div>","null","","","fixation","","","","","","","",""
"","","","","","audio-keyboard-response","119","493119","0.0-110.0","27","1","2023-10-23 04:04:52","a725c3012b74bf33a1020a98cb69c237","189.130.99.142","Mozilla/5.0 (Macintosh; Intel Mac OS X 10_15_7) AppleWebKit/605.1.15 (KHTML, like Gecko) Version/16.3 Safari/605.1.15","Macintosh","Safari","16.3","OS X","10_15_7","null","en-US,en;q=0.9","true","624","tones/440hz_short.mp3","a","","","tone_number_task","992.5","63","tones/440hz_short.mp3","1142.5","100","0","14",""
"","","","","","html-keyboard-response","120","493489","0.0-111.0-0.0","27","1","2023-10-23 04:04:52","a725c3012b74bf33a1020a98cb69c237","189.130.99.142","Mozilla/5.0 (Macintosh; Intel Mac OS X 10_15_7) AppleWebKit/605.1.15 (KHTML, like Gecko) Version/16.3 Safari/605.1.15","Macintosh","Safari","16.3","OS X","10_15_7","null","en-US,en;q=0.9","true","null","","null","","","delay_block","","","","","","0","14",""
"","","","","","html-keyboard-response","121","493641","0.0-111.0-1.0","27","1","2023-10-23 04:04:52","a725c3012b74bf33a1020a98cb69c237","189.130.99.142","Mozilla/5.0 (Macintosh; Intel Mac OS X 10_15_7) AppleWebKit/605.1.15 (KHTML, like Gecko) Version/16.3 Safari/605.1.15","Macintosh","Safari","16.3","OS X","10_15_7","null","en-US,en;q=0.9","true","null","<p id=""stimulus"" style=""font-size:100px;"">63</p>","null","","","tone_number_task_remaining_before_delay","","63","","518.5","100","0","14",""
"","","","","","html-keyboard-response","122","494187","0.0-114.0-0.0","27","1","2023-10-23 04:04:52","a725c3012b74bf33a1020a98cb69c237","189.130.99.142","Mozilla/5.0 (Macintosh; Intel Mac OS X 10_15_7) AppleWebKit/605.1.15 (KHTML, like Gecko) Version/16.3 Safari/605.1.15","Macintosh","Safari","16.3","OS X","10_15_7","null","en-US,en;q=0.9","true","543","<p id=""stimulus"" style=""font-size:100px;"">63</p>","k","","","empty_block","","63","","","","0","14",""
"","","","","","html-keyboard-response","123","497059","0.0-115.0","27","1","2023-10-23 04:04:52","a725c3012b74bf33a1020a98cb69c237","189.130.99.142","Mozilla/5.0 (Macintosh; Intel Mac OS X 10_15_7) AppleWebKit/605.1.15 (KHTML, like Gecko) Version/16.3 Safari/605.1.15","Macintosh","Safari","16.3","OS X","10_15_7","null","en-US,en;q=0.9","true","null","<div style=""font-size:100px;"">X</div>","null","","","fixation","","","","","","","",""
"","","","","","audio-keyboard-response","124","497785","0.0-116.0","27","1","2023-10-23 04:04:52","a725c3012b74bf33a1020a98cb69c237","189.130.99.142","Mozilla/5.0 (Macintosh; Intel Mac OS X 10_15_7) AppleWebKit/605.1.15 (KHTML, like Gecko) Version/16.3 Safari/605.1.15","Macintosh","Safari","16.3","OS X","10_15_7","null","en-US,en;q=0.9","true","723","tones/880hz_short.mp3","s","","","tone_number_task","1025","28","tones/880hz_short.mp3","1175","100","0","15",""
"","","","","","html-keyboard-response","125","498089","0.0-117.0-0.0","27","1","2023-10-23 04:04:52","a725c3012b74bf33a1020a98cb69c237","189.130.99.142","Mozilla/5.0 (Macintosh; Intel Mac OS X 10_15_7) AppleWebKit/605.1.15 (KHTML, like Gecko) Version/16.3 Safari/605.1.15","Macintosh","Safari","16.3","OS X","10_15_7","null","en-US,en;q=0.9","true","null","","null","","","delay_block","","","","","","0","15",""
"","","","","","html-keyboard-response","126","498242","0.0-117.0-1.0","27","1","2023-10-23 04:04:52","a725c3012b74bf33a1020a98cb69c237","189.130.99.142","Mozilla/5.0 (Macintosh; Intel Mac OS X 10_15_7) AppleWebKit/605.1.15 (KHTML, like Gecko) Version/16.3 Safari/605.1.15","Macintosh","Safari","16.3","OS X","10_15_7","null","en-US,en;q=0.9","true","null","<p id=""stimulus"" style=""font-size:100px;"">28</p>","null","","","tone_number_task_remaining_before_delay","","28","","452","100","0","15",""
"","","","","","html-keyboard-response","127","498950","0.0-120.0-0.0","27","1","2023-10-23 04:04:52","a725c3012b74bf33a1020a98cb69c237","189.130.99.142","Mozilla/5.0 (Macintosh; Intel Mac OS X 10_15_7) AppleWebKit/605.1.15 (KHTML, like Gecko) Version/16.3 Safari/605.1.15","Macintosh","Safari","16.3","OS X","10_15_7","null","en-US,en;q=0.9","true","705","<p id=""stimulus"" style=""font-size:100px;"">28</p>","j","","","empty_block","","28","","","","0","15",""
"","","","","","html-keyboard-response","128","501822","0.0-121.0","27","1","2023-10-23 04:04:52","a725c3012b74bf33a1020a98cb69c237","189.130.99.142","Mozilla/5.0 (Macintosh; Intel Mac OS X 10_15_7) AppleWebKit/605.1.15 (KHTML, like Gecko) Version/16.3 Safari/605.1.15","Macintosh","Safari","16.3","OS X","10_15_7","null","en-US,en;q=0.9","true","null","<div style=""font-size:100px;"">X</div>","null","","","fixation","","","","","","","",""
"","","","","","audio-keyboard-response","129","502520","0.0-122.0","27","1","2023-10-23 04:04:52","a725c3012b74bf33a1020a98cb69c237","189.130.99.142","Mozilla/5.0 (Macintosh; Intel Mac OS X 10_15_7) AppleWebKit/605.1.15 (KHTML, like Gecko) Version/16.3 Safari/605.1.15","Macintosh","Safari","16.3","OS X","10_15_7","null","en-US,en;q=0.9","true","694","tones/880hz_short.mp3","s","","","tone_number_task","1025","35","tones/880hz_short.mp3","1175","100","0","16",""
"","","","","","html-keyboard-response","130","502853","0.0-123.0-0.0","27","1","2023-10-23 04:04:52","a725c3012b74bf33a1020a98cb69c237","189.130.99.142","Mozilla/5.0 (Macintosh; Intel Mac OS X 10_15_7) AppleWebKit/605.1.15 (KHTML, like Gecko) Version/16.3 Safari/605.1.15","Macintosh","Safari","16.3","OS X","10_15_7","null","en-US,en;q=0.9","true","null","","null","","","delay_block","","","","","","0","16",""
"","","","","","html-keyboard-response","131","503006","0.0-123.0-1.0","27","1","2023-10-23 04:04:52","a725c3012b74bf33a1020a98cb69c237","189.130.99.142","Mozilla/5.0 (Macintosh; Intel Mac OS X 10_15_7) AppleWebKit/605.1.15 (KHTML, like Gecko) Version/16.3 Safari/605.1.15","Macintosh","Safari","16.3","OS X","10_15_7","null","en-US,en;q=0.9","true","null","<p id=""stimulus"" style=""font-size:100px;"">35</p>","null","","","tone_number_task_remaining_before_delay","","35","","481","100","0","16",""
"","","","","","html-keyboard-response","132","503647","0.0-126.0-0.0","27","1","2023-10-23 04:04:52","a725c3012b74bf33a1020a98cb69c237","189.130.99.142","Mozilla/5.0 (Macintosh; Intel Mac OS X 10_15_7) AppleWebKit/605.1.15 (KHTML, like Gecko) Version/16.3 Safari/605.1.15","Macintosh","Safari","16.3","OS X","10_15_7","null","en-US,en;q=0.9","true","638","<p id=""stimulus"" style=""font-size:100px;"">35</p>","j","","","empty_block","","35","","","","0","16",""
"","","","","","html-keyboard-response","133","506518","0.0-127.0","27","1","2023-10-23 04:04:52","a725c3012b74bf33a1020a98cb69c237","189.130.99.142","Mozilla/5.0 (Macintosh; Intel Mac OS X 10_15_7) AppleWebKit/605.1.15 (KHTML, like Gecko) Version/16.3 Safari/605.1.15","Macintosh","Safari","16.3","OS X","10_15_7","null","en-US,en;q=0.9","true","null","<div style=""font-size:100px;"">X</div>","null","","","fixation","","","","","","","",""
"","","","","","audio-keyboard-response","134","506672","0.0-128.0","27","1","2023-10-23 04:04:52","a725c3012b74bf33a1020a98cb69c237","189.130.99.142","Mozilla/5.0 (Macintosh; Intel Mac OS X 10_15_7) AppleWebKit/605.1.15 (KHTML, like Gecko) Version/16.3 Safari/605.1.15","Macintosh","Safari","16.3","OS X","10_15_7","null","en-US,en;q=0.9","true","null","tones/440hz_short.mp3","null","","","tone_number_task","0","24","tones/440hz_short.mp3","150","100","0","17",""
"","","","","","html-keyboard-response","135","507875","0.0-131.0-0.0","27","1","2023-10-23 04:04:52","a725c3012b74bf33a1020a98cb69c237","189.130.99.142","Mozilla/5.0 (Macintosh; Intel Mac OS X 10_15_7) AppleWebKit/605.1.15 (KHTML, like Gecko) Version/16.3 Safari/605.1.15","Macintosh","Safari","16.3","OS X","10_15_7","null","en-US,en;q=0.9","true","null","tones/440hz_short.mp3","null","","","empty_block","","24","","","","0","17",""
"","","","","","html-keyboard-response","136","508152","0.0-131.0-1.0","27","1","2023-10-23 04:04:52","a725c3012b74bf33a1020a98cb69c237","189.130.99.142","Mozilla/5.0 (Macintosh; Intel Mac OS X 10_15_7) AppleWebKit/605.1.15 (KHTML, like Gecko) Version/16.3 Safari/605.1.15","Macintosh","Safari","16.3","OS X","10_15_7","null","en-US,en;q=0.9","true","275","tones/440hz_short.mp3","s","","","empty_block","","24","","","","0","17",""
"","","","","","html-keyboard-response","137","511024","0.0-133.0","27","1","2023-10-23 04:04:52","a725c3012b74bf33a1020a98cb69c237","189.130.99.142","Mozilla/5.0 (Macintosh; Intel Mac OS X 10_15_7) AppleWebKit/605.1.15 (KHTML, like Gecko) Version/16.3 Safari/605.1.15","Macintosh","Safari","16.3","OS X","10_15_7","null","en-US,en;q=0.9","true","null","<div style=""font-size:100px;"">X</div>","null","","","fixation","","","","","","","",""
"","","","","","audio-keyboard-response","138","511280","0.0-134.0","27","1","2023-10-23 04:04:52","a725c3012b74bf33a1020a98cb69c237","189.130.99.142","Mozilla/5.0 (Macintosh; Intel Mac OS X 10_15_7) AppleWebKit/605.1.15 (KHTML, like Gecko) Version/16.3 Safari/605.1.15","Macintosh","Safari","16.3","OS X","10_15_7","null","en-US,en;q=0.9","true","null","tones/440hz_short.mp3","null","","","tone_number_task","102.5","54","tones/440hz_short.mp3","252.5","100","0","18",""
"","","","","","html-keyboard-response","139","512483","0.0-137.0-0.0","27","1","2023-10-23 04:04:52","a725c3012b74bf33a1020a98cb69c237","189.130.99.142","Mozilla/5.0 (Macintosh; Intel Mac OS X 10_15_7) AppleWebKit/605.1.15 (KHTML, like Gecko) Version/16.3 Safari/605.1.15","Macintosh","Safari","16.3","OS X","10_15_7","null","en-US,en;q=0.9","true","null","tones/440hz_short.mp3","null","","","empty_block","","54","","","","0","18",""
"","","","","","html-keyboard-response","140","512772","0.0-137.0-1.0","27","1","2023-10-23 04:04:52","a725c3012b74bf33a1020a98cb69c237","189.130.99.142","Mozilla/5.0 (Macintosh; Intel Mac OS X 10_15_7) AppleWebKit/605.1.15 (KHTML, like Gecko) Version/16.3 Safari/605.1.15","Macintosh","Safari","16.3","OS X","10_15_7","null","en-US,en;q=0.9","true","287","tones/440hz_short.mp3","a","","","empty_block","","54","","","","0","18",""
"","","","","","html-keyboard-response","141","515644","0.0-139.0","27","1","2023-10-23 04:04:52","a725c3012b74bf33a1020a98cb69c237","189.130.99.142","Mozilla/5.0 (Macintosh; Intel Mac OS X 10_15_7) AppleWebKit/605.1.15 (KHTML, like Gecko) Version/16.3 Safari/605.1.15","Macintosh","Safari","16.3","OS X","10_15_7","null","en-US,en;q=0.9","true","null","<div style=""font-size:100px;"">X</div>","null","","","fixation","","","","","","","",""
"","","","","","audio-keyboard-response","142","516682","0.0-140.0","27","1","2023-10-23 04:04:52","a725c3012b74bf33a1020a98cb69c237","189.130.99.142","Mozilla/5.0 (Macintosh; Intel Mac OS X 10_15_7) AppleWebKit/605.1.15 (KHTML, like Gecko) Version/16.3 Safari/605.1.15","Macintosh","Safari","16.3","OS X","10_15_7","null","en-US,en;q=0.9","true","1033","tones/440hz_short.mp3","a","","","tone_number_task","992.5","30","tones/440hz_short.mp3","1142.5","100","0","19",""
"","","","","","html-keyboard-response","143","516795","0.0-142.0-0.0","27","1","2023-10-23 04:04:52","a725c3012b74bf33a1020a98cb69c237","189.130.99.142","Mozilla/5.0 (Macintosh; Intel Mac OS X 10_15_7) AppleWebKit/605.1.15 (KHTML, like Gecko) Version/16.3 Safari/605.1.15","Macintosh","Safari","16.3","OS X","10_15_7","null","en-US,en;q=0.9","true","null","<p id=""stimulus"" style=""font-size:100px;"">30</p>","null","","","tone_number_task_remaining_after_delay","","30","","","100","0","19",""
"","","","","","html-keyboard-response","144","517424","0.0-144.0-0.0","27","1","2023-10-23 04:04:52","a725c3012b74bf33a1020a98cb69c237","189.130.99.142","Mozilla/5.0 (Macintosh; Intel Mac OS X 10_15_7) AppleWebKit/605.1.15 (KHTML, like Gecko) Version/16.3 Safari/605.1.15","Macintosh","Safari","16.3","OS X","10_15_7","null","en-US,en;q=0.9","true","627","<p id=""stimulus"" style=""font-size:100px;"">30</p>","j","","","empty_block","","30","","","","0","19",""
"","","","","","html-keyboard-response","145","520296","0.0-145.0","27","1","2023-10-23 04:04:52","a725c3012b74bf33a1020a98cb69c237","189.130.99.142","Mozilla/5.0 (Macintosh; Intel Mac OS X 10_15_7) AppleWebKit/605.1.15 (KHTML, like Gecko) Version/16.3 Safari/605.1.15","Macintosh","Safari","16.3","OS X","10_15_7","null","en-US,en;q=0.9","true","null","<div style=""font-size:100px;"">X</div>","null","","","fixation","","","","","","","",""
"","","","","","audio-keyboard-response","146","520449","0.0-146.0","27","1","2023-10-23 04:04:52","a725c3012b74bf33a1020a98cb69c237","189.130.99.142","Mozilla/5.0 (Macintosh; Intel Mac OS X 10_15_7) AppleWebKit/605.1.15 (KHTML, like Gecko) Version/16.3 Safari/605.1.15","Macintosh","Safari","16.3","OS X","10_15_7","null","en-US,en;q=0.9","true","null","tones/440hz_short.mp3","null","","","tone_number_task","0","53","tones/440hz_short.mp3","150","100","0","20",""
"","","","","","html-keyboard-response","147","520845","0.0-149.0-0.0","27","1","2023-10-23 04:04:52","a725c3012b74bf33a1020a98cb69c237","189.130.99.142","Mozilla/5.0 (Macintosh; Intel Mac OS X 10_15_7) AppleWebKit/605.1.15 (KHTML, like Gecko) Version/16.3 Safari/605.1.15","Macintosh","Safari","16.3","OS X","10_15_7","null","en-US,en;q=0.9","true","394","tones/440hz_short.mp3","a","","","empty_block","","53","","","","0","20",""
"","","","","","html-keyboard-response","148","521657","0.0-149.0-1.0","27","1","2023-10-23 04:04:52","a725c3012b74bf33a1020a98cb69c237","189.130.99.142","Mozilla/5.0 (Macintosh; Intel Mac OS X 10_15_7) AppleWebKit/605.1.15 (KHTML, like Gecko) Version/16.3 Safari/605.1.15","Macintosh","Safari","16.3","OS X","10_15_7","null","en-US,en;q=0.9","true","810","tones/440hz_short.mp3","k","","","empty_block","","53","","","","0","20",""
"","","","","","html-keyboard-response","149","524528","0.0-151.0","27","1","2023-10-23 04:04:52","a725c3012b74bf33a1020a98cb69c237","189.130.99.142","Mozilla/5.0 (Macintosh; Intel Mac OS X 10_15_7) AppleWebKit/605.1.15 (KHTML, like Gecko) Version/16.3 Safari/605.1.15","Macintosh","Safari","16.3","OS X","10_15_7","null","en-US,en;q=0.9","true","null","<div style=""font-size:100px;"">X</div>","null","","","fixation","","","","","","","",""
"","","","","","audio-keyboard-response","150","525190","0.0-152.0","27","1","2023-10-23 04:04:52","a725c3012b74bf33a1020a98cb69c237","189.130.99.142","Mozilla/5.0 (Macintosh; Intel Mac OS X 10_15_7) AppleWebKit/605.1.15 (KHTML, like Gecko) Version/16.3 Safari/605.1.15","Macintosh","Safari","16.3","OS X","10_15_7","null","en-US,en;q=0.9","true","656","tones/880hz_short.mp3","s","","","tone_number_task","1025","21","tones/880hz_short.mp3","1175","100","0","21",""
"","","","","","html-keyboard-response","151","525561","0.0-153.0-0.0","27","1","2023-10-23 04:04:52","a725c3012b74bf33a1020a98cb69c237","189.130.99.142","Mozilla/5.0 (Macintosh; Intel Mac OS X 10_15_7) AppleWebKit/605.1.15 (KHTML, like Gecko) Version/16.3 Safari/605.1.15","Macintosh","Safari","16.3","OS X","10_15_7","null","en-US,en;q=0.9","true","null","","null","","","delay_block","","","","","","0","21",""
"","","","","","html-keyboard-response","152","525715","0.0-153.0-1.0","27","1","2023-10-23 04:04:52","a725c3012b74bf33a1020a98cb69c237","189.130.99.142","Mozilla/5.0 (Macintosh; Intel Mac OS X 10_15_7) AppleWebKit/605.1.15 (KHTML, like Gecko) Version/16.3 Safari/605.1.15","Macintosh","Safari","16.3","OS X","10_15_7","null","en-US,en;q=0.9","true","null","<p id=""stimulus"" style=""font-size:100px;"">21</p>","null","","","tone_number_task_remaining_before_delay","","21","","519","100","0","21",""
"","","","","","html-keyboard-response","153","526169","0.0-156.0-0.0","27","1","2023-10-23 04:04:52","a725c3012b74bf33a1020a98cb69c237","189.130.99.142","Mozilla/5.0 (Macintosh; Intel Mac OS X 10_15_7) AppleWebKit/605.1.15 (KHTML, like Gecko) Version/16.3 Safari/605.1.15","Macintosh","Safari","16.3","OS X","10_15_7","null","en-US,en;q=0.9","true","451","<p id=""stimulus"" style=""font-size:100px;"">21</p>","j","","","empty_block","","21","","","","0","21",""
"","","","","","html-keyboard-response","154","529041","0.0-157.0","27","1","2023-10-23 04:04:52","a725c3012b74bf33a1020a98cb69c237","189.130.99.142","Mozilla/5.0 (Macintosh; Intel Mac OS X 10_15_7) AppleWebKit/605.1.15 (KHTML, like Gecko) Version/16.3 Safari/605.1.15","Macintosh","Safari","16.3","OS X","10_15_7","null","en-US,en;q=0.9","true","null","<div style=""font-size:100px;"">X</div>","null","","","fixation","","","","","","","",""
"","","","","","audio-keyboard-response","155","529296","0.0-158.0","27","1","2023-10-23 04:04:52","a725c3012b74bf33a1020a98cb69c237","189.130.99.142","Mozilla/5.0 (Macintosh; Intel Mac OS X 10_15_7) AppleWebKit/605.1.15 (KHTML, like Gecko) Version/16.3 Safari/605.1.15","Macintosh","Safari","16.3","OS X","10_15_7","null","en-US,en;q=0.9","true","null","tones/880hz_short.mp3","null","","","tone_number_task","102.5","22","tones/880hz_short.mp3","252.5","100","0","22",""
"","","","","","html-keyboard-response","156","529740","0.0-161.0-0.0","27","1","2023-10-23 04:04:52","a725c3012b74bf33a1020a98cb69c237","189.130.99.142","Mozilla/5.0 (Macintosh; Intel Mac OS X 10_15_7) AppleWebKit/605.1.15 (KHTML, like Gecko) Version/16.3 Safari/605.1.15","Macintosh","Safari","16.3","OS X","10_15_7","null","en-US,en;q=0.9","true","442","tones/880hz_short.mp3","s","","","empty_block","","22","","","","0","22",""
"","","","","","html-keyboard-response","157","530107","0.0-161.0-1.0","27","1","2023-10-23 04:04:52","a725c3012b74bf33a1020a98cb69c237","189.130.99.142","Mozilla/5.0 (Macintosh; Intel Mac OS X 10_15_7) AppleWebKit/605.1.15 (KHTML, like Gecko) Version/16.3 Safari/605.1.15","Macintosh","Safari","16.3","OS X","10_15_7","null","en-US,en;q=0.9","true","364","tones/880hz_short.mp3","j","","","empty_block","","22","","","","0","22",""
"","","","","","html-keyboard-response","158","532979","0.0-163.0","27","1","2023-10-23 04:04:52","a725c3012b74bf33a1020a98cb69c237","189.130.99.142","Mozilla/5.0 (Macintosh; Intel Mac OS X 10_15_7) AppleWebKit/605.1.15 (KHTML, like Gecko) Version/16.3 Safari/605.1.15","Macintosh","Safari","16.3","OS X","10_15_7","null","en-US,en;q=0.9","true","null","<div style=""font-size:100px;"">X</div>","null","","","fixation","","","","","","","",""
"","","","","","audio-keyboard-response","159","533134","0.0-164.0","27","1","2023-10-23 04:04:52","a725c3012b74bf33a1020a98cb69c237","189.130.99.142","Mozilla/5.0 (Macintosh; Intel Mac OS X 10_15_7) AppleWebKit/605.1.15 (KHTML, like Gecko) Version/16.3 Safari/605.1.15","Macintosh","Safari","16.3","OS X","10_15_7","null","en-US,en;q=0.9","true","null","tones/440hz_short.mp3","null","","","tone_number_task","0","22","tones/440hz_short.mp3","150","100","0","23",""
"","","","","","html-keyboard-response","160","533613","0.0-167.0-0.0","27","1","2023-10-23 04:04:52","a725c3012b74bf33a1020a98cb69c237","189.130.99.142","Mozilla/5.0 (Macintosh; Intel Mac OS X 10_15_7) AppleWebKit/605.1.15 (KHTML, like Gecko) Version/16.3 Safari/605.1.15","Macintosh","Safari","16.3","OS X","10_15_7","null","en-US,en;q=0.9","true","477","tones/440hz_short.mp3","a","","","empty_block","","22","","","","0","23",""
"","","","","","html-keyboard-response","161","533983","0.0-167.0-1.0","27","1","2023-10-23 04:04:52","a725c3012b74bf33a1020a98cb69c237","189.130.99.142","Mozilla/5.0 (Macintosh; Intel Mac OS X 10_15_7) AppleWebKit/605.1.15 (KHTML, like Gecko) Version/16.3 Safari/605.1.15","Macintosh","Safari","16.3","OS X","10_15_7","null","en-US,en;q=0.9","true","369","tones/440hz_short.mp3","j","","","empty_block","","22","","","","0","23",""
"","","","","","html-keyboard-response","162","536856","0.0-169.0","27","1","2023-10-23 04:04:52","a725c3012b74bf33a1020a98cb69c237","189.130.99.142","Mozilla/5.0 (Macintosh; Intel Mac OS X 10_15_7) AppleWebKit/605.1.15 (KHTML, like Gecko) Version/16.3 Safari/605.1.15","Macintosh","Safari","16.3","OS X","10_15_7","null","en-US,en;q=0.9","true","null","<div style=""font-size:100px;"">X</div>","null","","","fixation","","","","","","","",""
"","","","","","audio-keyboard-response","163","537617","0.0-170.0","27","1","2023-10-23 04:04:52","a725c3012b74bf33a1020a98cb69c237","189.130.99.142","Mozilla/5.0 (Macintosh; Intel Mac OS X 10_15_7) AppleWebKit/605.1.15 (KHTML, like Gecko) Version/16.3 Safari/605.1.15","Macintosh","Safari","16.3","OS X","10_15_7","null","en-US,en;q=0.9","true","760","tones/880hz_short.mp3","s","","","tone_number_task","992.5","27","tones/880hz_short.mp3","1142.5","100","0","24",""
"","","","","","html-keyboard-response","164","537851","0.0-171.0-0.0","27","1","2023-10-23 04:04:52","a725c3012b74bf33a1020a98cb69c237","189.130.99.142","Mozilla/5.0 (Macintosh; Intel Mac OS X 10_15_7) AppleWebKit/605.1.15 (KHTML, like Gecko) Version/16.3 Safari/605.1.15","Macintosh","Safari","16.3","OS X","10_15_7","null","en-US,en;q=0.9","true","null","","null","","","delay_block","","","","","","0","24",""
"","","","","","html-keyboard-response","165","538004","0.0-171.0-1.0","27","1","2023-10-23 04:04:52","a725c3012b74bf33a1020a98cb69c237","189.130.99.142","Mozilla/5.0 (Macintosh; Intel Mac OS X 10_15_7) AppleWebKit/605.1.15 (KHTML, like Gecko) Version/16.3 Safari/605.1.15","Macintosh","Safari","16.3","OS X","10_15_7","null","en-US,en;q=0.9","true","null","<p id=""stimulus"" style=""font-size:100px;"">27</p>","null","","","tone_number_task_remaining_before_delay","","27","","382.5","100","0","24",""
"","","","","","html-keyboard-response","166","538462","0.0-174.0-0.0","27","1","2023-10-23 04:04:52","a725c3012b74bf33a1020a98cb69c237","189.130.99.142","Mozilla/5.0 (Macintosh; Intel Mac OS X 10_15_7) AppleWebKit/605.1.15 (KHTML, like Gecko) Version/16.3 Safari/605.1.15","Macintosh","Safari","16.3","OS X","10_15_7","null","en-US,en;q=0.9","true","455","<p id=""stimulus"" style=""font-size:100px;"">27</p>","j","","","empty_block","","27","","","","0","24",""
"","","","","","html-keyboard-response","167","541334","0.0-175.0","27","1","2023-10-23 04:04:52","a725c3012b74bf33a1020a98cb69c237","189.130.99.142","Mozilla/5.0 (Macintosh; Intel Mac OS X 10_15_7) AppleWebKit/605.1.15 (KHTML, like Gecko) Version/16.3 Safari/605.1.15","Macintosh","Safari","16.3","OS X","10_15_7","null","en-US,en;q=0.9","true","null","<div style=""font-size:100px;"">X</div>","null","","","fixation","","","","","","","",""
"","","","","","audio-keyboard-response","168","542514","0.0-176.0","27","1","2023-10-23 04:04:52","a725c3012b74bf33a1020a98cb69c237","189.130.99.142","Mozilla/5.0 (Macintosh; Intel Mac OS X 10_15_7) AppleWebKit/605.1.15 (KHTML, like Gecko) Version/16.3 Safari/605.1.15","Macintosh","Safari","16.3","OS X","10_15_7","null","en-US,en;q=0.9","true","null","tones/880hz_short.mp3","null","","","tone_number_task","1025","56","tones/880hz_short.mp3","1175","100","0","25",""
"","","","","","html-keyboard-response","169","542750","0.0-179.0-0.0","27","1","2023-10-23 04:04:52","a725c3012b74bf33a1020a98cb69c237","189.130.99.142","Mozilla/5.0 (Macintosh; Intel Mac OS X 10_15_7) AppleWebKit/605.1.15 (KHTML, like Gecko) Version/16.3 Safari/605.1.15","Macintosh","Safari","16.3","OS X","10_15_7","null","en-US,en;q=0.9","true","233","tones/880hz_short.mp3","s","","","empty_block","","56","","","","0","25",""
"","","","","","html-keyboard-response","170","543277","0.0-179.0-1.0","27","1","2023-10-23 04:04:52","a725c3012b74bf33a1020a98cb69c237","189.130.99.142","Mozilla/5.0 (Macintosh; Intel Mac OS X 10_15_7) AppleWebKit/605.1.15 (KHTML, like Gecko) Version/16.3 Safari/605.1.15","Macintosh","Safari","16.3","OS X","10_15_7","null","en-US,en;q=0.9","true","526","tones/880hz_short.mp3","k","","","empty_block","","56","","","","0","25",""
"","","","","","html-keyboard-response","171","546150","0.0-181.0","27","1","2023-10-23 04:04:52","a725c3012b74bf33a1020a98cb69c237","189.130.99.142","Mozilla/5.0 (Macintosh; Intel Mac OS X 10_15_7) AppleWebKit/605.1.15 (KHTML, like Gecko) Version/16.3 Safari/605.1.15","Macintosh","Safari","16.3","OS X","10_15_7","null","en-US,en;q=0.9","true","null","<div style=""font-size:100px;"">X</div>","null","","","fixation","","","","","","","",""
"","","","","","audio-keyboard-response","172","546777","0.0-182.0","27","1","2023-10-23 04:04:52","a725c3012b74bf33a1020a98cb69c237","189.130.99.142","Mozilla/5.0 (Macintosh; Intel Mac OS X 10_15_7) AppleWebKit/605.1.15 (KHTML, like Gecko) Version/16.3 Safari/605.1.15","Macintosh","Safari","16.3","OS X","10_15_7","null","en-US,en;q=0.9","true","627","tones/880hz_short.mp3","s","","","tone_number_task","992.5","21","tones/880hz_short.mp3","1142.5","100","0","26",""
"","","","","","html-keyboard-response","173","547146","0.0-183.0-0.0","27","1","2023-10-23 04:04:52","a725c3012b74bf33a1020a98cb69c237","189.130.99.142","Mozilla/5.0 (Macintosh; Intel Mac OS X 10_15_7) AppleWebKit/605.1.15 (KHTML, like Gecko) Version/16.3 Safari/605.1.15","Macintosh","Safari","16.3","OS X","10_15_7","null","en-US,en;q=0.9","true","null","","null","","","delay_block","","","","","","0","26",""
"","","","","","html-keyboard-response","174","547299","0.0-183.0-1.0","27","1","2023-10-23 04:04:52","a725c3012b74bf33a1020a98cb69c237","189.130.99.142","Mozilla/5.0 (Macintosh; Intel Mac OS X 10_15_7) AppleWebKit/605.1.15 (KHTML, like Gecko) Version/16.3 Safari/605.1.15","Macintosh","Safari","16.3","OS X","10_15_7","null","en-US,en;q=0.9","true","null","<p id=""stimulus"" style=""font-size:100px;"">21</p>","null","","","tone_number_task_remaining_before_delay","","21","","515.5","100","0","26",""
"","","","","","html-keyboard-response","175","547805","0.0-186.0-0.0","27","1","2023-10-23 04:04:52","a725c3012b74bf33a1020a98cb69c237","189.130.99.142","Mozilla/5.0 (Macintosh; Intel Mac OS X 10_15_7) AppleWebKit/605.1.15 (KHTML, like Gecko) Version/16.3 Safari/605.1.15","Macintosh","Safari","16.3","OS X","10_15_7","null","en-US,en;q=0.9","true","504","<p id=""stimulus"" style=""font-size:100px;"">21</p>","j","","","empty_block","","21","","","","0","26",""
"","","","","","html-keyboard-response","176","550677","0.0-187.0","27","1","2023-10-23 04:04:52","a725c3012b74bf33a1020a98cb69c237","189.130.99.142","Mozilla/5.0 (Macintosh; Intel Mac OS X 10_15_7) AppleWebKit/605.1.15 (KHTML, like Gecko) Version/16.3 Safari/605.1.15","Macintosh","Safari","16.3","OS X","10_15_7","null","en-US,en;q=0.9","true","null","<div style=""font-size:100px;"">X</div>","null","","","fixation","","","","","","","",""
"","","","","","audio-keyboard-response","177","551780","0.0-188.0","27","1","2023-10-23 04:04:52","a725c3012b74bf33a1020a98cb69c237","189.130.99.142","Mozilla/5.0 (Macintosh; Intel Mac OS X 10_15_7) AppleWebKit/605.1.15 (KHTML, like Gecko) Version/16.3 Safari/605.1.15","Macintosh","Safari","16.3","OS X","10_15_7","null","en-US,en;q=0.9","true","1097","tones/440hz_short.mp3","a","","","tone_number_task","992.5","55","tones/440hz_short.mp3","1142.5","100","0","27",""
"","","","","","html-keyboard-response","178","551828","0.0-190.0-0.0","27","1","2023-10-23 04:04:52","a725c3012b74bf33a1020a98cb69c237","189.130.99.142","Mozilla/5.0 (Macintosh; Intel Mac OS X 10_15_7) AppleWebKit/605.1.15 (KHTML, like Gecko) Version/16.3 Safari/605.1.15","Macintosh","Safari","16.3","OS X","10_15_7","null","en-US,en;q=0.9","true","null","<p id=""stimulus"" style=""font-size:100px;"">55</p>","null","","","tone_number_task_remaining_after_delay","","55","","","100","0","27",""
"","","","","","html-keyboard-response","179","552641","0.0-192.0-0.0","27","1","2023-10-23 04:04:52","a725c3012b74bf33a1020a98cb69c237","189.130.99.142","Mozilla/5.0 (Macintosh; Intel Mac OS X 10_15_7) AppleWebKit/605.1.15 (KHTML, like Gecko) Version/16.3 Safari/605.1.15","Macintosh","Safari","16.3","OS X","10_15_7","null","en-US,en;q=0.9","true","811","<p id=""stimulus"" style=""font-size:100px;"">55</p>","k","","","empty_block","","55","","","","0","27",""
"","","","","","html-keyboard-response","180","555513","0.0-193.0","27","1","2023-10-23 04:04:52","a725c3012b74bf33a1020a98cb69c237","189.130.99.142","Mozilla/5.0 (Macintosh; Intel Mac OS X 10_15_7) AppleWebKit/605.1.15 (KHTML, like Gecko) Version/16.3 Safari/605.1.15","Macintosh","Safari","16.3","OS X","10_15_7","null","en-US,en;q=0.9","true","null","<div style=""font-size:100px;"">X</div>","null","","","fixation","","","","","","","",""
"","","","","","audio-keyboard-response","181","555769","0.0-194.0","27","1","2023-10-23 04:04:52","a725c3012b74bf33a1020a98cb69c237","189.130.99.142","Mozilla/5.0 (Macintosh; Intel Mac OS X 10_15_7) AppleWebKit/605.1.15 (KHTML, like Gecko) Version/16.3 Safari/605.1.15","Macintosh","Safari","16.3","OS X","10_15_7","null","en-US,en;q=0.9","true","null","tones/880hz_short.mp3","null","","","tone_number_task","102.5","27","tones/880hz_short.mp3","252.5","100","0","28",""
"","","","","","html-keyboard-response","182","556078","0.0-197.0-0.0","27","1","2023-10-23 04:04:52","a725c3012b74bf33a1020a98cb69c237","189.130.99.142","Mozilla/5.0 (Macintosh; Intel Mac OS X 10_15_7) AppleWebKit/605.1.15 (KHTML, like Gecko) Version/16.3 Safari/605.1.15","Macintosh","Safari","16.3","OS X","10_15_7","null","en-US,en;q=0.9","true","307","tones/880hz_short.mp3","s","","","empty_block","","27","","","","0","28",""
"","","","","","html-keyboard-response","183","556547","0.0-197.0-1.0","27","1","2023-10-23 04:04:52","a725c3012b74bf33a1020a98cb69c237","189.130.99.142","Mozilla/5.0 (Macintosh; Intel Mac OS X 10_15_7) AppleWebKit/605.1.15 (KHTML, like Gecko) Version/16.3 Safari/605.1.15","Macintosh","Safari","16.3","OS X","10_15_7","null","en-US,en;q=0.9","true","466","tones/880hz_short.mp3","j","","","empty_block","","27","","","","0","28",""
"","","","","","html-keyboard-response","184","559419","0.0-199.0","27","1","2023-10-23 04:04:52","a725c3012b74bf33a1020a98cb69c237","189.130.99.142","Mozilla/5.0 (Macintosh; Intel Mac OS X 10_15_7) AppleWebKit/605.1.15 (KHTML, like Gecko) Version/16.3 Safari/605.1.15","Macintosh","Safari","16.3","OS X","10_15_7","null","en-US,en;q=0.9","true","null","<div style=""font-size:100px;"">X</div>","null","","","fixation","","","","","","","",""
"","","","","","audio-keyboard-response","185","559573","0.0-200.0","27","1","2023-10-23 04:04:52","a725c3012b74bf33a1020a98cb69c237","189.130.99.142","Mozilla/5.0 (Macintosh; Intel Mac OS X 10_15_7) AppleWebKit/605.1.15 (KHTML, like Gecko) Version/16.3 Safari/605.1.15","Macintosh","Safari","16.3","OS X","10_15_7","null","en-US,en;q=0.9","true","null","tones/440hz_short.mp3","null","","","tone_number_task","0","65","tones/440hz_short.mp3","150","100","0","29",""
"","","","","","html-keyboard-response","186","560776","0.0-203.0-0.0","27","1","2023-10-23 04:04:52","a725c3012b74bf33a1020a98cb69c237","189.130.99.142","Mozilla/5.0 (Macintosh; Intel Mac OS X 10_15_7) AppleWebKit/605.1.15 (KHTML, like Gecko) Version/16.3 Safari/605.1.15","Macintosh","Safari","16.3","OS X","10_15_7","null","en-US,en;q=0.9","true","null","tones/440hz_short.mp3","null","","","empty_block","","65","","","","0","29",""
"","","","","","html-keyboard-response","187","561048","0.0-203.0-1.0","27","1","2023-10-23 04:04:52","a725c3012b74bf33a1020a98cb69c237","189.130.99.142","Mozilla/5.0 (Macintosh; Intel Mac OS X 10_15_7) AppleWebKit/605.1.15 (KHTML, like Gecko) Version/16.3 Safari/605.1.15","Macintosh","Safari","16.3","OS X","10_15_7","null","en-US,en;q=0.9","true","268","tones/440hz_short.mp3","s","","","empty_block","","65","","","","0","29",""
"","","","","","html-keyboard-response","188","563920","0.0-205.0","27","1","2023-10-23 04:04:52","a725c3012b74bf33a1020a98cb69c237","189.130.99.142","Mozilla/5.0 (Macintosh; Intel Mac OS X 10_15_7) AppleWebKit/605.1.15 (KHTML, like Gecko) Version/16.3 Safari/605.1.15","Macintosh","Safari","16.3","OS X","10_15_7","null","en-US,en;q=0.9","true","null","<div style=""font-size:100px;"">X</div>","null","","","fixation","","","","","","","",""
"","","","","","audio-keyboard-response","189","564177","0.0-206.0","27","1","2023-10-23 04:04:52","a725c3012b74bf33a1020a98cb69c237","189.130.99.142","Mozilla/5.0 (Macintosh; Intel Mac OS X 10_15_7) AppleWebKit/605.1.15 (KHTML, like Gecko) Version/16.3 Safari/605.1.15","Macintosh","Safari","16.3","OS X","10_15_7","null","en-US,en;q=0.9","true","null","tones/880hz_short.mp3","null","","","tone_number_task","102.5","46","tones/880hz_short.mp3","252.5","100","0","30",""
"","","","","","html-keyboard-response","190","564458","0.0-209.0-0.0","27","1","2023-10-23 04:04:52","a725c3012b74bf33a1020a98cb69c237","189.130.99.142","Mozilla/5.0 (Macintosh; Intel Mac OS X 10_15_7) AppleWebKit/605.1.15 (KHTML, like Gecko) Version/16.3 Safari/605.1.15","Macintosh","Safari","16.3","OS X","10_15_7","null","en-US,en;q=0.9","true","279","tones/880hz_short.mp3","s","","","empty_block","","46","","","","0","30",""
"","","","","","html-keyboard-response","191","565326","0.0-209.0-1.0","27","1","2023-10-23 04:04:52","a725c3012b74bf33a1020a98cb69c237","189.130.99.142","Mozilla/5.0 (Macintosh; Intel Mac OS X 10_15_7) AppleWebKit/605.1.15 (KHTML, like Gecko) Version/16.3 Safari/605.1.15","Macintosh","Safari","16.3","OS X","10_15_7","null","en-US,en;q=0.9","true","866","tones/880hz_short.mp3","k","","","empty_block","","46","","","","0","30",""
"","","","","","html-keyboard-response","192","568199","0.0-211.0","27","1","2023-10-23 04:04:52","a725c3012b74bf33a1020a98cb69c237","189.130.99.142","Mozilla/5.0 (Macintosh; Intel Mac OS X 10_15_7) AppleWebKit/605.1.15 (KHTML, like Gecko) Version/16.3 Safari/605.1.15","Macintosh","Safari","16.3","OS X","10_15_7","null","en-US,en;q=0.9","true","null","<div style=""font-size:100px;"">X</div>","null","","","fixation","","","","","","","",""
"","","","","","audio-keyboard-response","193","569377","0.0-212.0","27","1","2023-10-23 04:04:52","a725c3012b74bf33a1020a98cb69c237","189.130.99.142","Mozilla/5.0 (Macintosh; Intel Mac OS X 10_15_7) AppleWebKit/605.1.15 (KHTML, like Gecko) Version/16.3 Safari/605.1.15","Macintosh","Safari","16.3","OS X","10_15_7","null","en-US,en;q=0.9","true","null","tones/440hz_short.mp3","null","","","tone_number_task","1025","65","tones/440hz_short.mp3","1175","100","0","31",""
"","","","","","html-keyboard-response","194","570580","0.0-215.0-0.0","27","1","2023-10-23 04:04:52","a725c3012b74bf33a1020a98cb69c237","189.130.99.142","Mozilla/5.0 (Macintosh; Intel Mac OS X 10_15_7) AppleWebKit/605.1.15 (KHTML, like Gecko) Version/16.3 Safari/605.1.15","Macintosh","Safari","16.3","OS X","10_15_7","null","en-US,en;q=0.9","true","null","tones/440hz_short.mp3","null","","","empty_block","","65","","","","0","31",""
"","","","","","html-keyboard-response","195","571784","0.0-215.0-1.0","27","1","2023-10-23 04:04:52","a725c3012b74bf33a1020a98cb69c237","189.130.99.142","Mozilla/5.0 (Macintosh; Intel Mac OS X 10_15_7) AppleWebKit/605.1.15 (KHTML, like Gecko) Version/16.3 Safari/605.1.15","Macintosh","Safari","16.3","OS X","10_15_7","null","en-US,en;q=0.9","true","null","tones/440hz_short.mp3","null","","","empty_block","","65","","","","0","31",""
"","","","","","html-keyboard-response","196","574657","0.0-217.0","27","1","2023-10-23 04:04:52","a725c3012b74bf33a1020a98cb69c237","189.130.99.142","Mozilla/5.0 (Macintosh; Intel Mac OS X 10_15_7) AppleWebKit/605.1.15 (KHTML, like Gecko) Version/16.3 Safari/605.1.15","Macintosh","Safari","16.3","OS X","10_15_7","null","en-US,en;q=0.9","true","null","<div style=""font-size:100px;"">X</div>","null","","","fixation","","","","","","","",""
"","","","","","audio-keyboard-response","197","575516","0.0-218.0","27","1","2023-10-23 04:04:52","a725c3012b74bf33a1020a98cb69c237","189.130.99.142","Mozilla/5.0 (Macintosh; Intel Mac OS X 10_15_7) AppleWebKit/605.1.15 (KHTML, like Gecko) Version/16.3 Safari/605.1.15","Macintosh","Safari","16.3","OS X","10_15_7","null","en-US,en;q=0.9","true","856","tones/880hz_short.mp3","s","","","tone_number_task","992.5","69","tones/880hz_short.mp3","1142.5","100","0","32",""
"","","","","","html-keyboard-response","198","575654","0.0-219.0-0.0","27","1","2023-10-23 04:04:52","a725c3012b74bf33a1020a98cb69c237","189.130.99.142","Mozilla/5.0 (Macintosh; Intel Mac OS X 10_15_7) AppleWebKit/605.1.15 (KHTML, like Gecko) Version/16.3 Safari/605.1.15","Macintosh","Safari","16.3","OS X","10_15_7","null","en-US,en;q=0.9","true","null","","null","","","delay_block","","","","","","0","32",""
"","","","","","html-keyboard-response","199","575807","0.0-219.0-1.0","27","1","2023-10-23 04:04:52","a725c3012b74bf33a1020a98cb69c237","189.130.99.142","Mozilla/5.0 (Macintosh; Intel Mac OS X 10_15_7) AppleWebKit/605.1.15 (KHTML, like Gecko) Version/16.3 Safari/605.1.15","Macintosh","Safari","16.3","OS X","10_15_7","null","en-US,en;q=0.9","true","null","<p id=""stimulus"" style=""font-size:100px;"">69</p>","null","","","tone_number_task_remaining_before_delay","","69","","286.5","100","0","32",""
"","","","","","html-keyboard-response","200","576558","0.0-222.0-0.0","27","1","2023-10-23 04:04:52","a725c3012b74bf33a1020a98cb69c237","189.130.99.142","Mozilla/5.0 (Macintosh; Intel Mac OS X 10_15_7) AppleWebKit/605.1.15 (KHTML, like Gecko) Version/16.3 Safari/605.1.15","Macintosh","Safari","16.3","OS X","10_15_7","null","en-US,en;q=0.9","true","748","<p id=""stimulus"" style=""font-size:100px;"">69</p>","k","","","empty_block","","69","","","","0","32",""
"","","","","","html-keyboard-response","201","579430","0.0-223.0","27","1","2023-10-23 04:04:52","a725c3012b74bf33a1020a98cb69c237","189.130.99.142","Mozilla/5.0 (Macintosh; Intel Mac OS X 10_15_7) AppleWebKit/605.1.15 (KHTML, like Gecko) Version/16.3 Safari/605.1.15","Macintosh","Safari","16.3","OS X","10_15_7","null","en-US,en;q=0.9","true","null","<div style=""font-size:100px;"">X</div>","null","","","fixation","","","","","","","",""
"","","","","","audio-keyboard-response","202","579584","0.0-224.0","27","1","2023-10-23 04:04:52","a725c3012b74bf33a1020a98cb69c237","189.130.99.142","Mozilla/5.0 (Macintosh; Intel Mac OS X 10_15_7) AppleWebKit/605.1.15 (KHTML, like Gecko) Version/16.3 Safari/605.1.15","Macintosh","Safari","16.3","OS X","10_15_7","null","en-US,en;q=0.9","true","null","tones/880hz_short.mp3","null","","","tone_number_task","0","37","tones/880hz_short.mp3","150","100","0","33",""
"","","","","","html-keyboard-response","203","580788","0.0-227.0-0.0","27","1","2023-10-23 04:04:52","a725c3012b74bf33a1020a98cb69c237","189.130.99.142","Mozilla/5.0 (Macintosh; Intel Mac OS X 10_15_7) AppleWebKit/605.1.15 (KHTML, like Gecko) Version/16.3 Safari/605.1.15","Macintosh","Safari","16.3","OS X","10_15_7","null","en-US,en;q=0.9","true","null","tones/880hz_short.mp3","null","","","empty_block","","37","","","","0","33",""
"","","","","","html-keyboard-response","204","581874","0.0-227.0-1.0","27","1","2023-10-23 04:04:52","a725c3012b74bf33a1020a98cb69c237","189.130.99.142","Mozilla/5.0 (Macintosh; Intel Mac OS X 10_15_7) AppleWebKit/605.1.15 (KHTML, like Gecko) Version/16.3 Safari/605.1.15","Macintosh","Safari","16.3","OS X","10_15_7","null","en-US,en;q=0.9","true","1083","tones/880hz_short.mp3","s","","","empty_block","","37","","","","0","33",""
"","","","","","html-keyboard-response","205","584747","0.0-229.0","27","1","2023-10-23 04:04:52","a725c3012b74bf33a1020a98cb69c237","189.130.99.142","Mozilla/5.0 (Macintosh; Intel Mac OS X 10_15_7) AppleWebKit/605.1.15 (KHTML, like Gecko) Version/16.3 Safari/605.1.15","Macintosh","Safari","16.3","OS X","10_15_7","null","en-US,en;q=0.9","true","null","<div style=""font-size:100px;"">X</div>","null","","","fixation","","","","","","","",""
"","","","","","audio-keyboard-response","206","584901","0.0-230.0","27","1","2023-10-23 04:04:52","a725c3012b74bf33a1020a98cb69c237","189.130.99.142","Mozilla/5.0 (Macintosh; Intel Mac OS X 10_15_7) AppleWebKit/605.1.15 (KHTML, like Gecko) Version/16.3 Safari/605.1.15","Macintosh","Safari","16.3","OS X","10_15_7","null","en-US,en;q=0.9","true","null","tones/440hz_short.mp3","null","","","tone_number_task","0","35","tones/440hz_short.mp3","150","100","0","34",""
"","","","","","html-keyboard-response","207","586105","0.0-233.0-0.0","27","1","2023-10-23 04:04:52","a725c3012b74bf33a1020a98cb69c237","189.130.99.142","Mozilla/5.0 (Macintosh; Intel Mac OS X 10_15_7) AppleWebKit/605.1.15 (KHTML, like Gecko) Version/16.3 Safari/605.1.15","Macintosh","Safari","16.3","OS X","10_15_7","null","en-US,en;q=0.9","true","null","tones/440hz_short.mp3","null","","","empty_block","","35","","","","0","34",""
"","","","","","html-keyboard-response","208","587100","0.0-233.0-1.0","27","1","2023-10-23 04:04:52","a725c3012b74bf33a1020a98cb69c237","189.130.99.142","Mozilla/5.0 (Macintosh; Intel Mac OS X 10_15_7) AppleWebKit/605.1.15 (KHTML, like Gecko) Version/16.3 Safari/605.1.15","Macintosh","Safari","16.3","OS X","10_15_7","null","en-US,en;q=0.9","true","991","tones/440hz_short.mp3","a","","","empty_block","","35","","","","0","34",""
"","","","","","html-keyboard-response","209","589972","0.0-235.0","27","1","2023-10-23 04:04:52","a725c3012b74bf33a1020a98cb69c237","189.130.99.142","Mozilla/5.0 (Macintosh; Intel Mac OS X 10_15_7) AppleWebKit/605.1.15 (KHTML, like Gecko) Version/16.3 Safari/605.1.15","Macintosh","Safari","16.3","OS X","10_15_7","null","en-US,en;q=0.9","true","null","<div style=""font-size:100px;"">X</div>","null","","","fixation","","","","","","","",""
"","","","","","audio-keyboard-response","210","590544","0.0-236.0","27","1","2023-10-23 04:04:52","a725c3012b74bf33a1020a98cb69c237","189.130.99.142","Mozilla/5.0 (Macintosh; Intel Mac OS X 10_15_7) AppleWebKit/605.1.15 (KHTML, like Gecko) Version/16.3 Safari/605.1.15","Macintosh","Safari","16.3","OS X","10_15_7","null","en-US,en;q=0.9","true","569","tones/880hz_short.mp3","s","","","tone_number_task","992.5","69","tones/880hz_short.mp3","1142.5","100","0","35",""
"","","","","","html-keyboard-response","211","590970","0.0-237.0-0.0","27","1","2023-10-23 04:04:52","a725c3012b74bf33a1020a98cb69c237","189.130.99.142","Mozilla/5.0 (Macintosh; Intel Mac OS X 10_15_7) AppleWebKit/605.1.15 (KHTML, like Gecko) Version/16.3 Safari/605.1.15","Macintosh","Safari","16.3","OS X","10_15_7","null","en-US,en;q=0.9","true","null","","null","","","delay_block","","","","","","0","35",""
"","","","","","html-keyboard-response","212","591124","0.0-237.0-1.0","27","1","2023-10-23 04:04:52","a725c3012b74bf33a1020a98cb69c237","189.130.99.142","Mozilla/5.0 (Macintosh; Intel Mac OS X 10_15_7) AppleWebKit/605.1.15 (KHTML, like Gecko) Version/16.3 Safari/605.1.15","Macintosh","Safari","16.3","OS X","10_15_7","null","en-US,en;q=0.9","true","null","<p id=""stimulus"" style=""font-size:100px;"">69</p>","null","","","tone_number_task_remaining_before_delay","","69","","573.5","100","0","35",""
"","","","","","html-keyboard-response","213","591931","0.0-240.0-0.0","27","1","2023-10-23 04:04:52","a725c3012b74bf33a1020a98cb69c237","189.130.99.142","Mozilla/5.0 (Macintosh; Intel Mac OS X 10_15_7) AppleWebKit/605.1.15 (KHTML, like Gecko) Version/16.3 Safari/605.1.15","Macintosh","Safari","16.3","OS X","10_15_7","null","en-US,en;q=0.9","true","805","<p id=""stimulus"" style=""font-size:100px;"">69</p>","k","","","empty_block","","69","","","","0","35",""
"","","","","","html-keyboard-response","214","594806","0.0-241.0","27","1","2023-10-23 04:04:52","a725c3012b74bf33a1020a98cb69c237","189.130.99.142","Mozilla/5.0 (Macintosh; Intel Mac OS X 10_15_7) AppleWebKit/605.1.15 (KHTML, like Gecko) Version/16.3 Safari/605.1.15","Macintosh","Safari","16.3","OS X","10_15_7","null","en-US,en;q=0.9","true","null","<div style=""font-size:100px;"">X</div>","null","","","fixation","","","","","","","",""
"","","","","","audio-keyboard-response","215","594960","0.0-242.0","27","1","2023-10-23 04:04:52","a725c3012b74bf33a1020a98cb69c237","189.130.99.142","Mozilla/5.0 (Macintosh; Intel Mac OS X 10_15_7) AppleWebKit/605.1.15 (KHTML, like Gecko) Version/16.3 Safari/605.1.15","Macintosh","Safari","16.3","OS X","10_15_7","null","en-US,en;q=0.9","true","null","tones/880hz_short.mp3","null","","","tone_number_task","0","33","tones/880hz_short.mp3","150","100","0","36",""
"","","","","","html-keyboard-response","216","595421","0.0-245.0-0.0","27","1","2023-10-23 04:04:52","a725c3012b74bf33a1020a98cb69c237","189.130.99.142","Mozilla/5.0 (Macintosh; Intel Mac OS X 10_15_7) AppleWebKit/605.1.15 (KHTML, like Gecko) Version/16.3 Safari/605.1.15","Macintosh","Safari","16.3","OS X","10_15_7","null","en-US,en;q=0.9","true","458","tones/880hz_short.mp3","s","","","empty_block","","33","","","","0","36",""
"","","","","","html-keyboard-response","217","596184","0.0-245.0-1.0","27","1","2023-10-23 04:04:52","a725c3012b74bf33a1020a98cb69c237","189.130.99.142","Mozilla/5.0 (Macintosh; Intel Mac OS X 10_15_7) AppleWebKit/605.1.15 (KHTML, like Gecko) Version/16.3 Safari/605.1.15","Macintosh","Safari","16.3","OS X","10_15_7","null","en-US,en;q=0.9","true","760","tones/880hz_short.mp3","j","","","empty_block","","33","","","","0","36",""
