"success","timeout","failed_images","failed_audio","failed_video","trial_type","trial_index","time_elapsed","internal_node_id","run_id","condition","recorded_at","source_code_version","ip","user_agent","device","browser","browser_version","platform","platform_version","referer","accept_language","check","rt","stimulus","response","question_order","url","task","delay","number","audioFile","trial_duration","font_size","block","round","value"
"true","false","[]","[]","[]","preload","0","421","0.0-0.0","35","1","2023-10-31 21:05:22","a725c3012b74bf33a1020a98cb69c237","186.13.96.88","Mozilla/5.0 (Windows NT 10.0; Win64; x64) AppleWebKit/537.36 (KHTML, like Gecko) Chrome/118.0.0.0 Safari/537.36","WebKit","Chrome","118.0.0.0","Windows","10.0","null","en-US,en;q=0.9","true","","","","","","","","","","","","","",""
"true","","","","","fullscreen","1","164314","0.0-1.0","35","1","2023-10-31 21:05:22","a725c3012b74bf33a1020a98cb69c237","186.13.96.88","Mozilla/5.0 (Windows NT 10.0; Win64; x64) AppleWebKit/537.36 (KHTML, like Gecko) Chrome/118.0.0.0 Safari/537.36","WebKit","Chrome","118.0.0.0","Windows","10.0","null","en-US,en;q=0.9","true","","","","","","","","","","","","","",""
"","","","","","html-button-response","2","167023","0.0-2.0","35","1","2023-10-31 21:05:22","a725c3012b74bf33a1020a98cb69c237","186.13.96.88","Mozilla/5.0 (Windows NT 10.0; Win64; x64) AppleWebKit/537.36 (KHTML, like Gecko) Chrome/118.0.0.0 Safari/537.36","WebKit","Chrome","118.0.0.0","Windows","10.0","null","en-US,en;q=0.9","true","2707","<p style=""font-size:24px; color:red;"">Cosas importantes a tener en cuenta antes de comenzar el experimento:</p>","0","","","","","","","","","","",""
"","","","","","html-button-response","3","172023","0.0-3.0","35","1","2023-10-31 21:05:22","a725c3012b74bf33a1020a98cb69c237","186.13.96.88","Mozilla/5.0 (Windows NT 10.0; Win64; x64) AppleWebKit/537.36 (KHTML, like Gecko) Chrome/118.0.0.0 Safari/537.36","WebKit","Chrome","118.0.0.0","Windows","10.0","null","en-US,en;q=0.9","true","5000","<p style=""font-size:24px;"">El experimento dura aproximadamente 15 minutos.</p><p style=""font-size:24px;"">Por favor, no cierres la ventana del navegador durante el experimento.</p><p style=""font-size:24px;"">Si se completa de forma parcial, no se guardará ningún resultado.</p>","0","","","","","","","","","","",""
"","","","","","html-button-response","4","181280","0.0-4.0","35","1","2023-10-31 21:05:22","a725c3012b74bf33a1020a98cb69c237","186.13.96.88","Mozilla/5.0 (Windows NT 10.0; Win64; x64) AppleWebKit/537.36 (KHTML, like Gecko) Chrome/118.0.0.0 Safari/537.36","WebKit","Chrome","118.0.0.0","Windows","10.0","null","en-US,en;q=0.9","true","9255","<p style=""font-size:24px;"">El experimento contiene estímulos sonoros.</p>","0","","","","","","","","","","",""
"","","","","","audio-button-response","5","185727","0.0-5.0-0.0","35","1","2023-10-31 21:05:22","a725c3012b74bf33a1020a98cb69c237","186.13.96.88","Mozilla/5.0 (Windows NT 10.0; Win64; x64) AppleWebKit/537.36 (KHTML, like Gecko) Chrome/118.0.0.0 Safari/537.36","WebKit","Chrome","118.0.0.0","Windows","10.0","null","en-US,en;q=0.9","true","3797","tones/440hz_short.mp3","1","","","","","","","","","","",""
"","","","","","audio-button-response","6","187272","0.0-6.0-0.0","35","1","2023-10-31 21:05:22","a725c3012b74bf33a1020a98cb69c237","186.13.96.88","Mozilla/5.0 (Windows NT 10.0; Win64; x64) AppleWebKit/537.36 (KHTML, like Gecko) Chrome/118.0.0.0 Safari/537.36","WebKit","Chrome","118.0.0.0","Windows","10.0","null","en-US,en;q=0.9","true","1536","tones/880hz_short.mp3","1","","","","","","","","","","",""
"","","","","","survey-html-form","7","191024","0.0-7.0","35","1","2023-10-31 21:05:22","a725c3012b74bf33a1020a98cb69c237","186.13.96.88","Mozilla/5.0 (Windows NT 10.0; Win64; x64) AppleWebKit/537.36 (KHTML, like Gecko) Chrome/118.0.0.0 Safari/537.36","WebKit","Chrome","118.0.0.0","Windows","10.0","null","en-US,en;q=0.9","true","3749","","{""response"":""33""}","","","","","","","","","","",""
"","","","","","survey-multi-choice","8","196801","0.0-8.0","35","1","2023-10-31 21:05:22","a725c3012b74bf33a1020a98cb69c237","186.13.96.88","Mozilla/5.0 (Windows NT 10.0; Win64; x64) AppleWebKit/537.36 (KHTML, like Gecko) Chrome/118.0.0.0 Safari/537.36","WebKit","Chrome","118.0.0.0","Windows","10.0","null","en-US,en;q=0.9","true","5774","","{""gender"":""Mujer"",""hand"":""Derecha""}","[0,1]","","","","","","","","","",""
"","","","","","external-html","9","309578","0.0-9.0","35","1","2023-10-31 21:05:22","a725c3012b74bf33a1020a98cb69c237","186.13.96.88","Mozilla/5.0 (Windows NT 10.0; Win64; x64) AppleWebKit/537.36 (KHTML, like Gecko) Chrome/118.0.0.0 Safari/537.36","WebKit","Chrome","118.0.0.0","Windows","10.0","null","en-US,en;q=0.9","true","112474","","","","instructions/instructions.html","","","","","","","","",""
"","","","","","external-html","10","348060","0.0-10.0","35","1","2023-10-31 21:05:22","a725c3012b74bf33a1020a98cb69c237","186.13.96.88","Mozilla/5.0 (Windows NT 10.0; Win64; x64) AppleWebKit/537.36 (KHTML, like Gecko) Chrome/118.0.0.0 Safari/537.36","WebKit","Chrome","118.0.0.0","Windows","10.0","null","en-US,en;q=0.9","true","38179","","","","instructions/animation.html","","","","","","","","",""
"","","","","","html-keyboard-response","11","350695","0.0-11.0-0.0","35","1","2023-10-31 21:05:22","a725c3012b74bf33a1020a98cb69c237","186.13.96.88","Mozilla/5.0 (Windows NT 10.0; Win64; x64) AppleWebKit/537.36 (KHTML, like Gecko) Chrome/118.0.0.0 Safari/537.36","WebKit","Chrome","118.0.0.0","Windows","10.0","null","en-US,en;q=0.9","true","null","<div style=""font-size:100px;"">X</div>","null","","","fixation","","","","","","","",""
"","","","","","audio-keyboard-response","12","351848","0.0-11.0-1.0","35","1","2023-10-31 21:05:22","a725c3012b74bf33a1020a98cb69c237","186.13.96.88","Mozilla/5.0 (Windows NT 10.0; Win64; x64) AppleWebKit/537.36 (KHTML, like Gecko) Chrome/118.0.0.0 Safari/537.36","WebKit","Chrome","118.0.0.0","Windows","10.0","null","en-US,en;q=0.9","true","null","tones/880hz_short.mp3","null","","","tone_number_task","1000","57","tones/880hz_short.mp3","1150","100","null","null",""
"","","","","","html-keyboard-response","13","352521","0.0-11.0-4.0-0.0","35","1","2023-10-31 21:05:22","a725c3012b74bf33a1020a98cb69c237","186.13.96.88","Mozilla/5.0 (Windows NT 10.0; Win64; x64) AppleWebKit/537.36 (KHTML, like Gecko) Chrome/118.0.0.0 Safari/537.36","WebKit","Chrome","118.0.0.0","Windows","10.0","null","en-US,en;q=0.9","true","672","tones/880hz_short.mp3","s","","","empty_block","","57","","","","null","null",""
"","","","","","html-keyboard-response","14","353687","0.0-11.0-4.0-1.0","35","1","2023-10-31 21:05:22","a725c3012b74bf33a1020a98cb69c237","186.13.96.88","Mozilla/5.0 (Windows NT 10.0; Win64; x64) AppleWebKit/537.36 (KHTML, like Gecko) Chrome/118.0.0.0 Safari/537.36","WebKit","Chrome","118.0.0.0","Windows","10.0","null","en-US,en;q=0.9","true","1165","tones/880hz_short.mp3","j","","","empty_block","","57","","","","null","null",""
"","","","","","html-button-response","15","357188","0.0-11.0-6.0-0.0","35","1","2023-10-31 21:05:22","a725c3012b74bf33a1020a98cb69c237","186.13.96.88","Mozilla/5.0 (Windows NT 10.0; Win64; x64) AppleWebKit/537.36 (KHTML, like Gecko) Chrome/118.0.0.0 Safari/537.36","WebKit","Chrome","118.0.0.0","Windows","10.0","null","en-US,en;q=0.9","true","3499","
  '<p style=""font-size:24px; color:red;"">Incorrecto</p><p> Respondiste alguno de los estímulos de manera incorrecta.</p><p>Por favor, repasá las instrucciones y seguimos desde donde nos quedamos. </p>
  ","0","","","","","","","","","","",""
"","","","","","external-html","16","369212","0.0-11.0-6.0-1.0","35","1","2023-10-31 21:05:22","a725c3012b74bf33a1020a98cb69c237","186.13.96.88","Mozilla/5.0 (Windows NT 10.0; Win64; x64) AppleWebKit/537.36 (KHTML, like Gecko) Chrome/118.0.0.0 Safari/537.36","WebKit","Chrome","118.0.0.0","Windows","10.0","null","en-US,en;q=0.9","true","11721","","","","instructions/instructions_B.html","","","","","","","","",""
"","","","","","html-keyboard-response","17","371847","0.0-11.1-0.1","35","1","2023-10-31 21:05:22","a725c3012b74bf33a1020a98cb69c237","186.13.96.88","Mozilla/5.0 (Windows NT 10.0; Win64; x64) AppleWebKit/537.36 (KHTML, like Gecko) Chrome/118.0.0.0 Safari/537.36","WebKit","Chrome","118.0.0.0","Windows","10.0","null","en-US,en;q=0.9","true","null","<div style=""font-size:100px;"">X</div>","null","","","fixation","","","","","","","",""
"","","","","","audio-keyboard-response","18","372999","0.0-11.1-1.1","35","1","2023-10-31 21:05:22","a725c3012b74bf33a1020a98cb69c237","186.13.96.88","Mozilla/5.0 (Windows NT 10.0; Win64; x64) AppleWebKit/537.36 (KHTML, like Gecko) Chrome/118.0.0.0 Safari/537.36","WebKit","Chrome","118.0.0.0","Windows","10.0","null","en-US,en;q=0.9","true","null","tones/880hz_short.mp3","null","","","tone_number_task","1000","57","tones/880hz_short.mp3","1150","100","null","null",""
"","","","","","html-keyboard-response","19","373413","0.0-11.1-4.1-0.1","35","1","2023-10-31 21:05:22","a725c3012b74bf33a1020a98cb69c237","186.13.96.88","Mozilla/5.0 (Windows NT 10.0; Win64; x64) AppleWebKit/537.36 (KHTML, like Gecko) Chrome/118.0.0.0 Safari/537.36","WebKit","Chrome","118.0.0.0","Windows","10.0","null","en-US,en;q=0.9","true","413","tones/880hz_short.mp3","s","","","empty_block","","57","","","","null","null",""
"","","","","","html-keyboard-response","20","374172","0.0-11.1-4.1-1.1","35","1","2023-10-31 21:05:22","a725c3012b74bf33a1020a98cb69c237","186.13.96.88","Mozilla/5.0 (Windows NT 10.0; Win64; x64) AppleWebKit/537.36 (KHTML, like Gecko) Chrome/118.0.0.0 Safari/537.36","WebKit","Chrome","118.0.0.0","Windows","10.0","null","en-US,en;q=0.9","true","758","tones/880hz_short.mp3","k","","","empty_block","","57","","","","null","null",""
"","","","","","html-keyboard-response","21","376806","0.0-13.0-0.0","35","1","2023-10-31 21:05:22","a725c3012b74bf33a1020a98cb69c237","186.13.96.88","Mozilla/5.0 (Windows NT 10.0; Win64; x64) AppleWebKit/537.36 (KHTML, like Gecko) Chrome/118.0.0.0 Safari/537.36","WebKit","Chrome","118.0.0.0","Windows","10.0","null","en-US,en;q=0.9","true","null","<div style=""font-size:100px;"">X</div>","null","","","fixation","","","","","","","",""
"","","","","","audio-keyboard-response","22","377459","0.0-13.0-1.0","35","1","2023-10-31 21:05:22","a725c3012b74bf33a1020a98cb69c237","186.13.96.88","Mozilla/5.0 (Windows NT 10.0; Win64; x64) AppleWebKit/537.36 (KHTML, like Gecko) Chrome/118.0.0.0 Safari/537.36","WebKit","Chrome","118.0.0.0","Windows","10.0","null","en-US,en;q=0.9","true","null","tones/880hz_short.mp3","null","","","tone_number_task","500","49","tones/880hz_short.mp3","650","100","null","null",""
"","","","","","html-keyboard-response","23","377974","0.0-13.0-4.0-0.0","35","1","2023-10-31 21:05:22","a725c3012b74bf33a1020a98cb69c237","186.13.96.88","Mozilla/5.0 (Windows NT 10.0; Win64; x64) AppleWebKit/537.36 (KHTML, like Gecko) Chrome/118.0.0.0 Safari/537.36","WebKit","Chrome","118.0.0.0","Windows","10.0","null","en-US,en;q=0.9","true","514","tones/880hz_short.mp3","s","","","empty_block","","49","","","","null","null",""
"","","","","","html-keyboard-response","24","378829","0.0-13.0-4.0-1.0","35","1","2023-10-31 21:05:22","a725c3012b74bf33a1020a98cb69c237","186.13.96.88","Mozilla/5.0 (Windows NT 10.0; Win64; x64) AppleWebKit/537.36 (KHTML, like Gecko) Chrome/118.0.0.0 Safari/537.36","WebKit","Chrome","118.0.0.0","Windows","10.0","null","en-US,en;q=0.9","true","854","tones/880hz_short.mp3","k","","","empty_block","","49","","","","null","null",""
"","","","","","html-keyboard-response","25","381463","0.0-15.0-0.0","35","1","2023-10-31 21:05:22","a725c3012b74bf33a1020a98cb69c237","186.13.96.88","Mozilla/5.0 (Windows NT 10.0; Win64; x64) AppleWebKit/537.36 (KHTML, like Gecko) Chrome/118.0.0.0 Safari/537.36","WebKit","Chrome","118.0.0.0","Windows","10.0","null","en-US,en;q=0.9","true","null","<div style=""font-size:100px;"">X</div>","null","","","fixation","","","","","","","",""
"","","","","","audio-keyboard-response","26","381765","0.0-15.0-1.0","35","1","2023-10-31 21:05:22","a725c3012b74bf33a1020a98cb69c237","186.13.96.88","Mozilla/5.0 (Windows NT 10.0; Win64; x64) AppleWebKit/537.36 (KHTML, like Gecko) Chrome/118.0.0.0 Safari/537.36","WebKit","Chrome","118.0.0.0","Windows","10.0","null","en-US,en;q=0.9","true","null","tones/440hz_short.mp3","null","","","tone_number_task","150","52","tones/440hz_short.mp3","300","100","null","null",""
"","","","","","html-keyboard-response","27","383585","0.0-15.0-4.0-0.0","35","1","2023-10-31 21:05:22","a725c3012b74bf33a1020a98cb69c237","186.13.96.88","Mozilla/5.0 (Windows NT 10.0; Win64; x64) AppleWebKit/537.36 (KHTML, like Gecko) Chrome/118.0.0.0 Safari/537.36","WebKit","Chrome","118.0.0.0","Windows","10.0","null","en-US,en;q=0.9","true","1819","tones/440hz_short.mp3","a","","","empty_block","","52","","","","null","null",""
"","","","","","html-keyboard-response","28","384495","0.0-15.0-4.0-1.0","35","1","2023-10-31 21:05:22","a725c3012b74bf33a1020a98cb69c237","186.13.96.88","Mozilla/5.0 (Windows NT 10.0; Win64; x64) AppleWebKit/537.36 (KHTML, like Gecko) Chrome/118.0.0.0 Safari/537.36","WebKit","Chrome","118.0.0.0","Windows","10.0","null","en-US,en;q=0.9","true","909","tones/440hz_short.mp3","k","","","empty_block","","52","","","","null","null",""
"","","","","","html-keyboard-response","29","387129","0.0-17.0-0.0","35","1","2023-10-31 21:05:22","a725c3012b74bf33a1020a98cb69c237","186.13.96.88","Mozilla/5.0 (Windows NT 10.0; Win64; x64) AppleWebKit/537.36 (KHTML, like Gecko) Chrome/118.0.0.0 Safari/537.36","WebKit","Chrome","118.0.0.0","Windows","10.0","null","en-US,en;q=0.9","true","null","<div style=""font-size:100px;"">X</div>","null","","","fixation","","","","","","","",""
"","","","","","audio-keyboard-response","30","387340","0.0-17.0-1.0","35","1","2023-10-31 21:05:22","a725c3012b74bf33a1020a98cb69c237","186.13.96.88","Mozilla/5.0 (Windows NT 10.0; Win64; x64) AppleWebKit/537.36 (KHTML, like Gecko) Chrome/118.0.0.0 Safari/537.36","WebKit","Chrome","118.0.0.0","Windows","10.0","null","en-US,en;q=0.9","true","null","tones/880hz_short.mp3","null","","","tone_number_task","50","48","tones/880hz_short.mp3","200","100","null","null",""
"","","","","","html-keyboard-response","31","389700","0.0-17.0-4.0-0.0","35","1","2023-10-31 21:05:22","a725c3012b74bf33a1020a98cb69c237","186.13.96.88","Mozilla/5.0 (Windows NT 10.0; Win64; x64) AppleWebKit/537.36 (KHTML, like Gecko) Chrome/118.0.0.0 Safari/537.36","WebKit","Chrome","118.0.0.0","Windows","10.0","null","en-US,en;q=0.9","true","2359","tones/880hz_short.mp3","a","","","empty_block","","48","","","","null","null",""
"","","","","","html-keyboard-response","32","390747","0.0-17.0-4.0-1.0","35","1","2023-10-31 21:05:22","a725c3012b74bf33a1020a98cb69c237","186.13.96.88","Mozilla/5.0 (Windows NT 10.0; Win64; x64) AppleWebKit/537.36 (KHTML, like Gecko) Chrome/118.0.0.0 Safari/537.36","WebKit","Chrome","118.0.0.0","Windows","10.0","null","en-US,en;q=0.9","true","1046","tones/880hz_short.mp3","k","","","empty_block","","48","","","","null","null",""
"","","","","","html-button-response","33","393781","0.0-17.0-6.0-0.0","35","1","2023-10-31 21:05:22","a725c3012b74bf33a1020a98cb69c237","186.13.96.88","Mozilla/5.0 (Windows NT 10.0; Win64; x64) AppleWebKit/537.36 (KHTML, like Gecko) Chrome/118.0.0.0 Safari/537.36","WebKit","Chrome","118.0.0.0","Windows","10.0","null","en-US,en;q=0.9","true","3032","
  '<p style=""font-size:24px; color:red;"">Incorrecto</p><p> Respondiste alguno de los estímulos de manera incorrecta.</p><p>Por favor, repasá las instrucciones y seguimos desde donde nos quedamos. </p>
  ","0","","","","","","","","","","",""
"","","","","","external-html","34","402061","0.0-17.0-6.0-1.0","35","1","2023-10-31 21:05:22","a725c3012b74bf33a1020a98cb69c237","186.13.96.88","Mozilla/5.0 (Windows NT 10.0; Win64; x64) AppleWebKit/537.36 (KHTML, like Gecko) Chrome/118.0.0.0 Safari/537.36","WebKit","Chrome","118.0.0.0","Windows","10.0","null","en-US,en;q=0.9","true","8000","","","","instructions/instructions_B.html","","","","","","","","",""
"","","","","","html-keyboard-response","35","404696","0.0-17.1-0.1","35","1","2023-10-31 21:05:22","a725c3012b74bf33a1020a98cb69c237","186.13.96.88","Mozilla/5.0 (Windows NT 10.0; Win64; x64) AppleWebKit/537.36 (KHTML, like Gecko) Chrome/118.0.0.0 Safari/537.36","WebKit","Chrome","118.0.0.0","Windows","10.0","null","en-US,en;q=0.9","true","null","<div style=""font-size:100px;"">X</div>","null","","","fixation","","","","","","","",""
"","","","","","audio-keyboard-response","36","404898","0.0-17.1-1.1","35","1","2023-10-31 21:05:22","a725c3012b74bf33a1020a98cb69c237","186.13.96.88","Mozilla/5.0 (Windows NT 10.0; Win64; x64) AppleWebKit/537.36 (KHTML, like Gecko) Chrome/118.0.0.0 Safari/537.36","WebKit","Chrome","118.0.0.0","Windows","10.0","null","en-US,en;q=0.9","true","null","tones/880hz_short.mp3","null","","","tone_number_task","50","48","tones/880hz_short.mp3","200","100","null","null",""
"","","","","","html-keyboard-response","37","406318","0.0-17.1-4.1-0.1","35","1","2023-10-31 21:05:22","a725c3012b74bf33a1020a98cb69c237","186.13.96.88","Mozilla/5.0 (Windows NT 10.0; Win64; x64) AppleWebKit/537.36 (KHTML, like Gecko) Chrome/118.0.0.0 Safari/537.36","WebKit","Chrome","118.0.0.0","Windows","10.0","null","en-US,en;q=0.9","true","1418","tones/880hz_short.mp3","s","","","empty_block","","48","","","","null","null",""
"","","","","","html-keyboard-response","38","407035","0.0-17.1-4.1-1.1","35","1","2023-10-31 21:05:22","a725c3012b74bf33a1020a98cb69c237","186.13.96.88","Mozilla/5.0 (Windows NT 10.0; Win64; x64) AppleWebKit/537.36 (KHTML, like Gecko) Chrome/118.0.0.0 Safari/537.36","WebKit","Chrome","118.0.0.0","Windows","10.0","null","en-US,en;q=0.9","true","717","tones/880hz_short.mp3","k","","","empty_block","","48","","","","null","null",""
"","","","","","html-button-response","39","412526","0.0-19.0","35","1","2023-10-31 21:05:22","a725c3012b74bf33a1020a98cb69c237","186.13.96.88","Mozilla/5.0 (Windows NT 10.0; Win64; x64) AppleWebKit/537.36 (KHTML, like Gecko) Chrome/118.0.0.0 Safari/537.36","WebKit","Chrome","118.0.0.0","Windows","10.0","null","en-US,en;q=0.9","true","5490","
  <h1> Muy bien </h1>
  <p> Ahora, en vez de ser presentados en dígitos, los números vendrán escritos en palabras. </p>
  <p> Por ejemplo, en vez de 44 te aparecerá ""cuarenta y cuatro"". </p>
  ","0","","","","","","","","","","",""
"","","","","","html-keyboard-response","40","415160","0.0-20.0-0.0","35","1","2023-10-31 21:05:22","a725c3012b74bf33a1020a98cb69c237","186.13.96.88","Mozilla/5.0 (Windows NT 10.0; Win64; x64) AppleWebKit/537.36 (KHTML, like Gecko) Chrome/118.0.0.0 Safari/537.36","WebKit","Chrome","118.0.0.0","Windows","10.0","null","en-US,en;q=0.9","true","null","<div style=""font-size:100px;"">X</div>","null","","","fixation","","","","","","","",""
"","","","","","audio-keyboard-response","41","416314","0.0-20.0-1.0","35","1","2023-10-31 21:05:22","a725c3012b74bf33a1020a98cb69c237","186.13.96.88","Mozilla/5.0 (Windows NT 10.0; Win64; x64) AppleWebKit/537.36 (KHTML, like Gecko) Chrome/118.0.0.0 Safari/537.36","WebKit","Chrome","118.0.0.0","Windows","10.0","null","en-US,en;q=0.9","true","null","tones/880hz_short.mp3","null","","","tone_number_task","1000","sesenta y dos","tones/880hz_short.mp3","1150","60","null","null",""
"","","","","","html-keyboard-response","42","416352","0.0-20.0-4.0-0.0","35","1","2023-10-31 21:05:22","a725c3012b74bf33a1020a98cb69c237","186.13.96.88","Mozilla/5.0 (Windows NT 10.0; Win64; x64) AppleWebKit/537.36 (KHTML, like Gecko) Chrome/118.0.0.0 Safari/537.36","WebKit","Chrome","118.0.0.0","Windows","10.0","null","en-US,en;q=0.9","true","36","tones/880hz_short.mp3","s","","","empty_block","","sesenta y dos","","","","null","null",""
"","","","","","html-keyboard-response","43","417126","0.0-20.0-4.0-1.0","35","1","2023-10-31 21:05:22","a725c3012b74bf33a1020a98cb69c237","186.13.96.88","Mozilla/5.0 (Windows NT 10.0; Win64; x64) AppleWebKit/537.36 (KHTML, like Gecko) Chrome/118.0.0.0 Safari/537.36","WebKit","Chrome","118.0.0.0","Windows","10.0","null","en-US,en;q=0.9","true","772","tones/880hz_short.mp3","k","","","empty_block","","sesenta y dos","","","","null","null",""
"","","","","","html-button-response","44","421815","0.0-22.0","35","1","2023-10-31 21:05:22","a725c3012b74bf33a1020a98cb69c237","186.13.96.88","Mozilla/5.0 (Windows NT 10.0; Win64; x64) AppleWebKit/537.36 (KHTML, like Gecko) Chrome/118.0.0.0 Safari/537.36","WebKit","Chrome","118.0.0.0","Windows","10.0","null","en-US,en;q=0.9","true","4688","
  <h1> Fin del Entrenamiento </h1>
  <p> ¡Felicitaciones, terminaste el entrenamiento! Ahora vamos a comenzar con el experimento. </p>
  <p> Es importante tener en cuenta que consta de cuatro bloques.</p>
  <p> Podés aprovechar los momentos entre bloques para tomar un breve descanso o tomar agua entre cada uno</p>
  <p> Recordá que tenés que responder lo más rápido que puedas, pero sin equivocarte. </p>
  ","0","","","","","","","","","","",""
"","","","","","external-html","45","429055","0.0-23.0","35","1","2023-10-31 21:05:22","a725c3012b74bf33a1020a98cb69c237","186.13.96.88","Mozilla/5.0 (Windows NT 10.0; Win64; x64) AppleWebKit/537.36 (KHTML, like Gecko) Chrome/118.0.0.0 Safari/537.36","WebKit","Chrome","118.0.0.0","Windows","10.0","null","en-US,en;q=0.9","true","6940","","","","instructions/instructions_words_first.html","","","","","","","","",""
"","","","","","call-function","46","429057","0.0-24.0","35","1","2023-10-31 21:05:22","a725c3012b74bf33a1020a98cb69c237","186.13.96.88","Mozilla/5.0 (Windows NT 10.0; Win64; x64) AppleWebKit/537.36 (KHTML, like Gecko) Chrome/118.0.0.0 Safari/537.36","WebKit","Chrome","118.0.0.0","Windows","10.0","null","en-US,en;q=0.9","true","","","","","","","","","","","","","",""
"","","","","","html-keyboard-response","47","431691","0.0-25.0","35","1","2023-10-31 21:05:22","a725c3012b74bf33a1020a98cb69c237","186.13.96.88","Mozilla/5.0 (Windows NT 10.0; Win64; x64) AppleWebKit/537.36 (KHTML, like Gecko) Chrome/118.0.0.0 Safari/537.36","WebKit","Chrome","118.0.0.0","Windows","10.0","null","en-US,en;q=0.9","true","null","<div style=""font-size:100px;"">X</div>","null","","","fixation","","","","","","","",""
"","","","","","audio-keyboard-response","48","432817","0.0-26.0","35","1","2023-10-31 21:05:22","a725c3012b74bf33a1020a98cb69c237","186.13.96.88","Mozilla/5.0 (Windows NT 10.0; Win64; x64) AppleWebKit/537.36 (KHTML, like Gecko) Chrome/118.0.0.0 Safari/537.36","WebKit","Chrome","118.0.0.0","Windows","10.0","null","en-US,en;q=0.9","true","1131","tones/880hz_short.mp3","s","","","tone_number_task","1025","cuarenta y cuatro","tones/880hz_short.mp3","1175","60","2","0",""
"","","","","","html-keyboard-response","49","432862","0.0-28.0-0.0","35","1","2023-10-31 21:05:22","a725c3012b74bf33a1020a98cb69c237","186.13.96.88","Mozilla/5.0 (Windows NT 10.0; Win64; x64) AppleWebKit/537.36 (KHTML, like Gecko) Chrome/118.0.0.0 Safari/537.36","WebKit","Chrome","118.0.0.0","Windows","10.0","null","en-US,en;q=0.9","true","null","<p id=""stimulus"" style=""font-size:60px;"">cuarenta y cuatro</p>","null","","","tone_number_task_remaining_after_delay","","cuarenta y cuatro","","","60","2","0",""
"","","","","","html-keyboard-response","50","434065","0.0-30.0-0.0","35","1","2023-10-31 21:05:22","a725c3012b74bf33a1020a98cb69c237","186.13.96.88","Mozilla/5.0 (Windows NT 10.0; Win64; x64) AppleWebKit/537.36 (KHTML, like Gecko) Chrome/118.0.0.0 Safari/537.36","WebKit","Chrome","118.0.0.0","Windows","10.0","null","en-US,en;q=0.9","true","null","<p id=""stimulus"" style=""font-size:60px;"">cuarenta y cuatro</p>","null","","","empty_block","","cuarenta y cuatro","","","","2","0",""
"","","","","","html-keyboard-response","51","436699","0.0-31.0","35","1","2023-10-31 21:05:22","a725c3012b74bf33a1020a98cb69c237","186.13.96.88","Mozilla/5.0 (Windows NT 10.0; Win64; x64) AppleWebKit/537.36 (KHTML, like Gecko) Chrome/118.0.0.0 Safari/537.36","WebKit","Chrome","118.0.0.0","Windows","10.0","null","en-US,en;q=0.9","true","null","<div style=""font-size:100px;"">X</div>","null","","","fixation","","","","","","","",""
"","","","","","audio-keyboard-response","52","436852","0.0-32.0","35","1","2023-10-31 21:05:22","a725c3012b74bf33a1020a98cb69c237","186.13.96.88","Mozilla/5.0 (Windows NT 10.0; Win64; x64) AppleWebKit/537.36 (KHTML, like Gecko) Chrome/118.0.0.0 Safari/537.36","WebKit","Chrome","118.0.0.0","Windows","10.0","null","en-US,en;q=0.9","true","null","tones/880hz_short.mp3","null","","","tone_number_task","0","treinta y nueve","tones/880hz_short.mp3","150","60","2","1",""
"","","","","","html-keyboard-response","53","437355","0.0-35.0-0.0","35","1","2023-10-31 21:05:22","a725c3012b74bf33a1020a98cb69c237","186.13.96.88","Mozilla/5.0 (Windows NT 10.0; Win64; x64) AppleWebKit/537.36 (KHTML, like Gecko) Chrome/118.0.0.0 Safari/537.36","WebKit","Chrome","118.0.0.0","Windows","10.0","null","en-US,en;q=0.9","true","502","tones/880hz_short.mp3","s","","","empty_block","","treinta y nueve","","","","2","1",""
"","","","","","html-keyboard-response","54","437687","0.0-35.0-1.0","35","1","2023-10-31 21:05:22","a725c3012b74bf33a1020a98cb69c237","186.13.96.88","Mozilla/5.0 (Windows NT 10.0; Win64; x64) AppleWebKit/537.36 (KHTML, like Gecko) Chrome/118.0.0.0 Safari/537.36","WebKit","Chrome","118.0.0.0","Windows","10.0","null","en-US,en;q=0.9","true","330","tones/880hz_short.mp3","j","","","empty_block","","treinta y nueve","","","","2","1",""
"","","","","","html-keyboard-response","55","440321","0.0-37.0","35","1","2023-10-31 21:05:22","a725c3012b74bf33a1020a98cb69c237","186.13.96.88","Mozilla/5.0 (Windows NT 10.0; Win64; x64) AppleWebKit/537.36 (KHTML, like Gecko) Chrome/118.0.0.0 Safari/537.36","WebKit","Chrome","118.0.0.0","Windows","10.0","null","en-US,en;q=0.9","true","null","<div style=""font-size:100px;"">X</div>","null","","","fixation","","","","","","","",""
"","","","","","audio-keyboard-response","56","440576","0.0-38.0","35","1","2023-10-31 21:05:22","a725c3012b74bf33a1020a98cb69c237","186.13.96.88","Mozilla/5.0 (Windows NT 10.0; Win64; x64) AppleWebKit/537.36 (KHTML, like Gecko) Chrome/118.0.0.0 Safari/537.36","WebKit","Chrome","118.0.0.0","Windows","10.0","null","en-US,en;q=0.9","true","null","tones/880hz_short.mp3","null","","","tone_number_task","102.5","cuarenta y uno","tones/880hz_short.mp3","252.5","60","2","2",""
"","","","","","html-keyboard-response","57","440909","0.0-41.0-0.0","35","1","2023-10-31 21:05:22","a725c3012b74bf33a1020a98cb69c237","186.13.96.88","Mozilla/5.0 (Windows NT 10.0; Win64; x64) AppleWebKit/537.36 (KHTML, like Gecko) Chrome/118.0.0.0 Safari/537.36","WebKit","Chrome","118.0.0.0","Windows","10.0","null","en-US,en;q=0.9","true","332","tones/880hz_short.mp3","s","","","empty_block","","cuarenta y uno","","","","2","2",""
"","","","","","html-keyboard-response","58","441602","0.0-41.0-1.0","35","1","2023-10-31 21:05:22","a725c3012b74bf33a1020a98cb69c237","186.13.96.88","Mozilla/5.0 (Windows NT 10.0; Win64; x64) AppleWebKit/537.36 (KHTML, like Gecko) Chrome/118.0.0.0 Safari/537.36","WebKit","Chrome","118.0.0.0","Windows","10.0","null","en-US,en;q=0.9","true","691","tones/880hz_short.mp3","j","","","empty_block","","cuarenta y uno","","","","2","2",""
"","","","","","html-keyboard-response","59","444236","0.0-43.0","35","1","2023-10-31 21:05:22","a725c3012b74bf33a1020a98cb69c237","186.13.96.88","Mozilla/5.0 (Windows NT 10.0; Win64; x64) AppleWebKit/537.36 (KHTML, like Gecko) Chrome/118.0.0.0 Safari/537.36","WebKit","Chrome","118.0.0.0","Windows","10.0","null","en-US,en;q=0.9","true","null","<div style=""font-size:100px;"">X</div>","null","","","fixation","","","","","","","",""
"","","","","","audio-keyboard-response","60","444952","0.0-44.0","35","1","2023-10-31 21:05:22","a725c3012b74bf33a1020a98cb69c237","186.13.96.88","Mozilla/5.0 (Windows NT 10.0; Win64; x64) AppleWebKit/537.36 (KHTML, like Gecko) Chrome/118.0.0.0 Safari/537.36","WebKit","Chrome","118.0.0.0","Windows","10.0","null","en-US,en;q=0.9","true","715","tones/440hz_short.mp3","a","","","tone_number_task","992.5","cincuenta y seis","tones/440hz_short.mp3","1142.5","60","2","3",""
"","","","","","html-keyboard-response","61","445231","0.0-45.0-0.0","35","1","2023-10-31 21:05:22","a725c3012b74bf33a1020a98cb69c237","186.13.96.88","Mozilla/5.0 (Windows NT 10.0; Win64; x64) AppleWebKit/537.36 (KHTML, like Gecko) Chrome/118.0.0.0 Safari/537.36","WebKit","Chrome","118.0.0.0","Windows","10.0","null","en-US,en;q=0.9","true","null","","null","","","delay_block","","","","","","2","3",""
"","","","","","html-keyboard-response","62","445384","0.0-45.0-1.0","35","1","2023-10-31 21:05:22","a725c3012b74bf33a1020a98cb69c237","186.13.96.88","Mozilla/5.0 (Windows NT 10.0; Win64; x64) AppleWebKit/537.36 (KHTML, like Gecko) Chrome/118.0.0.0 Safari/537.36","WebKit","Chrome","118.0.0.0","Windows","10.0","null","en-US,en;q=0.9","true","null","<p id=""stimulus"" style=""font-size:60px;"">cincuenta y seis</p>","null","","","tone_number_task_remaining_before_delay","","cincuenta y seis","","427.5","60","2","3",""
"","","","","","html-keyboard-response","63","446174","0.0-48.0-0.0","35","1","2023-10-31 21:05:22","a725c3012b74bf33a1020a98cb69c237","186.13.96.88","Mozilla/5.0 (Windows NT 10.0; Win64; x64) AppleWebKit/537.36 (KHTML, like Gecko) Chrome/118.0.0.0 Safari/537.36","WebKit","Chrome","118.0.0.0","Windows","10.0","null","en-US,en;q=0.9","true","788","<p id=""stimulus"" style=""font-size:60px;"">cincuenta y seis</p>","k","","","empty_block","","cincuenta y seis","","","","2","3",""
"","","","","","html-keyboard-response","64","448808","0.0-49.0","35","1","2023-10-31 21:05:22","a725c3012b74bf33a1020a98cb69c237","186.13.96.88","Mozilla/5.0 (Windows NT 10.0; Win64; x64) AppleWebKit/537.36 (KHTML, like Gecko) Chrome/118.0.0.0 Safari/537.36","WebKit","Chrome","118.0.0.0","Windows","10.0","null","en-US,en;q=0.9","true","null","<div style=""font-size:100px;"">X</div>","null","","","fixation","","","","","","","",""
"","","","","","audio-keyboard-response","65","449760","0.0-50.0","35","1","2023-10-31 21:05:22","a725c3012b74bf33a1020a98cb69c237","186.13.96.88","Mozilla/5.0 (Windows NT 10.0; Win64; x64) AppleWebKit/537.36 (KHTML, like Gecko) Chrome/118.0.0.0 Safari/537.36","WebKit","Chrome","118.0.0.0","Windows","10.0","null","en-US,en;q=0.9","true","949","tones/440hz_short.mp3","a","","","tone_number_task","1025","treinta y nueve","tones/440hz_short.mp3","1175","60","2","4",""
"","","","","","html-keyboard-response","66","449838","0.0-51.0-0.0","35","1","2023-10-31 21:05:22","a725c3012b74bf33a1020a98cb69c237","186.13.96.88","Mozilla/5.0 (Windows NT 10.0; Win64; x64) AppleWebKit/537.36 (KHTML, like Gecko) Chrome/118.0.0.0 Safari/537.36","WebKit","Chrome","118.0.0.0","Windows","10.0","null","en-US,en;q=0.9","true","null","","null","","","delay_block","","","","","","2","4",""
"","","","","","html-keyboard-response","67","449991","0.0-51.0-1.0","35","1","2023-10-31 21:05:22","a725c3012b74bf33a1020a98cb69c237","186.13.96.88","Mozilla/5.0 (Windows NT 10.0; Win64; x64) AppleWebKit/537.36 (KHTML, like Gecko) Chrome/118.0.0.0 Safari/537.36","WebKit","Chrome","118.0.0.0","Windows","10.0","null","en-US,en;q=0.9","true","null","<p id=""stimulus"" style=""font-size:60px;"">treinta y nueve</p>","null","","","tone_number_task_remaining_before_delay","","treinta y nueve","","226","60","2","4",""
"","","","","","html-keyboard-response","68","450708","0.0-54.0-0.0","35","1","2023-10-31 21:05:22","a725c3012b74bf33a1020a98cb69c237","186.13.96.88","Mozilla/5.0 (Windows NT 10.0; Win64; x64) AppleWebKit/537.36 (KHTML, like Gecko) Chrome/118.0.0.0 Safari/537.36","WebKit","Chrome","118.0.0.0","Windows","10.0","null","en-US,en;q=0.9","true","715","<p id=""stimulus"" style=""font-size:60px;"">treinta y nueve</p>","j","","","empty_block","","treinta y nueve","","","","2","4",""
"","","","","","html-keyboard-response","69","453341","0.0-55.0","35","1","2023-10-31 21:05:22","a725c3012b74bf33a1020a98cb69c237","186.13.96.88","Mozilla/5.0 (Windows NT 10.0; Win64; x64) AppleWebKit/537.36 (KHTML, like Gecko) Chrome/118.0.0.0 Safari/537.36","WebKit","Chrome","118.0.0.0","Windows","10.0","null","en-US,en;q=0.9","true","null","<div style=""font-size:100px;"">X</div>","null","","","fixation","","","","","","","",""
"","","","","","audio-keyboard-response","70","453610","0.0-56.0","35","1","2023-10-31 21:05:22","a725c3012b74bf33a1020a98cb69c237","186.13.96.88","Mozilla/5.0 (Windows NT 10.0; Win64; x64) AppleWebKit/537.36 (KHTML, like Gecko) Chrome/118.0.0.0 Safari/537.36","WebKit","Chrome","118.0.0.0","Windows","10.0","null","en-US,en;q=0.9","true","null","tones/880hz_short.mp3","null","","","tone_number_task","102.5","cincuenta y tres","tones/880hz_short.mp3","252.5","60","2","5",""
"","","","","","html-keyboard-response","71","454814","0.0-59.0-0.0","35","1","2023-10-31 21:05:22","a725c3012b74bf33a1020a98cb69c237","186.13.96.88","Mozilla/5.0 (Windows NT 10.0; Win64; x64) AppleWebKit/537.36 (KHTML, like Gecko) Chrome/118.0.0.0 Safari/537.36","WebKit","Chrome","118.0.0.0","Windows","10.0","null","en-US,en;q=0.9","true","null","tones/880hz_short.mp3","null","","","empty_block","","cincuenta y tres","","","","2","5",""
"","","","","","html-keyboard-response","72","455140","0.0-59.0-1.0","35","1","2023-10-31 21:05:22","a725c3012b74bf33a1020a98cb69c237","186.13.96.88","Mozilla/5.0 (Windows NT 10.0; Win64; x64) AppleWebKit/537.36 (KHTML, like Gecko) Chrome/118.0.0.0 Safari/537.36","WebKit","Chrome","118.0.0.0","Windows","10.0","null","en-US,en;q=0.9","true","324","tones/880hz_short.mp3","s","","","empty_block","","cincuenta y tres","","","","2","5",""
"","","","","","html-keyboard-response","73","457773","0.0-61.0","35","1","2023-10-31 21:05:22","a725c3012b74bf33a1020a98cb69c237","186.13.96.88","Mozilla/5.0 (Windows NT 10.0; Win64; x64) AppleWebKit/537.36 (KHTML, like Gecko) Chrome/118.0.0.0 Safari/537.36","WebKit","Chrome","118.0.0.0","Windows","10.0","null","en-US,en;q=0.9","true","null","<div style=""font-size:100px;"">X</div>","null","","","fixation","","","","","","","",""
"","","","","","audio-keyboard-response","74","457927","0.0-62.0","35","1","2023-10-31 21:05:22","a725c3012b74bf33a1020a98cb69c237","186.13.96.88","Mozilla/5.0 (Windows NT 10.0; Win64; x64) AppleWebKit/537.36 (KHTML, like Gecko) Chrome/118.0.0.0 Safari/537.36","WebKit","Chrome","118.0.0.0","Windows","10.0","null","en-US,en;q=0.9","true","null","tones/880hz_short.mp3","null","","","tone_number_task","0","veintiuno","tones/880hz_short.mp3","150","60","2","6",""
"","","","","","html-keyboard-response","75","458719","0.0-65.0-0.0","35","1","2023-10-31 21:05:22","a725c3012b74bf33a1020a98cb69c237","186.13.96.88","Mozilla/5.0 (Windows NT 10.0; Win64; x64) AppleWebKit/537.36 (KHTML, like Gecko) Chrome/118.0.0.0 Safari/537.36","WebKit","Chrome","118.0.0.0","Windows","10.0","null","en-US,en;q=0.9","true","790","tones/880hz_short.mp3","s","","","empty_block","","veintiuno","","","","2","6",""
"","","","","","html-keyboard-response","76","459374","0.0-65.0-1.0","35","1","2023-10-31 21:05:22","a725c3012b74bf33a1020a98cb69c237","186.13.96.88","Mozilla/5.0 (Windows NT 10.0; Win64; x64) AppleWebKit/537.36 (KHTML, like Gecko) Chrome/118.0.0.0 Safari/537.36","WebKit","Chrome","118.0.0.0","Windows","10.0","null","en-US,en;q=0.9","true","653","tones/880hz_short.mp3","j","","","empty_block","","veintiuno","","","","2","6",""
"","","","","","html-keyboard-response","77","462008","0.0-67.0","35","1","2023-10-31 21:05:22","a725c3012b74bf33a1020a98cb69c237","186.13.96.88","Mozilla/5.0 (Windows NT 10.0; Win64; x64) AppleWebKit/537.36 (KHTML, like Gecko) Chrome/118.0.0.0 Safari/537.36","WebKit","Chrome","118.0.0.0","Windows","10.0","null","en-US,en;q=0.9","true","null","<div style=""font-size:100px;"">X</div>","null","","","fixation","","","","","","","",""
"","","","","","audio-keyboard-response","78","462161","0.0-68.0","35","1","2023-10-31 21:05:22","a725c3012b74bf33a1020a98cb69c237","186.13.96.88","Mozilla/5.0 (Windows NT 10.0; Win64; x64) AppleWebKit/537.36 (KHTML, like Gecko) Chrome/118.0.0.0 Safari/537.36","WebKit","Chrome","118.0.0.0","Windows","10.0","null","en-US,en;q=0.9","true","null","tones/880hz_short.mp3","null","","","tone_number_task","0","treinta y seis","tones/880hz_short.mp3","150","60","2","7",""
"","","","","","html-keyboard-response","79","463365","0.0-71.0-0.0","35","1","2023-10-31 21:05:22","a725c3012b74bf33a1020a98cb69c237","186.13.96.88","Mozilla/5.0 (Windows NT 10.0; Win64; x64) AppleWebKit/537.36 (KHTML, like Gecko) Chrome/118.0.0.0 Safari/537.36","WebKit","Chrome","118.0.0.0","Windows","10.0","null","en-US,en;q=0.9","true","null","tones/880hz_short.mp3","null","","","empty_block","","treinta y seis","","","","2","7",""
"","","","","","html-keyboard-response","80","463521","0.0-71.0-1.0","35","1","2023-10-31 21:05:22","a725c3012b74bf33a1020a98cb69c237","186.13.96.88","Mozilla/5.0 (Windows NT 10.0; Win64; x64) AppleWebKit/537.36 (KHTML, like Gecko) Chrome/118.0.0.0 Safari/537.36","WebKit","Chrome","118.0.0.0","Windows","10.0","null","en-US,en;q=0.9","true","154","tones/880hz_short.mp3","s","","","empty_block","","treinta y seis","","","","2","7",""
"","","","","","html-keyboard-response","81","466155","0.0-73.0","35","1","2023-10-31 21:05:22","a725c3012b74bf33a1020a98cb69c237","186.13.96.88","Mozilla/5.0 (Windows NT 10.0; Win64; x64) AppleWebKit/537.36 (KHTML, like Gecko) Chrome/118.0.0.0 Safari/537.36","WebKit","Chrome","118.0.0.0","Windows","10.0","null","en-US,en;q=0.9","true","null","<div style=""font-size:100px;"">X</div>","null","","","fixation","","","","","","","",""
"","","","","","audio-keyboard-response","82","467300","0.0-74.0","35","1","2023-10-31 21:05:22","a725c3012b74bf33a1020a98cb69c237","186.13.96.88","Mozilla/5.0 (Windows NT 10.0; Win64; x64) AppleWebKit/537.36 (KHTML, like Gecko) Chrome/118.0.0.0 Safari/537.36","WebKit","Chrome","118.0.0.0","Windows","10.0","null","en-US,en;q=0.9","true","null","tones/880hz_short.mp3","null","","","tone_number_task","992.5","cincuenta y uno","tones/880hz_short.mp3","1142.5","60","2","8",""
"","","","","","html-keyboard-response","83","468503","0.0-77.0-0.0","35","1","2023-10-31 21:05:22","a725c3012b74bf33a1020a98cb69c237","186.13.96.88","Mozilla/5.0 (Windows NT 10.0; Win64; x64) AppleWebKit/537.36 (KHTML, like Gecko) Chrome/118.0.0.0 Safari/537.36","WebKit","Chrome","118.0.0.0","Windows","10.0","null","en-US,en;q=0.9","true","null","tones/880hz_short.mp3","null","","","empty_block","","cincuenta y uno","","","","2","8",""
"","","","","","html-keyboard-response","84","468703","0.0-77.0-1.0","35","1","2023-10-31 21:05:22","a725c3012b74bf33a1020a98cb69c237","186.13.96.88","Mozilla/5.0 (Windows NT 10.0; Win64; x64) AppleWebKit/537.36 (KHTML, like Gecko) Chrome/118.0.0.0 Safari/537.36","WebKit","Chrome","118.0.0.0","Windows","10.0","null","en-US,en;q=0.9","true","198","tones/880hz_short.mp3","s","","","empty_block","","cincuenta y uno","","","","2","8",""
"","","","","","html-keyboard-response","85","471337","0.0-79.0","35","1","2023-10-31 21:05:22","a725c3012b74bf33a1020a98cb69c237","186.13.96.88","Mozilla/5.0 (Windows NT 10.0; Win64; x64) AppleWebKit/537.36 (KHTML, like Gecko) Chrome/118.0.0.0 Safari/537.36","WebKit","Chrome","118.0.0.0","Windows","10.0","null","en-US,en;q=0.9","true","null","<div style=""font-size:100px;"">X</div>","null","","","fixation","","","","","","","",""
"","","","","","audio-keyboard-response","86","471592","0.0-80.0","35","1","2023-10-31 21:05:22","a725c3012b74bf33a1020a98cb69c237","186.13.96.88","Mozilla/5.0 (Windows NT 10.0; Win64; x64) AppleWebKit/537.36 (KHTML, like Gecko) Chrome/118.0.0.0 Safari/537.36","WebKit","Chrome","118.0.0.0","Windows","10.0","null","en-US,en;q=0.9","true","null","tones/880hz_short.mp3","null","","","tone_number_task","102.5","cincuenta y tres","tones/880hz_short.mp3","252.5","60","2","9",""
"","","","","","html-keyboard-response","87","472407","0.0-83.0-0.0","35","1","2023-10-31 21:05:22","a725c3012b74bf33a1020a98cb69c237","186.13.96.88","Mozilla/5.0 (Windows NT 10.0; Win64; x64) AppleWebKit/537.36 (KHTML, like Gecko) Chrome/118.0.0.0 Safari/537.36","WebKit","Chrome","118.0.0.0","Windows","10.0","null","en-US,en;q=0.9","true","814","tones/880hz_short.mp3","s","","","empty_block","","cincuenta y tres","","","","2","9",""
"","","","","","html-keyboard-response","88","472884","0.0-83.0-1.0","35","1","2023-10-31 21:05:22","a725c3012b74bf33a1020a98cb69c237","186.13.96.88","Mozilla/5.0 (Windows NT 10.0; Win64; x64) AppleWebKit/537.36 (KHTML, like Gecko) Chrome/118.0.0.0 Safari/537.36","WebKit","Chrome","118.0.0.0","Windows","10.0","null","en-US,en;q=0.9","true","474","tones/880hz_short.mp3","k","","","empty_block","","cincuenta y tres","","","","2","9",""
"","","","","","html-keyboard-response","89","475518","0.0-85.0","35","1","2023-10-31 21:05:22","a725c3012b74bf33a1020a98cb69c237","186.13.96.88","Mozilla/5.0 (Windows NT 10.0; Win64; x64) AppleWebKit/537.36 (KHTML, like Gecko) Chrome/118.0.0.0 Safari/537.36","WebKit","Chrome","118.0.0.0","Windows","10.0","null","en-US,en;q=0.9","true","null","<div style=""font-size:100px;"">X</div>","null","","","fixation","","","","","","","",""
"","","","","","audio-keyboard-response","90","475773","0.0-86.0","35","1","2023-10-31 21:05:22","a725c3012b74bf33a1020a98cb69c237","186.13.96.88","Mozilla/5.0 (Windows NT 10.0; Win64; x64) AppleWebKit/537.36 (KHTML, like Gecko) Chrome/118.0.0.0 Safari/537.36","WebKit","Chrome","118.0.0.0","Windows","10.0","null","en-US,en;q=0.9","true","null","tones/880hz_short.mp3","null","","","tone_number_task","102.5","sesenta y tres","tones/880hz_short.mp3","252.5","60","2","10",""
"","","","","","html-keyboard-response","91","476400","0.0-89.0-0.0","35","1","2023-10-31 21:05:22","a725c3012b74bf33a1020a98cb69c237","186.13.96.88","Mozilla/5.0 (Windows NT 10.0; Win64; x64) AppleWebKit/537.36 (KHTML, like Gecko) Chrome/118.0.0.0 Safari/537.36","WebKit","Chrome","118.0.0.0","Windows","10.0","null","en-US,en;q=0.9","true","625","tones/880hz_short.mp3","s","","","empty_block","","sesenta y tres","","","","2","10",""
"","","","","","html-keyboard-response","92","476796","0.0-89.0-1.0","35","1","2023-10-31 21:05:22","a725c3012b74bf33a1020a98cb69c237","186.13.96.88","Mozilla/5.0 (Windows NT 10.0; Win64; x64) AppleWebKit/537.36 (KHTML, like Gecko) Chrome/118.0.0.0 Safari/537.36","WebKit","Chrome","118.0.0.0","Windows","10.0","null","en-US,en;q=0.9","true","394","tones/880hz_short.mp3","k","","","empty_block","","sesenta y tres","","","","2","10",""
"","","","","","html-keyboard-response","93","479429","0.0-91.0","35","1","2023-10-31 21:05:22","a725c3012b74bf33a1020a98cb69c237","186.13.96.88","Mozilla/5.0 (Windows NT 10.0; Win64; x64) AppleWebKit/537.36 (KHTML, like Gecko) Chrome/118.0.0.0 Safari/537.36","WebKit","Chrome","118.0.0.0","Windows","10.0","null","en-US,en;q=0.9","true","null","<div style=""font-size:100px;"">X</div>","null","","","fixation","","","","","","","",""
"","","","","","audio-keyboard-response","94","480607","0.0-92.0","35","1","2023-10-31 21:05:22","a725c3012b74bf33a1020a98cb69c237","186.13.96.88","Mozilla/5.0 (Windows NT 10.0; Win64; x64) AppleWebKit/537.36 (KHTML, like Gecko) Chrome/118.0.0.0 Safari/537.36","WebKit","Chrome","118.0.0.0","Windows","10.0","null","en-US,en;q=0.9","true","null","tones/880hz_short.mp3","null","","","tone_number_task","1025","cincuenta y cuatro","tones/880hz_short.mp3","1175","60","2","11",""
"","","","","","html-keyboard-response","95","481275","0.0-95.0-0.0","35","1","2023-10-31 21:05:22","a725c3012b74bf33a1020a98cb69c237","186.13.96.88","Mozilla/5.0 (Windows NT 10.0; Win64; x64) AppleWebKit/537.36 (KHTML, like Gecko) Chrome/118.0.0.0 Safari/537.36","WebKit","Chrome","118.0.0.0","Windows","10.0","null","en-US,en;q=0.9","true","666","tones/880hz_short.mp3","s","","","empty_block","","cincuenta y cuatro","","","","2","11",""
"","","","","","html-keyboard-response","96","481665","0.0-95.0-1.0","35","1","2023-10-31 21:05:22","a725c3012b74bf33a1020a98cb69c237","186.13.96.88","Mozilla/5.0 (Windows NT 10.0; Win64; x64) AppleWebKit/537.36 (KHTML, like Gecko) Chrome/118.0.0.0 Safari/537.36","WebKit","Chrome","118.0.0.0","Windows","10.0","null","en-US,en;q=0.9","true","389","tones/880hz_short.mp3","k","","","empty_block","","cincuenta y cuatro","","","","2","11",""
"","","","","","html-keyboard-response","97","484299","0.0-97.0","35","1","2023-10-31 21:05:22","a725c3012b74bf33a1020a98cb69c237","186.13.96.88","Mozilla/5.0 (Windows NT 10.0; Win64; x64) AppleWebKit/537.36 (KHTML, like Gecko) Chrome/118.0.0.0 Safari/537.36","WebKit","Chrome","118.0.0.0","Windows","10.0","null","en-US,en;q=0.9","true","null","<div style=""font-size:100px;"">X</div>","null","","","fixation","","","","","","","",""
"","","","","","audio-keyboard-response","98","485309","0.0-98.0","35","1","2023-10-31 21:05:22","a725c3012b74bf33a1020a98cb69c237","186.13.96.88","Mozilla/5.0 (Windows NT 10.0; Win64; x64) AppleWebKit/537.36 (KHTML, like Gecko) Chrome/118.0.0.0 Safari/537.36","WebKit","Chrome","118.0.0.0","Windows","10.0","null","en-US,en;q=0.9","true","1013","tones/880hz_short.mp3","s","","","tone_number_task","992.5","veintiuno","tones/880hz_short.mp3","1142.5","60","2","12",""
"","","","","","html-keyboard-response","99","485441","0.0-100.0-0.0","35","1","2023-10-31 21:05:22","a725c3012b74bf33a1020a98cb69c237","186.13.96.88","Mozilla/5.0 (Windows NT 10.0; Win64; x64) AppleWebKit/537.36 (KHTML, like Gecko) Chrome/118.0.0.0 Safari/537.36","WebKit","Chrome","118.0.0.0","Windows","10.0","null","en-US,en;q=0.9","true","null","<p id=""stimulus"" style=""font-size:60px;"">veintiuno</p>","null","","","tone_number_task_remaining_after_delay","","veintiuno","","","60","2","12",""
"","","","","","html-keyboard-response","100","486052","0.0-102.0-0.0","35","1","2023-10-31 21:05:22","a725c3012b74bf33a1020a98cb69c237","186.13.96.88","Mozilla/5.0 (Windows NT 10.0; Win64; x64) AppleWebKit/537.36 (KHTML, like Gecko) Chrome/118.0.0.0 Safari/537.36","WebKit","Chrome","118.0.0.0","Windows","10.0","null","en-US,en;q=0.9","true","608","<p id=""stimulus"" style=""font-size:60px;"">veintiuno</p>","j","","","empty_block","","veintiuno","","","","2","12",""
"","","","","","html-keyboard-response","101","488688","0.0-103.0","35","1","2023-10-31 21:05:22","a725c3012b74bf33a1020a98cb69c237","186.13.96.88","Mozilla/5.0 (Windows NT 10.0; Win64; x64) AppleWebKit/537.36 (KHTML, like Gecko) Chrome/118.0.0.0 Safari/537.36","WebKit","Chrome","118.0.0.0","Windows","10.0","null","en-US,en;q=0.9","true","null","<div style=""font-size:100px;"">X</div>","null","","","fixation","","","","","","","",""
"","","","","","audio-keyboard-response","102","489833","0.0-104.0","35","1","2023-10-31 21:05:22","a725c3012b74bf33a1020a98cb69c237","186.13.96.88","Mozilla/5.0 (Windows NT 10.0; Win64; x64) AppleWebKit/537.36 (KHTML, like Gecko) Chrome/118.0.0.0 Safari/537.36","WebKit","Chrome","118.0.0.0","Windows","10.0","null","en-US,en;q=0.9","true","null","tones/880hz_short.mp3","null","","","tone_number_task","992.5","cincuenta y siete","tones/880hz_short.mp3","1142.5","60","2","13",""
"","","","","","html-keyboard-response","103","490065","0.0-107.0-0.0","35","1","2023-10-31 21:05:22","a725c3012b74bf33a1020a98cb69c237","186.13.96.88","Mozilla/5.0 (Windows NT 10.0; Win64; x64) AppleWebKit/537.36 (KHTML, like Gecko) Chrome/118.0.0.0 Safari/537.36","WebKit","Chrome","118.0.0.0","Windows","10.0","null","en-US,en;q=0.9","true","229","tones/880hz_short.mp3","s","","","empty_block","","cincuenta y siete","","","","2","13",""
"","","","","","html-keyboard-response","104","490575","0.0-107.0-1.0","35","1","2023-10-31 21:05:22","a725c3012b74bf33a1020a98cb69c237","186.13.96.88","Mozilla/5.0 (Windows NT 10.0; Win64; x64) AppleWebKit/537.36 (KHTML, like Gecko) Chrome/118.0.0.0 Safari/537.36","WebKit","Chrome","118.0.0.0","Windows","10.0","null","en-US,en;q=0.9","true","506","tones/880hz_short.mp3","k","","","empty_block","","cincuenta y siete","","","","2","13",""
"","","","","","html-keyboard-response","105","493211","0.0-109.0","35","1","2023-10-31 21:05:22","a725c3012b74bf33a1020a98cb69c237","186.13.96.88","Mozilla/5.0 (Windows NT 10.0; Win64; x64) AppleWebKit/537.36 (KHTML, like Gecko) Chrome/118.0.0.0 Safari/537.36","WebKit","Chrome","118.0.0.0","Windows","10.0","null","en-US,en;q=0.9","true","null","<div style=""font-size:100px;"">X</div>","null","","","fixation","","","","","","","",""
"","","","","","audio-keyboard-response","106","493865","0.0-110.0","35","1","2023-10-31 21:05:22","a725c3012b74bf33a1020a98cb69c237","186.13.96.88","Mozilla/5.0 (Windows NT 10.0; Win64; x64) AppleWebKit/537.36 (KHTML, like Gecko) Chrome/118.0.0.0 Safari/537.36","WebKit","Chrome","118.0.0.0","Windows","10.0","null","en-US,en;q=0.9","true","651","tones/880hz_short.mp3","s","","","tone_number_task","992.5","cuarenta y dos","tones/880hz_short.mp3","1142.5","60","2","14",""
"","","","","","html-keyboard-response","107","494208","0.0-111.0-0.0","35","1","2023-10-31 21:05:22","a725c3012b74bf33a1020a98cb69c237","186.13.96.88","Mozilla/5.0 (Windows NT 10.0; Win64; x64) AppleWebKit/537.36 (KHTML, like Gecko) Chrome/118.0.0.0 Safari/537.36","WebKit","Chrome","118.0.0.0","Windows","10.0","null","en-US,en;q=0.9","true","null","","null","","","delay_block","","","","","","2","14",""
"","","","","","html-keyboard-response","108","494361","0.0-111.0-1.0","35","1","2023-10-31 21:05:22","a725c3012b74bf33a1020a98cb69c237","186.13.96.88","Mozilla/5.0 (Windows NT 10.0; Win64; x64) AppleWebKit/537.36 (KHTML, like Gecko) Chrome/118.0.0.0 Safari/537.36","WebKit","Chrome","118.0.0.0","Windows","10.0","null","en-US,en;q=0.9","true","null","<p id=""stimulus"" style=""font-size:60px;"">cuarenta y dos</p>","null","","","tone_number_task_remaining_before_delay","","cuarenta y dos","","491.5","60","2","14",""
"","","","","","html-keyboard-response","109","494816","0.0-114.0-0.0","35","1","2023-10-31 21:05:22","a725c3012b74bf33a1020a98cb69c237","186.13.96.88","Mozilla/5.0 (Windows NT 10.0; Win64; x64) AppleWebKit/537.36 (KHTML, like Gecko) Chrome/118.0.0.0 Safari/537.36","WebKit","Chrome","118.0.0.0","Windows","10.0","null","en-US,en;q=0.9","true","453","<p id=""stimulus"" style=""font-size:60px;"">cuarenta y dos</p>","k","","","empty_block","","cuarenta y dos","","","","2","14",""
"","","","","","html-keyboard-response","110","497450","0.0-115.0","35","1","2023-10-31 21:05:22","a725c3012b74bf33a1020a98cb69c237","186.13.96.88","Mozilla/5.0 (Windows NT 10.0; Win64; x64) AppleWebKit/537.36 (KHTML, like Gecko) Chrome/118.0.0.0 Safari/537.36","WebKit","Chrome","118.0.0.0","Windows","10.0","null","en-US,en;q=0.9","true","null","<div style=""font-size:100px;"">X</div>","null","","","fixation","","","","","","","",""
"","","","","","audio-keyboard-response","111","498232","0.0-116.0","35","1","2023-10-31 21:05:22","a725c3012b74bf33a1020a98cb69c237","186.13.96.88","Mozilla/5.0 (Windows NT 10.0; Win64; x64) AppleWebKit/537.36 (KHTML, like Gecko) Chrome/118.0.0.0 Safari/537.36","WebKit","Chrome","118.0.0.0","Windows","10.0","null","en-US,en;q=0.9","true","779","tones/440hz_short.mp3","a","","","tone_number_task","1025","cincuenta y cinco","tones/440hz_short.mp3","1175","60","2","15",""
"","","","","","html-keyboard-response","112","498481","0.0-117.0-0.0","35","1","2023-10-31 21:05:22","a725c3012b74bf33a1020a98cb69c237","186.13.96.88","Mozilla/5.0 (Windows NT 10.0; Win64; x64) AppleWebKit/537.36 (KHTML, like Gecko) Chrome/118.0.0.0 Safari/537.36","WebKit","Chrome","118.0.0.0","Windows","10.0","null","en-US,en;q=0.9","true","null","","null","","","delay_block","","","","","","2","15",""
"","","","","","html-keyboard-response","113","498634","0.0-117.0-1.0","35","1","2023-10-31 21:05:22","a725c3012b74bf33a1020a98cb69c237","186.13.96.88","Mozilla/5.0 (Windows NT 10.0; Win64; x64) AppleWebKit/537.36 (KHTML, like Gecko) Chrome/118.0.0.0 Safari/537.36","WebKit","Chrome","118.0.0.0","Windows","10.0","null","en-US,en;q=0.9","true","null","<p id=""stimulus"" style=""font-size:60px;"">cincuenta y cinco</p>","null","","","tone_number_task_remaining_before_delay","","cincuenta y cinco","","396","60","2","15",""
"","","","","","html-keyboard-response","114","499125","0.0-120.0-0.0","35","1","2023-10-31 21:05:22","a725c3012b74bf33a1020a98cb69c237","186.13.96.88","Mozilla/5.0 (Windows NT 10.0; Win64; x64) AppleWebKit/537.36 (KHTML, like Gecko) Chrome/118.0.0.0 Safari/537.36","WebKit","Chrome","118.0.0.0","Windows","10.0","null","en-US,en;q=0.9","true","489","<p id=""stimulus"" style=""font-size:60px;"">cincuenta y cinco</p>","k","","","empty_block","","cincuenta y cinco","","","","2","15",""
"","","","","","html-keyboard-response","115","501761","0.0-121.0","35","1","2023-10-31 21:05:22","a725c3012b74bf33a1020a98cb69c237","186.13.96.88","Mozilla/5.0 (Windows NT 10.0; Win64; x64) AppleWebKit/537.36 (KHTML, like Gecko) Chrome/118.0.0.0 Safari/537.36","WebKit","Chrome","118.0.0.0","Windows","10.0","null","en-US,en;q=0.9","true","null","<div style=""font-size:100px;"">X</div>","null","","","fixation","","","","","","","",""
"","","","","","audio-keyboard-response","116","502016","0.0-122.0","35","1","2023-10-31 21:05:22","a725c3012b74bf33a1020a98cb69c237","186.13.96.88","Mozilla/5.0 (Windows NT 10.0; Win64; x64) AppleWebKit/537.36 (KHTML, like Gecko) Chrome/118.0.0.0 Safari/537.36","WebKit","Chrome","118.0.0.0","Windows","10.0","null","en-US,en;q=0.9","true","null","tones/440hz_short.mp3","null","","","tone_number_task","102.5","treinta y uno","tones/440hz_short.mp3","252.5","60","2","16",""
"","","","","","html-keyboard-response","117","502532","0.0-125.0-0.0","35","1","2023-10-31 21:05:22","a725c3012b74bf33a1020a98cb69c237","186.13.96.88","Mozilla/5.0 (Windows NT 10.0; Win64; x64) AppleWebKit/537.36 (KHTML, like Gecko) Chrome/118.0.0.0 Safari/537.36","WebKit","Chrome","118.0.0.0","Windows","10.0","null","en-US,en;q=0.9","true","514","tones/440hz_short.mp3","a","","","empty_block","","treinta y uno","","","","2","16",""
"","","","","","html-keyboard-response","118","503173","0.0-125.0-1.0","35","1","2023-10-31 21:05:22","a725c3012b74bf33a1020a98cb69c237","186.13.96.88","Mozilla/5.0 (Windows NT 10.0; Win64; x64) AppleWebKit/537.36 (KHTML, like Gecko) Chrome/118.0.0.0 Safari/537.36","WebKit","Chrome","118.0.0.0","Windows","10.0","null","en-US,en;q=0.9","true","638","tones/440hz_short.mp3","j","","","empty_block","","treinta y uno","","","","2","16",""
"","","","","","html-keyboard-response","119","505807","0.0-127.0","35","1","2023-10-31 21:05:22","a725c3012b74bf33a1020a98cb69c237","186.13.96.88","Mozilla/5.0 (Windows NT 10.0; Win64; x64) AppleWebKit/537.36 (KHTML, like Gecko) Chrome/118.0.0.0 Safari/537.36","WebKit","Chrome","118.0.0.0","Windows","10.0","null","en-US,en;q=0.9","true","null","<div style=""font-size:100px;"">X</div>","null","","","fixation","","","","","","","",""
"","","","","","audio-keyboard-response","120","506063","0.0-128.0","35","1","2023-10-31 21:05:22","a725c3012b74bf33a1020a98cb69c237","186.13.96.88","Mozilla/5.0 (Windows NT 10.0; Win64; x64) AppleWebKit/537.36 (KHTML, like Gecko) Chrome/118.0.0.0 Safari/537.36","WebKit","Chrome","118.0.0.0","Windows","10.0","null","en-US,en;q=0.9","true","null","tones/880hz_short.mp3","null","","","tone_number_task","102.5","veintidós","tones/880hz_short.mp3","252.5","60","2","17",""
"","","","","","html-keyboard-response","121","506502","0.0-131.0-0.0","35","1","2023-10-31 21:05:22","a725c3012b74bf33a1020a98cb69c237","186.13.96.88","Mozilla/5.0 (Windows NT 10.0; Win64; x64) AppleWebKit/537.36 (KHTML, like Gecko) Chrome/118.0.0.0 Safari/537.36","WebKit","Chrome","118.0.0.0","Windows","10.0","null","en-US,en;q=0.9","true","437","tones/880hz_short.mp3","s","","","empty_block","","veintidós","","","","2","17",""
"","","","","","html-keyboard-response","122","506992","0.0-131.0-1.0","35","1","2023-10-31 21:05:22","a725c3012b74bf33a1020a98cb69c237","186.13.96.88","Mozilla/5.0 (Windows NT 10.0; Win64; x64) AppleWebKit/537.36 (KHTML, like Gecko) Chrome/118.0.0.0 Safari/537.36","WebKit","Chrome","118.0.0.0","Windows","10.0","null","en-US,en;q=0.9","true","488","tones/880hz_short.mp3","j","","","empty_block","","veintidós","","","","2","17",""
"","","","","","html-keyboard-response","123","509626","0.0-133.0","35","1","2023-10-31 21:05:22","a725c3012b74bf33a1020a98cb69c237","186.13.96.88","Mozilla/5.0 (Windows NT 10.0; Win64; x64) AppleWebKit/537.36 (KHTML, like Gecko) Chrome/118.0.0.0 Safari/537.36","WebKit","Chrome","118.0.0.0","Windows","10.0","null","en-US,en;q=0.9","true","null","<div style=""font-size:100px;"">X</div>","null","","","fixation","","","","","","","",""
"","","","","","audio-keyboard-response","124","509781","0.0-134.0","35","1","2023-10-31 21:05:22","a725c3012b74bf33a1020a98cb69c237","186.13.96.88","Mozilla/5.0 (Windows NT 10.0; Win64; x64) AppleWebKit/537.36 (KHTML, like Gecko) Chrome/118.0.0.0 Safari/537.36","WebKit","Chrome","118.0.0.0","Windows","10.0","null","en-US,en;q=0.9","true","null","tones/440hz_short.mp3","null","","","tone_number_task","0","treinta y tres","tones/440hz_short.mp3","150","60","2","18",""
"","","","","","html-keyboard-response","125","510526","0.0-137.0-0.0","35","1","2023-10-31 21:05:22","a725c3012b74bf33a1020a98cb69c237","186.13.96.88","Mozilla/5.0 (Windows NT 10.0; Win64; x64) AppleWebKit/537.36 (KHTML, like Gecko) Chrome/118.0.0.0 Safari/537.36","WebKit","Chrome","118.0.0.0","Windows","10.0","null","en-US,en;q=0.9","true","741","tones/440hz_short.mp3","a","","","empty_block","","treinta y tres","","","","2","18",""
"","","","","","html-keyboard-response","126","511179","0.0-137.0-1.0","35","1","2023-10-31 21:05:22","a725c3012b74bf33a1020a98cb69c237","186.13.96.88","Mozilla/5.0 (Windows NT 10.0; Win64; x64) AppleWebKit/537.36 (KHTML, like Gecko) Chrome/118.0.0.0 Safari/537.36","WebKit","Chrome","118.0.0.0","Windows","10.0","null","en-US,en;q=0.9","true","651","tones/440hz_short.mp3","j","","","empty_block","","treinta y tres","","","","2","18",""
"","","","","","html-keyboard-response","127","513815","0.0-139.0","35","1","2023-10-31 21:05:22","a725c3012b74bf33a1020a98cb69c237","186.13.96.88","Mozilla/5.0 (Windows NT 10.0; Win64; x64) AppleWebKit/537.36 (KHTML, like Gecko) Chrome/118.0.0.0 Safari/537.36","WebKit","Chrome","118.0.0.0","Windows","10.0","null","en-US,en;q=0.9","true","null","<div style=""font-size:100px;"">X</div>","null","","","fixation","","","","","","","",""
"","","","","","audio-keyboard-response","128","514070","0.0-140.0","35","1","2023-10-31 21:05:22","a725c3012b74bf33a1020a98cb69c237","186.13.96.88","Mozilla/5.0 (Windows NT 10.0; Win64; x64) AppleWebKit/537.36 (KHTML, like Gecko) Chrome/118.0.0.0 Safari/537.36","WebKit","Chrome","118.0.0.0","Windows","10.0","null","en-US,en;q=0.9","true","null","tones/880hz_short.mp3","null","","","tone_number_task","102.5","treinta y seis","tones/880hz_short.mp3","252.5","60","2","19",""
"","","","","","html-keyboard-response","129","514820","0.0-143.0-0.0","35","1","2023-10-31 21:05:22","a725c3012b74bf33a1020a98cb69c237","186.13.96.88","Mozilla/5.0 (Windows NT 10.0; Win64; x64) AppleWebKit/537.36 (KHTML, like Gecko) Chrome/118.0.0.0 Safari/537.36","WebKit","Chrome","118.0.0.0","Windows","10.0","null","en-US,en;q=0.9","true","747","tones/880hz_short.mp3","s","","","empty_block","","treinta y seis","","","","2","19",""
"","","","","","html-keyboard-response","130","515619","0.0-143.0-1.0","35","1","2023-10-31 21:05:22","a725c3012b74bf33a1020a98cb69c237","186.13.96.88","Mozilla/5.0 (Windows NT 10.0; Win64; x64) AppleWebKit/537.36 (KHTML, like Gecko) Chrome/118.0.0.0 Safari/537.36","WebKit","Chrome","118.0.0.0","Windows","10.0","null","en-US,en;q=0.9","true","797","tones/880hz_short.mp3","j","","","empty_block","","treinta y seis","","","","2","19",""
"","","","","","html-keyboard-response","131","518254","0.0-145.0","35","1","2023-10-31 21:05:22","a725c3012b74bf33a1020a98cb69c237","186.13.96.88","Mozilla/5.0 (Windows NT 10.0; Win64; x64) AppleWebKit/537.36 (KHTML, like Gecko) Chrome/118.0.0.0 Safari/537.36","WebKit","Chrome","118.0.0.0","Windows","10.0","null","en-US,en;q=0.9","true","null","<div style=""font-size:100px;"">X</div>","null","","","fixation","","","","","","","",""
"","","","","","audio-keyboard-response","132","519176","0.0-146.0","35","1","2023-10-31 21:05:22","a725c3012b74bf33a1020a98cb69c237","186.13.96.88","Mozilla/5.0 (Windows NT 10.0; Win64; x64) AppleWebKit/537.36 (KHTML, like Gecko) Chrome/118.0.0.0 Safari/537.36","WebKit","Chrome","118.0.0.0","Windows","10.0","null","en-US,en;q=0.9","true","917","tones/440hz_short.mp3","a","","","tone_number_task","992.5","cincuenta y cinco","tones/440hz_short.mp3","1142.5","60","2","20",""
"","","","","","html-keyboard-response","133","519253","0.0-147.0-0.0","35","1","2023-10-31 21:05:22","a725c3012b74bf33a1020a98cb69c237","186.13.96.88","Mozilla/5.0 (Windows NT 10.0; Win64; x64) AppleWebKit/537.36 (KHTML, like Gecko) Chrome/118.0.0.0 Safari/537.36","WebKit","Chrome","118.0.0.0","Windows","10.0","null","en-US,en;q=0.9","true","null","","null","","","delay_block","","","","","","2","20",""
"","","","","","html-keyboard-response","134","519406","0.0-147.0-1.0","35","1","2023-10-31 21:05:22","a725c3012b74bf33a1020a98cb69c237","186.13.96.88","Mozilla/5.0 (Windows NT 10.0; Win64; x64) AppleWebKit/537.36 (KHTML, like Gecko) Chrome/118.0.0.0 Safari/537.36","WebKit","Chrome","118.0.0.0","Windows","10.0","null","en-US,en;q=0.9","true","null","<p id=""stimulus"" style=""font-size:60px;"">cincuenta y cinco</p>","null","","","tone_number_task_remaining_before_delay","","cincuenta y cinco","","225.5","60","2","20",""
"","","","","","html-keyboard-response","135","519871","0.0-150.0-0.0","35","1","2023-10-31 21:05:22","a725c3012b74bf33a1020a98cb69c237","186.13.96.88","Mozilla/5.0 (Windows NT 10.0; Win64; x64) AppleWebKit/537.36 (KHTML, like Gecko) Chrome/118.0.0.0 Safari/537.36","WebKit","Chrome","118.0.0.0","Windows","10.0","null","en-US,en;q=0.9","true","462","<p id=""stimulus"" style=""font-size:60px;"">cincuenta y cinco</p>","k","","","empty_block","","cincuenta y cinco","","","","2","20",""
"","","","","","html-keyboard-response","136","522504","0.0-151.0","35","1","2023-10-31 21:05:22","a725c3012b74bf33a1020a98cb69c237","186.13.96.88","Mozilla/5.0 (Windows NT 10.0; Win64; x64) AppleWebKit/537.36 (KHTML, like Gecko) Chrome/118.0.0.0 Safari/537.36","WebKit","Chrome","118.0.0.0","Windows","10.0","null","en-US,en;q=0.9","true","null","<div style=""font-size:100px;"">X</div>","null","","","fixation","","","","","","","",""
"","","","","","audio-keyboard-response","137","522658","0.0-152.0","35","1","2023-10-31 21:05:22","a725c3012b74bf33a1020a98cb69c237","186.13.96.88","Mozilla/5.0 (Windows NT 10.0; Win64; x64) AppleWebKit/537.36 (KHTML, like Gecko) Chrome/118.0.0.0 Safari/537.36","WebKit","Chrome","118.0.0.0","Windows","10.0","null","en-US,en;q=0.9","true","null","tones/880hz_short.mp3","null","","","tone_number_task","0","cincuenta y seis","tones/880hz_short.mp3","150","60","2","21",""
"","","","","","html-keyboard-response","138","523173","0.0-155.0-0.0","35","1","2023-10-31 21:05:22","a725c3012b74bf33a1020a98cb69c237","186.13.96.88","Mozilla/5.0 (Windows NT 10.0; Win64; x64) AppleWebKit/537.36 (KHTML, like Gecko) Chrome/118.0.0.0 Safari/537.36","WebKit","Chrome","118.0.0.0","Windows","10.0","null","en-US,en;q=0.9","true","511","tones/880hz_short.mp3","s","","","empty_block","","cincuenta y seis","","","","2","21",""
"","","","","","html-keyboard-response","139","523676","0.0-155.0-1.0","35","1","2023-10-31 21:05:22","a725c3012b74bf33a1020a98cb69c237","186.13.96.88","Mozilla/5.0 (Windows NT 10.0; Win64; x64) AppleWebKit/537.36 (KHTML, like Gecko) Chrome/118.0.0.0 Safari/537.36","WebKit","Chrome","118.0.0.0","Windows","10.0","null","en-US,en;q=0.9","true","502","tones/880hz_short.mp3","k","","","empty_block","","cincuenta y seis","","","","2","21",""
"","","","","","html-keyboard-response","140","526311","0.0-157.0","35","1","2023-10-31 21:05:22","a725c3012b74bf33a1020a98cb69c237","186.13.96.88","Mozilla/5.0 (Windows NT 10.0; Win64; x64) AppleWebKit/537.36 (KHTML, like Gecko) Chrome/118.0.0.0 Safari/537.36","WebKit","Chrome","118.0.0.0","Windows","10.0","null","en-US,en;q=0.9","true","null","<div style=""font-size:100px;"">X</div>","null","","","fixation","","","","","","","",""
"","","","","","audio-keyboard-response","141","526932","0.0-158.0","35","1","2023-10-31 21:05:22","a725c3012b74bf33a1020a98cb69c237","186.13.96.88","Mozilla/5.0 (Windows NT 10.0; Win64; x64) AppleWebKit/537.36 (KHTML, like Gecko) Chrome/118.0.0.0 Safari/537.36","WebKit","Chrome","118.0.0.0","Windows","10.0","null","en-US,en;q=0.9","true","619","tones/440hz_short.mp3","a","","","tone_number_task","1025","treinta y seis","tones/440hz_short.mp3","1175","60","2","22",""
"","","","","","html-keyboard-response","142","527340","0.0-159.0-0.0","35","1","2023-10-31 21:05:22","a725c3012b74bf33a1020a98cb69c237","186.13.96.88","Mozilla/5.0 (Windows NT 10.0; Win64; x64) AppleWebKit/537.36 (KHTML, like Gecko) Chrome/118.0.0.0 Safari/537.36","WebKit","Chrome","118.0.0.0","Windows","10.0","null","en-US,en;q=0.9","true","null","","null","","","delay_block","","","","","","2","22",""
"","","","","","html-keyboard-response","143","527494","0.0-159.0-1.0","35","1","2023-10-31 21:05:22","a725c3012b74bf33a1020a98cb69c237","186.13.96.88","Mozilla/5.0 (Windows NT 10.0; Win64; x64) AppleWebKit/537.36 (KHTML, like Gecko) Chrome/118.0.0.0 Safari/537.36","WebKit","Chrome","118.0.0.0","Windows","10.0","null","en-US,en;q=0.9","true","null","<p id=""stimulus"" style=""font-size:60px;"">treinta y seis</p>","null","","","tone_number_task_remaining_before_delay","","treinta y seis","","556","60","2","22",""
"","","","","","html-keyboard-response","144","527935","0.0-162.0-0.0","35","1","2023-10-31 21:05:22","a725c3012b74bf33a1020a98cb69c237","186.13.96.88","Mozilla/5.0 (Windows NT 10.0; Win64; x64) AppleWebKit/537.36 (KHTML, like Gecko) Chrome/118.0.0.0 Safari/537.36","WebKit","Chrome","118.0.0.0","Windows","10.0","null","en-US,en;q=0.9","true","438","<p id=""stimulus"" style=""font-size:60px;"">treinta y seis</p>","j","","","empty_block","","treinta y seis","","","","2","22",""
"","","","","","html-keyboard-response","145","530569","0.0-163.0","35","1","2023-10-31 21:05:22","a725c3012b74bf33a1020a98cb69c237","186.13.96.88","Mozilla/5.0 (Windows NT 10.0; Win64; x64) AppleWebKit/537.36 (KHTML, like Gecko) Chrome/118.0.0.0 Safari/537.36","WebKit","Chrome","118.0.0.0","Windows","10.0","null","en-US,en;q=0.9","true","null","<div style=""font-size:100px;"">X</div>","null","","","fixation","","","","","","","",""
"","","","","","audio-keyboard-response","146","531219","0.0-164.0","35","1","2023-10-31 21:05:22","a725c3012b74bf33a1020a98cb69c237","186.13.96.88","Mozilla/5.0 (Windows NT 10.0; Win64; x64) AppleWebKit/537.36 (KHTML, like Gecko) Chrome/118.0.0.0 Safari/537.36","WebKit","Chrome","118.0.0.0","Windows","10.0","null","en-US,en;q=0.9","true","651","tones/440hz_short.mp3","a","","","tone_number_task","992.5","sesenta y tres","tones/440hz_short.mp3","1142.5","60","2","23",""
"","","","","","html-keyboard-response","147","531563","0.0-165.0-0.0","35","1","2023-10-31 21:05:22","a725c3012b74bf33a1020a98cb69c237","186.13.96.88","Mozilla/5.0 (Windows NT 10.0; Win64; x64) AppleWebKit/537.36 (KHTML, like Gecko) Chrome/118.0.0.0 Safari/537.36","WebKit","Chrome","118.0.0.0","Windows","10.0","null","en-US,en;q=0.9","true","null","","null","","","delay_block","","","","","","2","23",""
"","","","","","html-keyboard-response","148","531717","0.0-165.0-1.0","35","1","2023-10-31 21:05:22","a725c3012b74bf33a1020a98cb69c237","186.13.96.88","Mozilla/5.0 (Windows NT 10.0; Win64; x64) AppleWebKit/537.36 (KHTML, like Gecko) Chrome/118.0.0.0 Safari/537.36","WebKit","Chrome","118.0.0.0","Windows","10.0","null","en-US,en;q=0.9","true","null","<p id=""stimulus"" style=""font-size:60px;"">sesenta y tres</p>","null","","","tone_number_task_remaining_before_delay","","sesenta y tres","","491.5","60","2","23",""
"","","","","","html-keyboard-response","149","532071","0.0-168.0-0.0","35","1","2023-10-31 21:05:22","a725c3012b74bf33a1020a98cb69c237","186.13.96.88","Mozilla/5.0 (Windows NT 10.0; Win64; x64) AppleWebKit/537.36 (KHTML, like Gecko) Chrome/118.0.0.0 Safari/537.36","WebKit","Chrome","118.0.0.0","Windows","10.0","null","en-US,en;q=0.9","true","351","<p id=""stimulus"" style=""font-size:60px;"">sesenta y tres</p>","j","","","empty_block","","sesenta y tres","","","","2","23",""
"","","","","","html-keyboard-response","150","534706","0.0-169.0","35","1","2023-10-31 21:05:22","a725c3012b74bf33a1020a98cb69c237","186.13.96.88","Mozilla/5.0 (Windows NT 10.0; Win64; x64) AppleWebKit/537.36 (KHTML, like Gecko) Chrome/118.0.0.0 Safari/537.36","WebKit","Chrome","118.0.0.0","Windows","10.0","null","en-US,en;q=0.9","true","null","<div style=""font-size:100px;"">X</div>","null","","","fixation","","","","","","","",""
"","","","","","audio-keyboard-response","151","535660","0.0-170.0","35","1","2023-10-31 21:05:22","a725c3012b74bf33a1020a98cb69c237","186.13.96.88","Mozilla/5.0 (Windows NT 10.0; Win64; x64) AppleWebKit/537.36 (KHTML, like Gecko) Chrome/118.0.0.0 Safari/537.36","WebKit","Chrome","118.0.0.0","Windows","10.0","null","en-US,en;q=0.9","true","949","tones/880hz_short.mp3","s","","","tone_number_task","1025","treinta","tones/880hz_short.mp3","1175","60","2","24",""
"","","","","","html-keyboard-response","152","535739","0.0-171.0-0.0","35","1","2023-10-31 21:05:22","a725c3012b74bf33a1020a98cb69c237","186.13.96.88","Mozilla/5.0 (Windows NT 10.0; Win64; x64) AppleWebKit/537.36 (KHTML, like Gecko) Chrome/118.0.0.0 Safari/537.36","WebKit","Chrome","118.0.0.0","Windows","10.0","null","en-US,en;q=0.9","true","null","","null","","","delay_block","","","","","","2","24",""
"","","","","","html-keyboard-response","153","535893","0.0-171.0-1.0","35","1","2023-10-31 21:05:22","a725c3012b74bf33a1020a98cb69c237","186.13.96.88","Mozilla/5.0 (Windows NT 10.0; Win64; x64) AppleWebKit/537.36 (KHTML, like Gecko) Chrome/118.0.0.0 Safari/537.36","WebKit","Chrome","118.0.0.0","Windows","10.0","null","en-US,en;q=0.9","true","null","<p id=""stimulus"" style=""font-size:60px;"">treinta</p>","null","","","tone_number_task_remaining_before_delay","","treinta","","226","60","2","24",""
"","","","","","html-keyboard-response","154","537035","0.0-174.0-0.0","35","1","2023-10-31 21:05:22","a725c3012b74bf33a1020a98cb69c237","186.13.96.88","Mozilla/5.0 (Windows NT 10.0; Win64; x64) AppleWebKit/537.36 (KHTML, like Gecko) Chrome/118.0.0.0 Safari/537.36","WebKit","Chrome","118.0.0.0","Windows","10.0","null","en-US,en;q=0.9","true","1139","<p id=""stimulus"" style=""font-size:60px;"">treinta</p>","j","","","empty_block","","treinta","","","","2","24",""
"","","","","","html-keyboard-response","155","539670","0.0-175.0","35","1","2023-10-31 21:05:22","a725c3012b74bf33a1020a98cb69c237","186.13.96.88","Mozilla/5.0 (Windows NT 10.0; Win64; x64) AppleWebKit/537.36 (KHTML, like Gecko) Chrome/118.0.0.0 Safari/537.36","WebKit","Chrome","118.0.0.0","Windows","10.0","null","en-US,en;q=0.9","true","null","<div style=""font-size:100px;"">X</div>","null","","","fixation","","","","","","","",""
"","","","","","audio-keyboard-response","156","539826","0.0-176.0","35","1","2023-10-31 21:05:22","a725c3012b74bf33a1020a98cb69c237","186.13.96.88","Mozilla/5.0 (Windows NT 10.0; Win64; x64) AppleWebKit/537.36 (KHTML, like Gecko) Chrome/118.0.0.0 Safari/537.36","WebKit","Chrome","118.0.0.0","Windows","10.0","null","en-US,en;q=0.9","true","null","tones/440hz_short.mp3","null","","","tone_number_task","0","treinta y tres","tones/440hz_short.mp3","150","60","2","25",""
"","","","","","html-keyboard-response","157","541031","0.0-179.0-0.0","35","1","2023-10-31 21:05:22","a725c3012b74bf33a1020a98cb69c237","186.13.96.88","Mozilla/5.0 (Windows NT 10.0; Win64; x64) AppleWebKit/537.36 (KHTML, like Gecko) Chrome/118.0.0.0 Safari/537.36","WebKit","Chrome","118.0.0.0","Windows","10.0","null","en-US,en;q=0.9","true","null","tones/440hz_short.mp3","null","","","empty_block","","treinta y tres","","","","2","25",""
"","","","","","html-keyboard-response","158","541234","0.0-179.0-1.0","35","1","2023-10-31 21:05:22","a725c3012b74bf33a1020a98cb69c237","186.13.96.88","Mozilla/5.0 (Windows NT 10.0; Win64; x64) AppleWebKit/537.36 (KHTML, like Gecko) Chrome/118.0.0.0 Safari/537.36","WebKit","Chrome","118.0.0.0","Windows","10.0","null","en-US,en;q=0.9","true","199","tones/440hz_short.mp3","a","","","empty_block","","treinta y tres","","","","2","25",""
"","","","","","html-keyboard-response","159","543871","0.0-181.0","35","1","2023-10-31 21:05:22","a725c3012b74bf33a1020a98cb69c237","186.13.96.88","Mozilla/5.0 (Windows NT 10.0; Win64; x64) AppleWebKit/537.36 (KHTML, like Gecko) Chrome/118.0.0.0 Safari/537.36","WebKit","Chrome","118.0.0.0","Windows","10.0","null","en-US,en;q=0.9","true","null","<div style=""font-size:100px;"">X</div>","null","","","fixation","","","","","","","",""
"","","","","","audio-keyboard-response","160","544128","0.0-182.0","35","1","2023-10-31 21:05:22","a725c3012b74bf33a1020a98cb69c237","186.13.96.88","Mozilla/5.0 (Windows NT 10.0; Win64; x64) AppleWebKit/537.36 (KHTML, like Gecko) Chrome/118.0.0.0 Safari/537.36","WebKit","Chrome","118.0.0.0","Windows","10.0","null","en-US,en;q=0.9","true","null","tones/880hz_short.mp3","null","","","tone_number_task","102.5","treinta y seis","tones/880hz_short.mp3","252.5","60","2","26",""
"","","","","","html-keyboard-response","161","544565","0.0-185.0-0.0","35","1","2023-10-31 21:05:22","a725c3012b74bf33a1020a98cb69c237","186.13.96.88","Mozilla/5.0 (Windows NT 10.0; Win64; x64) AppleWebKit/537.36 (KHTML, like Gecko) Chrome/118.0.0.0 Safari/537.36","WebKit","Chrome","118.0.0.0","Windows","10.0","null","en-US,en;q=0.9","true","433","tones/880hz_short.mp3","s","","","empty_block","","treinta y seis","","","","2","26",""
"","","","","","html-keyboard-response","162","545195","0.0-185.0-1.0","35","1","2023-10-31 21:05:22","a725c3012b74bf33a1020a98cb69c237","186.13.96.88","Mozilla/5.0 (Windows NT 10.0; Win64; x64) AppleWebKit/537.36 (KHTML, like Gecko) Chrome/118.0.0.0 Safari/537.36","WebKit","Chrome","118.0.0.0","Windows","10.0","null","en-US,en;q=0.9","true","627","tones/880hz_short.mp3","j","","","empty_block","","treinta y seis","","","","2","26",""
"","","","","","html-keyboard-response","163","547840","0.0-187.0","35","1","2023-10-31 21:05:22","a725c3012b74bf33a1020a98cb69c237","186.13.96.88","Mozilla/5.0 (Windows NT 10.0; Win64; x64) AppleWebKit/537.36 (KHTML, like Gecko) Chrome/118.0.0.0 Safari/537.36","WebKit","Chrome","118.0.0.0","Windows","10.0","null","en-US,en;q=0.9","true","null","<div style=""font-size:100px;"">X</div>","null","","","fixation","","","","","","","",""
"","","","","","audio-keyboard-response","164","548095","0.0-188.0","35","1","2023-10-31 21:05:22","a725c3012b74bf33a1020a98cb69c237","186.13.96.88","Mozilla/5.0 (Windows NT 10.0; Win64; x64) AppleWebKit/537.36 (KHTML, like Gecko) Chrome/118.0.0.0 Safari/537.36","WebKit","Chrome","118.0.0.0","Windows","10.0","null","en-US,en;q=0.9","true","null","tones/880hz_short.mp3","null","","","tone_number_task","102.5","cincuenta","tones/880hz_short.mp3","252.5","60","2","27",""
"","","","","","html-keyboard-response","165","548691","0.0-191.0-0.0","35","1","2023-10-31 21:05:22","a725c3012b74bf33a1020a98cb69c237","186.13.96.88","Mozilla/5.0 (Windows NT 10.0; Win64; x64) AppleWebKit/537.36 (KHTML, like Gecko) Chrome/118.0.0.0 Safari/537.36","WebKit","Chrome","118.0.0.0","Windows","10.0","null","en-US,en;q=0.9","true","593","tones/880hz_short.mp3","s","","","empty_block","","cincuenta","","","","2","27",""
"","","","","","html-keyboard-response","166","549096","0.0-191.0-1.0","35","1","2023-10-31 21:05:22","a725c3012b74bf33a1020a98cb69c237","186.13.96.88","Mozilla/5.0 (Windows NT 10.0; Win64; x64) AppleWebKit/537.36 (KHTML, like Gecko) Chrome/118.0.0.0 Safari/537.36","WebKit","Chrome","118.0.0.0","Windows","10.0","null","en-US,en;q=0.9","true","402","tones/880hz_short.mp3","k","","","empty_block","","cincuenta","","","","2","27",""
"","","","","","html-keyboard-response","167","551731","0.0-193.0","35","1","2023-10-31 21:05:22","a725c3012b74bf33a1020a98cb69c237","186.13.96.88","Mozilla/5.0 (Windows NT 10.0; Win64; x64) AppleWebKit/537.36 (KHTML, like Gecko) Chrome/118.0.0.0 Safari/537.36","WebKit","Chrome","118.0.0.0","Windows","10.0","null","en-US,en;q=0.9","true","null","<div style=""font-size:100px;"">X</div>","null","","","fixation","","","","","","","",""
"","","","","","audio-keyboard-response","168","552613","0.0-194.0","35","1","2023-10-31 21:05:22","a725c3012b74bf33a1020a98cb69c237","186.13.96.88","Mozilla/5.0 (Windows NT 10.0; Win64; x64) AppleWebKit/537.36 (KHTML, like Gecko) Chrome/118.0.0.0 Safari/537.36","WebKit","Chrome","118.0.0.0","Windows","10.0","null","en-US,en;q=0.9","true","875","tones/880hz_short.mp3","s","","","tone_number_task","1025","treinta y ocho","tones/880hz_short.mp3","1175","60","2","28",""
"","","","","","html-keyboard-response","169","552767","0.0-195.0-0.0","35","1","2023-10-31 21:05:22","a725c3012b74bf33a1020a98cb69c237","186.13.96.88","Mozilla/5.0 (Windows NT 10.0; Win64; x64) AppleWebKit/537.36 (KHTML, like Gecko) Chrome/118.0.0.0 Safari/537.36","WebKit","Chrome","118.0.0.0","Windows","10.0","null","en-US,en;q=0.9","true","null","","null","","","delay_block","","","","","","2","28",""
"","","","","","html-keyboard-response","170","552920","0.0-195.0-1.0","35","1","2023-10-31 21:05:22","a725c3012b74bf33a1020a98cb69c237","186.13.96.88","Mozilla/5.0 (Windows NT 10.0; Win64; x64) AppleWebKit/537.36 (KHTML, like Gecko) Chrome/118.0.0.0 Safari/537.36","WebKit","Chrome","118.0.0.0","Windows","10.0","null","en-US,en;q=0.9","true","null","<p id=""stimulus"" style=""font-size:60px;"">treinta y ocho</p>","null","","","tone_number_task_remaining_before_delay","","treinta y ocho","","300","60","2","28",""
"","","","","","html-keyboard-response","171","553448","0.0-198.0-0.0","35","1","2023-10-31 21:05:22","a725c3012b74bf33a1020a98cb69c237","186.13.96.88","Mozilla/5.0 (Windows NT 10.0; Win64; x64) AppleWebKit/537.36 (KHTML, like Gecko) Chrome/118.0.0.0 Safari/537.36","WebKit","Chrome","118.0.0.0","Windows","10.0","null","en-US,en;q=0.9","true","525","<p id=""stimulus"" style=""font-size:60px;"">treinta y ocho</p>","j","","","empty_block","","treinta y ocho","","","","2","28",""
"","","","","","html-keyboard-response","172","556082","0.0-199.0","35","1","2023-10-31 21:05:22","a725c3012b74bf33a1020a98cb69c237","186.13.96.88","Mozilla/5.0 (Windows NT 10.0; Win64; x64) AppleWebKit/537.36 (KHTML, like Gecko) Chrome/118.0.0.0 Safari/537.36","WebKit","Chrome","118.0.0.0","Windows","10.0","null","en-US,en;q=0.9","true","null","<div style=""font-size:100px;"">X</div>","null","","","fixation","","","","","","","",""
"","","","","","audio-keyboard-response","173","556236","0.0-200.0","35","1","2023-10-31 21:05:22","a725c3012b74bf33a1020a98cb69c237","186.13.96.88","Mozilla/5.0 (Windows NT 10.0; Win64; x64) AppleWebKit/537.36 (KHTML, like Gecko) Chrome/118.0.0.0 Safari/537.36","WebKit","Chrome","118.0.0.0","Windows","10.0","null","en-US,en;q=0.9","true","null","tones/440hz_short.mp3","null","","","tone_number_task","0","veintiseis","tones/440hz_short.mp3","150","60","2","29",""
"","","","","","html-keyboard-response","174","556828","0.0-203.0-0.0","35","1","2023-10-31 21:05:22","a725c3012b74bf33a1020a98cb69c237","186.13.96.88","Mozilla/5.0 (Windows NT 10.0; Win64; x64) AppleWebKit/537.36 (KHTML, like Gecko) Chrome/118.0.0.0 Safari/537.36","WebKit","Chrome","118.0.0.0","Windows","10.0","null","en-US,en;q=0.9","true","589","tones/440hz_short.mp3","a","","","empty_block","","veintiseis","","","","2","29",""
"","","","","","html-keyboard-response","175","557305","0.0-203.0-1.0","35","1","2023-10-31 21:05:22","a725c3012b74bf33a1020a98cb69c237","186.13.96.88","Mozilla/5.0 (Windows NT 10.0; Win64; x64) AppleWebKit/537.36 (KHTML, like Gecko) Chrome/118.0.0.0 Safari/537.36","WebKit","Chrome","118.0.0.0","Windows","10.0","null","en-US,en;q=0.9","true","474","tones/440hz_short.mp3","j","","","empty_block","","veintiseis","","","","2","29",""
"","","","","","html-keyboard-response","176","559941","0.0-205.0","35","1","2023-10-31 21:05:22","a725c3012b74bf33a1020a98cb69c237","186.13.96.88","Mozilla/5.0 (Windows NT 10.0; Win64; x64) AppleWebKit/537.36 (KHTML, like Gecko) Chrome/118.0.0.0 Safari/537.36","WebKit","Chrome","118.0.0.0","Windows","10.0","null","en-US,en;q=0.9","true","null","<div style=""font-size:100px;"">X</div>","null","","","fixation","","","","","","","",""
"","","","","","audio-keyboard-response","177","560097","0.0-206.0","35","1","2023-10-31 21:05:22","a725c3012b74bf33a1020a98cb69c237","186.13.96.88","Mozilla/5.0 (Windows NT 10.0; Win64; x64) AppleWebKit/537.36 (KHTML, like Gecko) Chrome/118.0.0.0 Safari/537.36","WebKit","Chrome","118.0.0.0","Windows","10.0","null","en-US,en;q=0.9","true","null","tones/440hz_short.mp3","null","","","tone_number_task","0","treinta y uno","tones/440hz_short.mp3","150","60","2","30",""
"","","","","","html-keyboard-response","178","560583","0.0-209.0-0.0","35","1","2023-10-31 21:05:22","a725c3012b74bf33a1020a98cb69c237","186.13.96.88","Mozilla/5.0 (Windows NT 10.0; Win64; x64) AppleWebKit/537.36 (KHTML, like Gecko) Chrome/118.0.0.0 Safari/537.36","WebKit","Chrome","118.0.0.0","Windows","10.0","null","en-US,en;q=0.9","true","482","tones/440hz_short.mp3","a","","","empty_block","","treinta y uno","","","","2","30",""
"","","","","","html-keyboard-response","179","561103","0.0-209.0-1.0","35","1","2023-10-31 21:05:22","a725c3012b74bf33a1020a98cb69c237","186.13.96.88","Mozilla/5.0 (Windows NT 10.0; Win64; x64) AppleWebKit/537.36 (KHTML, like Gecko) Chrome/118.0.0.0 Safari/537.36","WebKit","Chrome","118.0.0.0","Windows","10.0","null","en-US,en;q=0.9","true","517","tones/440hz_short.mp3","j","","","empty_block","","treinta y uno","","","","2","30",""
"","","","","","html-keyboard-response","180","563737","0.0-211.0","35","1","2023-10-31 21:05:22","a725c3012b74bf33a1020a98cb69c237","186.13.96.88","Mozilla/5.0 (Windows NT 10.0; Win64; x64) AppleWebKit/537.36 (KHTML, like Gecko) Chrome/118.0.0.0 Safari/537.36","WebKit","Chrome","118.0.0.0","Windows","10.0","null","en-US,en;q=0.9","true","null","<div style=""font-size:100px;"">X</div>","null","","","fixation","","","","","","","",""
"","","","","","audio-keyboard-response","181","564533","0.0-212.0","35","1","2023-10-31 21:05:22","a725c3012b74bf33a1020a98cb69c237","186.13.96.88","Mozilla/5.0 (Windows NT 10.0; Win64; x64) AppleWebKit/537.36 (KHTML, like Gecko) Chrome/118.0.0.0 Safari/537.36","WebKit","Chrome","118.0.0.0","Windows","10.0","null","en-US,en;q=0.9","true","789","tones/440hz_short.mp3","a","","","tone_number_task","1025","cincuenta y cuatro","tones/440hz_short.mp3","1175","60","2","31",""
"","","","","","html-keyboard-response","182","564773","0.0-213.0-0.0","35","1","2023-10-31 21:05:22","a725c3012b74bf33a1020a98cb69c237","186.13.96.88","Mozilla/5.0 (Windows NT 10.0; Win64; x64) AppleWebKit/537.36 (KHTML, like Gecko) Chrome/118.0.0.0 Safari/537.36","WebKit","Chrome","118.0.0.0","Windows","10.0","null","en-US,en;q=0.9","true","null","","null","","","delay_block","","","","","","2","31",""
"","","","","","html-keyboard-response","183","564927","0.0-213.0-1.0","35","1","2023-10-31 21:05:22","a725c3012b74bf33a1020a98cb69c237","186.13.96.88","Mozilla/5.0 (Windows NT 10.0; Win64; x64) AppleWebKit/537.36 (KHTML, like Gecko) Chrome/118.0.0.0 Safari/537.36","WebKit","Chrome","118.0.0.0","Windows","10.0","null","en-US,en;q=0.9","true","null","<p id=""stimulus"" style=""font-size:60px;"">cincuenta y cuatro</p>","null","","","tone_number_task_remaining_before_delay","","cincuenta y cuatro","","386","60","2","31",""
"","","","","","html-keyboard-response","184","565917","0.0-216.0-0.0","35","1","2023-10-31 21:05:22","a725c3012b74bf33a1020a98cb69c237","186.13.96.88","Mozilla/5.0 (Windows NT 10.0; Win64; x64) AppleWebKit/537.36 (KHTML, like Gecko) Chrome/118.0.0.0 Safari/537.36","WebKit","Chrome","118.0.0.0","Windows","10.0","null","en-US,en;q=0.9","true","986","<p id=""stimulus"" style=""font-size:60px;"">cincuenta y cuatro</p>","k","","","empty_block","","cincuenta y cuatro","","","","2","31",""
"","","","","","html-keyboard-response","185","568551","0.0-217.0","35","1","2023-10-31 21:05:22","a725c3012b74bf33a1020a98cb69c237","186.13.96.88","Mozilla/5.0 (Windows NT 10.0; Win64; x64) AppleWebKit/537.36 (KHTML, like Gecko) Chrome/118.0.0.0 Safari/537.36","WebKit","Chrome","118.0.0.0","Windows","10.0","null","en-US,en;q=0.9","true","null","<div style=""font-size:100px;"">X</div>","null","","","fixation","","","","","","","",""
"","","","","","audio-keyboard-response","186","569272","0.0-218.0","35","1","2023-10-31 21:05:22","a725c3012b74bf33a1020a98cb69c237","186.13.96.88","Mozilla/5.0 (Windows NT 10.0; Win64; x64) AppleWebKit/537.36 (KHTML, like Gecko) Chrome/118.0.0.0 Safari/537.36","WebKit","Chrome","118.0.0.0","Windows","10.0","null","en-US,en;q=0.9","true","715","tones/440hz_short.mp3","a","","","tone_number_task","992.5","cincuenta y uno","tones/440hz_short.mp3","1142.5","60","2","32",""
"","","","","","html-keyboard-response","187","569553","0.0-219.0-0.0","35","1","2023-10-31 21:05:22","a725c3012b74bf33a1020a98cb69c237","186.13.96.88","Mozilla/5.0 (Windows NT 10.0; Win64; x64) AppleWebKit/537.36 (KHTML, like Gecko) Chrome/118.0.0.0 Safari/537.36","WebKit","Chrome","118.0.0.0","Windows","10.0","null","en-US,en;q=0.9","true","null","","null","","","delay_block","","","","","","2","32",""
"","","","","","html-keyboard-response","188","569709","0.0-219.0-1.0","35","1","2023-10-31 21:05:22","a725c3012b74bf33a1020a98cb69c237","186.13.96.88","Mozilla/5.0 (Windows NT 10.0; Win64; x64) AppleWebKit/537.36 (KHTML, like Gecko) Chrome/118.0.0.0 Safari/537.36","WebKit","Chrome","118.0.0.0","Windows","10.0","null","en-US,en;q=0.9","true","null","<p id=""stimulus"" style=""font-size:60px;"">cincuenta y uno</p>","null","","","tone_number_task_remaining_before_delay","","cincuenta y uno","","427.5","60","2","32",""
"","","","","","html-keyboard-response","189","570305","0.0-222.0-0.0","35","1","2023-10-31 21:05:22","a725c3012b74bf33a1020a98cb69c237","186.13.96.88","Mozilla/5.0 (Windows NT 10.0; Win64; x64) AppleWebKit/537.36 (KHTML, like Gecko) Chrome/118.0.0.0 Safari/537.36","WebKit","Chrome","118.0.0.0","Windows","10.0","null","en-US,en;q=0.9","true","593","<p id=""stimulus"" style=""font-size:60px;"">cincuenta y uno</p>","k","","","empty_block","","cincuenta y uno","","","","2","32",""
"","","","","","html-keyboard-response","190","572940","0.0-223.0","35","1","2023-10-31 21:05:22","a725c3012b74bf33a1020a98cb69c237","186.13.96.88","Mozilla/5.0 (Windows NT 10.0; Win64; x64) AppleWebKit/537.36 (KHTML, like Gecko) Chrome/118.0.0.0 Safari/537.36","WebKit","Chrome","118.0.0.0","Windows","10.0","null","en-US,en;q=0.9","true","null","<div style=""font-size:100px;"">X</div>","null","","","fixation","","","","","","","",""
"","","","","","audio-keyboard-response","191","573094","0.0-224.0","35","1","2023-10-31 21:05:22","a725c3012b74bf33a1020a98cb69c237","186.13.96.88","Mozilla/5.0 (Windows NT 10.0; Win64; x64) AppleWebKit/537.36 (KHTML, like Gecko) Chrome/118.0.0.0 Safari/537.36","WebKit","Chrome","118.0.0.0","Windows","10.0","null","en-US,en;q=0.9","true","null","tones/440hz_short.mp3","null","","","tone_number_task","0","sesenta y tres","tones/440hz_short.mp3","150","60","2","33",""
"","","","","","html-keyboard-response","192","574298","0.0-227.0-0.0","35","1","2023-10-31 21:05:22","a725c3012b74bf33a1020a98cb69c237","186.13.96.88","Mozilla/5.0 (Windows NT 10.0; Win64; x64) AppleWebKit/537.36 (KHTML, like Gecko) Chrome/118.0.0.0 Safari/537.36","WebKit","Chrome","118.0.0.0","Windows","10.0","null","en-US,en;q=0.9","true","null","tones/440hz_short.mp3","null","","","empty_block","","sesenta y tres","","","","2","33",""
"","","","","","html-keyboard-response","193","575051","0.0-227.0-1.0","35","1","2023-10-31 21:05:22","a725c3012b74bf33a1020a98cb69c237","186.13.96.88","Mozilla/5.0 (Windows NT 10.0; Win64; x64) AppleWebKit/537.36 (KHTML, like Gecko) Chrome/118.0.0.0 Safari/537.36","WebKit","Chrome","118.0.0.0","Windows","10.0","null","en-US,en;q=0.9","true","750","tones/440hz_short.mp3","a","","","empty_block","","sesenta y tres","","","","2","33",""
"","","","","","html-keyboard-response","194","577686","0.0-229.0","35","1","2023-10-31 21:05:22","a725c3012b74bf33a1020a98cb69c237","186.13.96.88","Mozilla/5.0 (Windows NT 10.0; Win64; x64) AppleWebKit/537.36 (KHTML, like Gecko) Chrome/118.0.0.0 Safari/537.36","WebKit","Chrome","118.0.0.0","Windows","10.0","null","en-US,en;q=0.9","true","null","<div style=""font-size:100px;"">X</div>","null","","","fixation","","","","","","","",""
"","","","","","audio-keyboard-response","195","578754","0.0-230.0","35","1","2023-10-31 21:05:22","a725c3012b74bf33a1020a98cb69c237","186.13.96.88","Mozilla/5.0 (Windows NT 10.0; Win64; x64) AppleWebKit/537.36 (KHTML, like Gecko) Chrome/118.0.0.0 Safari/537.36","WebKit","Chrome","118.0.0.0","Windows","10.0","null","en-US,en;q=0.9","true","1056","tones/880hz_short.mp3","s","","","tone_number_task","992.5","cuarenta","tones/880hz_short.mp3","1142.5","60","2","34",""
"","","","","","html-keyboard-response","196","578844","0.0-232.0-0.0","35","1","2023-10-31 21:05:22","a725c3012b74bf33a1020a98cb69c237","186.13.96.88","Mozilla/5.0 (Windows NT 10.0; Win64; x64) AppleWebKit/537.36 (KHTML, like Gecko) Chrome/118.0.0.0 Safari/537.36","WebKit","Chrome","118.0.0.0","Windows","10.0","null","en-US,en;q=0.9","true","null","<p id=""stimulus"" style=""font-size:60px;"">cuarenta</p>","null","","","tone_number_task_remaining_after_delay","","cuarenta","","","60","2","34",""
"","","","","","html-keyboard-response","197","580048","0.0-234.0-0.0","35","1","2023-10-31 21:05:22","a725c3012b74bf33a1020a98cb69c237","186.13.96.88","Mozilla/5.0 (Windows NT 10.0; Win64; x64) AppleWebKit/537.36 (KHTML, like Gecko) Chrome/118.0.0.0 Safari/537.36","WebKit","Chrome","118.0.0.0","Windows","10.0","null","en-US,en;q=0.9","true","null","<p id=""stimulus"" style=""font-size:60px;"">cuarenta</p>","null","","","empty_block","","cuarenta","","","","2","34",""
"","","","","","html-keyboard-response","198","582686","0.0-235.0","35","1","2023-10-31 21:05:22","a725c3012b74bf33a1020a98cb69c237","186.13.96.88","Mozilla/5.0 (Windows NT 10.0; Win64; x64) AppleWebKit/537.36 (KHTML, like Gecko) Chrome/118.0.0.0 Safari/537.36","WebKit","Chrome","118.0.0.0","Windows","10.0","null","en-US,en;q=0.9","true","null","<div style=""font-size:100px;"">X</div>","null","","","fixation","","","","","","","",""
"","","","","","audio-keyboard-response","199","582844","0.0-236.0","35","1","2023-10-31 21:05:22","a725c3012b74bf33a1020a98cb69c237","186.13.96.88","Mozilla/5.0 (Windows NT 10.0; Win64; x64) AppleWebKit/537.36 (KHTML, like Gecko) Chrome/118.0.0.0 Safari/537.36","WebKit","Chrome","118.0.0.0","Windows","10.0","null","en-US,en;q=0.9","true","null","tones/440hz_short.mp3","null","","","tone_number_task","0","cincuenta y nueve","tones/440hz_short.mp3","150","60","2","35",""
"","","","","","html-keyboard-response","200","584051","0.0-239.0-0.0","35","1","2023-10-31 21:05:22","a725c3012b74bf33a1020a98cb69c237","186.13.96.88","Mozilla/5.0 (Windows NT 10.0; Win64; x64) AppleWebKit/537.36 (KHTML, like Gecko) Chrome/118.0.0.0 Safari/537.36","WebKit","Chrome","118.0.0.0","Windows","10.0","null","en-US,en;q=0.9","true","1200","tones/440hz_short.mp3","a","","","empty_block","","cincuenta y nueve","","","","2","35",""
"","","","","","html-keyboard-response","201","584563","0.0-239.0-1.0","35","1","2023-10-31 21:05:22","a725c3012b74bf33a1020a98cb69c237","186.13.96.88","Mozilla/5.0 (Windows NT 10.0; Win64; x64) AppleWebKit/537.36 (KHTML, like Gecko) Chrome/118.0.0.0 Safari/537.36","WebKit","Chrome","118.0.0.0","Windows","10.0","null","en-US,en;q=0.9","true","508","tones/440hz_short.mp3","k","","","empty_block","","cincuenta y nueve","","","","2","35",""
"","","","","","html-keyboard-response","202","587199","0.0-241.0","35","1","2023-10-31 21:05:22","a725c3012b74bf33a1020a98cb69c237","186.13.96.88","Mozilla/5.0 (Windows NT 10.0; Win64; x64) AppleWebKit/537.36 (KHTML, like Gecko) Chrome/118.0.0.0 Safari/537.36","WebKit","Chrome","118.0.0.0","Windows","10.0","null","en-US,en;q=0.9","true","null","<div style=""font-size:100px;"">X</div>","null","","","fixation","","","","","","","",""
"","","","","","audio-keyboard-response","203","587906","0.0-242.0","35","1","2023-10-31 21:05:22","a725c3012b74bf33a1020a98cb69c237","186.13.96.88","Mozilla/5.0 (Windows NT 10.0; Win64; x64) AppleWebKit/537.36 (KHTML, like Gecko) Chrome/118.0.0.0 Safari/537.36","WebKit","Chrome","118.0.0.0","Windows","10.0","null","en-US,en;q=0.9","true","704","tones/440hz_short.mp3","a","","","tone_number_task","992.5","cuarenta y ocho","tones/440hz_short.mp3","1142.5","60","2","36",""
"","","","","","html-keyboard-response","204","588202","0.0-243.0-0.0","35","1","2023-10-31 21:05:22","a725c3012b74bf33a1020a98cb69c237","186.13.96.88","Mozilla/5.0 (Windows NT 10.0; Win64; x64) AppleWebKit/537.36 (KHTML, like Gecko) Chrome/118.0.0.0 Safari/537.36","WebKit","Chrome","118.0.0.0","Windows","10.0","null","en-US,en;q=0.9","true","null","","null","","","delay_block","","","","","","2","36",""
"","","","","","html-keyboard-response","205","588361","0.0-243.0-1.0","35","1","2023-10-31 21:05:22","a725c3012b74bf33a1020a98cb69c237","186.13.96.88","Mozilla/5.0 (Windows NT 10.0; Win64; x64) AppleWebKit/537.36 (KHTML, like Gecko) Chrome/118.0.0.0 Safari/537.36","WebKit","Chrome","118.0.0.0","Windows","10.0","null","en-US,en;q=0.9","true","null","<p id=""stimulus"" style=""font-size:60px;"">cuarenta y ocho</p>","null","","","tone_number_task_remaining_before_delay","","cuarenta y ocho","","438.5","60","2","36",""
"","","","","","html-keyboard-response","206","589102","0.0-246.0-0.0","35","1","2023-10-31 21:05:22","a725c3012b74bf33a1020a98cb69c237","186.13.96.88","Mozilla/5.0 (Windows NT 10.0; Win64; x64) AppleWebKit/537.36 (KHTML, like Gecko) Chrome/118.0.0.0 Safari/537.36","WebKit","Chrome","118.0.0.0","Windows","10.0","null","en-US,en;q=0.9","true","733","<p id=""stimulus"" style=""font-size:60px;"">cuarenta y ocho</p>","k","","","empty_block","","cuarenta y ocho","","","","2","36",""
"","","","","","html-keyboard-response","207","591740","0.0-247.0","35","1","2023-10-31 21:05:22","a725c3012b74bf33a1020a98cb69c237","186.13.96.88","Mozilla/5.0 (Windows NT 10.0; Win64; x64) AppleWebKit/537.36 (KHTML, like Gecko) Chrome/118.0.0.0 Safari/537.36","WebKit","Chrome","118.0.0.0","Windows","10.0","null","en-US,en;q=0.9","true","null","<div style=""font-size:100px;"">X</div>","null","","","fixation","","","","","","","",""
"","","","","","audio-keyboard-response","208","591997","0.0-248.0","35","1","2023-10-31 21:05:22","a725c3012b74bf33a1020a98cb69c237","186.13.96.88","Mozilla/5.0 (Windows NT 10.0; Win64; x64) AppleWebKit/537.36 (KHTML, like Gecko) Chrome/118.0.0.0 Safari/537.36","WebKit","Chrome","118.0.0.0","Windows","10.0","null","en-US,en;q=0.9","true","null","tones/440hz_short.mp3","null","","","tone_number_task","102.5","cincuenta y cuatro","tones/440hz_short.mp3","252.5","60","2","37",""
"","","","","","html-keyboard-response","209","592588","0.0-251.0-0.0","35","1","2023-10-31 21:05:22","a725c3012b74bf33a1020a98cb69c237","186.13.96.88","Mozilla/5.0 (Windows NT 10.0; Win64; x64) AppleWebKit/537.36 (KHTML, like Gecko) Chrome/118.0.0.0 Safari/537.36","WebKit","Chrome","118.0.0.0","Windows","10.0","null","en-US,en;q=0.9","true","588","tones/440hz_short.mp3","a","","","empty_block","","cincuenta y cuatro","","","","2","37",""
"","","","","","html-keyboard-response","210","593171","0.0-251.0-1.0","35","1","2023-10-31 21:05:22","a725c3012b74bf33a1020a98cb69c237","186.13.96.88","Mozilla/5.0 (Windows NT 10.0; Win64; x64) AppleWebKit/537.36 (KHTML, like Gecko) Chrome/118.0.0.0 Safari/537.36","WebKit","Chrome","118.0.0.0","Windows","10.0","null","en-US,en;q=0.9","true","580","tones/440hz_short.mp3","k","","","empty_block","","cincuenta y cuatro","","","","2","37",""
"","","","","","html-keyboard-response","211","595805","0.0-253.0","35","1","2023-10-31 21:05:22","a725c3012b74bf33a1020a98cb69c237","186.13.96.88","Mozilla/5.0 (Windows NT 10.0; Win64; x64) AppleWebKit/537.36 (KHTML, like Gecko) Chrome/118.0.0.0 Safari/537.36","WebKit","Chrome","118.0.0.0","Windows","10.0","null","en-US,en;q=0.9","true","null","<div style=""font-size:100px;"">X</div>","null","","","fixation","","","","","","","",""
"","","","","","audio-keyboard-response","212","596520","0.0-254.0","35","1","2023-10-31 21:05:22","a725c3012b74bf33a1020a98cb69c237","186.13.96.88","Mozilla/5.0 (Windows NT 10.0; Win64; x64) AppleWebKit/537.36 (KHTML, like Gecko) Chrome/118.0.0.0 Safari/537.36","WebKit","Chrome","118.0.0.0","Windows","10.0","null","en-US,en;q=0.9","true","715","tones/880hz_short.mp3","s","","","tone_number_task","1025","veintidós","tones/880hz_short.mp3","1175","60","2","38",""
"","","","","","html-keyboard-response","213","596834","0.0-255.0-0.0","35","1","2023-10-31 21:05:22","a725c3012b74bf33a1020a98cb69c237","186.13.96.88","Mozilla/5.0 (Windows NT 10.0; Win64; x64) AppleWebKit/537.36 (KHTML, like Gecko) Chrome/118.0.0.0 Safari/537.36","WebKit","Chrome","118.0.0.0","Windows","10.0","null","en-US,en;q=0.9","true","null","","null","","","delay_block","","","","","","2","38",""
"","","","","","html-keyboard-response","214","596988","0.0-255.0-1.0","35","1","2023-10-31 21:05:22","a725c3012b74bf33a1020a98cb69c237","186.13.96.88","Mozilla/5.0 (Windows NT 10.0; Win64; x64) AppleWebKit/537.36 (KHTML, like Gecko) Chrome/118.0.0.0 Safari/537.36","WebKit","Chrome","118.0.0.0","Windows","10.0","null","en-US,en;q=0.9","true","null","<p id=""stimulus"" style=""font-size:60px;"">veintidós</p>","null","","","tone_number_task_remaining_before_delay","","veintidós","","460","60","2","38",""
"","","","","","html-keyboard-response","215","597558","0.0-258.0-0.0","35","1","2023-10-31 21:05:22","a725c3012b74bf33a1020a98cb69c237","186.13.96.88","Mozilla/5.0 (Windows NT 10.0; Win64; x64) AppleWebKit/537.36 (KHTML, like Gecko) Chrome/118.0.0.0 Safari/537.36","WebKit","Chrome","118.0.0.0","Windows","10.0","null","en-US,en;q=0.9","true","566","<p id=""stimulus"" style=""font-size:60px;"">veintidós</p>","j","","","empty_block","","veintidós","","","","2","38",""
"","","","","","html-keyboard-response","216","600192","0.0-259.0","35","1","2023-10-31 21:05:22","a725c3012b74bf33a1020a98cb69c237","186.13.96.88","Mozilla/5.0 (Windows NT 10.0; Win64; x64) AppleWebKit/537.36 (KHTML, like Gecko) Chrome/118.0.0.0 Safari/537.36","WebKit","Chrome","118.0.0.0","Windows","10.0","null","en-US,en;q=0.9","true","null","<div style=""font-size:100px;"">X</div>","null","","","fixation","","","","","","","",""
"","","","","","audio-keyboard-response","217","600868","0.0-260.0","35","1","2023-10-31 21:05:22","a725c3012b74bf33a1020a98cb69c237","186.13.96.88","Mozilla/5.0 (Windows NT 10.0; Win64; x64) AppleWebKit/537.36 (KHTML, like Gecko) Chrome/118.0.0.0 Safari/537.36","WebKit","Chrome","118.0.0.0","Windows","10.0","null","en-US,en;q=0.9","true","672","tones/440hz_short.mp3","a","","","tone_number_task","1025","treinta y tres","tones/440hz_short.mp3","1175","60","2","39",""
