"success","timeout","failed_images","failed_audio","failed_video","trial_type","trial_index","time_elapsed","internal_node_id","run_id","condition","recorded_at","source_code_version","ip","user_agent","device","browser","browser_version","platform","platform_version","referer","accept_language","check","rt","stimulus","response","question_order","url","task","delay","number","audioFile","trial_duration","font_size","block","round","value"
"true","false","[]","[]","[]","preload","0","124","0.0-0.0","23","1","2023-10-31 20:14:33","a725c3012b74bf33a1020a98cb69c237","181.84.123.3","Mozilla/5.0 (Windows NT 10.0; Win64; x64) AppleWebKit/537.36 (KHTML, like Gecko) Chrome/118.0.0.0 Safari/537.36 Edg/118.0.2088.76","WebKit","Edge","118.0.2088.76","Windows","10.0","null","en-US,en;q=0.9","true","","","","","","","","","","","","","",""
"true","","","","","fullscreen","1","11327","0.0-1.0","23","1","2023-10-31 20:14:33","a725c3012b74bf33a1020a98cb69c237","181.84.123.3","Mozilla/5.0 (Windows NT 10.0; Win64; x64) AppleWebKit/537.36 (KHTML, like Gecko) Chrome/118.0.0.0 Safari/537.36 Edg/118.0.2088.76","WebKit","Edge","118.0.2088.76","Windows","10.0","null","en-US,en;q=0.9","true","","","","","","","","","","","","","",""
"","","","","","html-button-response","2","13793","0.0-2.0","23","1","2023-10-31 20:14:33","a725c3012b74bf33a1020a98cb69c237","181.84.123.3","Mozilla/5.0 (Windows NT 10.0; Win64; x64) AppleWebKit/537.36 (KHTML, like Gecko) Chrome/118.0.0.0 Safari/537.36 Edg/118.0.2088.76","WebKit","Edge","118.0.2088.76","Windows","10.0","null","en-US,en;q=0.9","true","2464","<p style=""font-size:24px; color:red;"">Cosas importantes a tener en cuenta antes de comenzar el experimento:</p>","0","","","","","","","","","","",""
"","","","","","html-button-response","3","14856","0.0-3.0","23","1","2023-10-31 20:14:33","a725c3012b74bf33a1020a98cb69c237","181.84.123.3","Mozilla/5.0 (Windows NT 10.0; Win64; x64) AppleWebKit/537.36 (KHTML, like Gecko) Chrome/118.0.0.0 Safari/537.36 Edg/118.0.2088.76","WebKit","Edge","118.0.2088.76","Windows","10.0","null","en-US,en;q=0.9","true","1062","<p style=""font-size:24px;"">El experimento dura aproximadamente 15 minutos.</p><p style=""font-size:24px;"">Por favor, no cierres la ventana del navegador durante el experimento.</p><p style=""font-size:24px;"">Si se completa de forma parcial, no se guardará ningún resultado.</p>","0","","","","","","","","","","",""
"","","","","","html-button-response","4","16331","0.0-4.0","23","1","2023-10-31 20:14:33","a725c3012b74bf33a1020a98cb69c237","181.84.123.3","Mozilla/5.0 (Windows NT 10.0; Win64; x64) AppleWebKit/537.36 (KHTML, like Gecko) Chrome/118.0.0.0 Safari/537.36 Edg/118.0.2088.76","WebKit","Edge","118.0.2088.76","Windows","10.0","null","en-US,en;q=0.9","true","1474","<p style=""font-size:24px;"">El experimento contiene estímulos sonoros.</p>","0","","","","","","","","","","",""
"","","","","","audio-button-response","5","17614","0.0-5.0-0.0","23","1","2023-10-31 20:14:33","a725c3012b74bf33a1020a98cb69c237","181.84.123.3","Mozilla/5.0 (Windows NT 10.0; Win64; x64) AppleWebKit/537.36 (KHTML, like Gecko) Chrome/118.0.0.0 Safari/537.36 Edg/118.0.2088.76","WebKit","Edge","118.0.2088.76","Windows","10.0","null","en-US,en;q=0.9","true","1251","tones/440hz_short.mp3","1","","","","","","","","","","",""
"","","","","","audio-button-response","6","20232","0.0-6.0-0.0","23","1","2023-10-31 20:14:33","a725c3012b74bf33a1020a98cb69c237","181.84.123.3","Mozilla/5.0 (Windows NT 10.0; Win64; x64) AppleWebKit/537.36 (KHTML, like Gecko) Chrome/118.0.0.0 Safari/537.36 Edg/118.0.2088.76","WebKit","Edge","118.0.2088.76","Windows","10.0","null","en-US,en;q=0.9","true","2619","tones/880hz_short.mp3","1","","","","","","","","","","",""
"","","","","","survey-html-form","7","23303","0.0-7.0","23","1","2023-10-31 20:14:33","a725c3012b74bf33a1020a98cb69c237","181.84.123.3","Mozilla/5.0 (Windows NT 10.0; Win64; x64) AppleWebKit/537.36 (KHTML, like Gecko) Chrome/118.0.0.0 Safari/537.36 Edg/118.0.2088.76","WebKit","Edge","118.0.2088.76","Windows","10.0","null","en-US,en;q=0.9","true","3067","","{""response"":""29""}","","","","","","","","","","",""
"","","","","","survey-multi-choice","8","28389","0.0-8.0","23","1","2023-10-31 20:14:33","a725c3012b74bf33a1020a98cb69c237","181.84.123.3","Mozilla/5.0 (Windows NT 10.0; Win64; x64) AppleWebKit/537.36 (KHTML, like Gecko) Chrome/118.0.0.0 Safari/537.36 Edg/118.0.2088.76","WebKit","Edge","118.0.2088.76","Windows","10.0","null","en-US,en;q=0.9","true","5085","","{""gender"":""Hombre"",""hand"":""Derecha""}","[0,1]","","","","","","","","","",""
"","","","","","external-html","9","506009","0.0-9.0","23","1","2023-10-31 20:14:33","a725c3012b74bf33a1020a98cb69c237","181.84.123.3","Mozilla/5.0 (Windows NT 10.0; Win64; x64) AppleWebKit/537.36 (KHTML, like Gecko) Chrome/118.0.0.0 Safari/537.36 Edg/118.0.2088.76","WebKit","Edge","118.0.2088.76","Windows","10.0","null","en-US,en;q=0.9","true","477355","","","","instructions/instructions.html","","","","","","","","",""
"","","","","","external-html","10","566850","0.0-10.0","23","1","2023-10-31 20:14:33","a725c3012b74bf33a1020a98cb69c237","181.84.123.3","Mozilla/5.0 (Windows NT 10.0; Win64; x64) AppleWebKit/537.36 (KHTML, like Gecko) Chrome/118.0.0.0 Safari/537.36 Edg/118.0.2088.76","WebKit","Edge","118.0.2088.76","Windows","10.0","null","en-US,en;q=0.9","true","59521","","","","instructions/animation.html","","","","","","","","",""
"","","","","","html-keyboard-response","11","569559","0.0-11.0-0.0","23","1","2023-10-31 20:14:33","a725c3012b74bf33a1020a98cb69c237","181.84.123.3","Mozilla/5.0 (Windows NT 10.0; Win64; x64) AppleWebKit/537.36 (KHTML, like Gecko) Chrome/118.0.0.0 Safari/537.36 Edg/118.0.2088.76","WebKit","Edge","118.0.2088.76","Windows","10.0","null","en-US,en;q=0.9","true","null","<div style=""font-size:100px;"">X</div>","null","","","fixation","","","","","","","",""
"","","","","","audio-keyboard-response","12","570158","0.0-11.0-1.0","23","1","2023-10-31 20:14:33","a725c3012b74bf33a1020a98cb69c237","181.84.123.3","Mozilla/5.0 (Windows NT 10.0; Win64; x64) AppleWebKit/537.36 (KHTML, like Gecko) Chrome/118.0.0.0 Safari/537.36 Edg/118.0.2088.76","WebKit","Edge","118.0.2088.76","Windows","10.0","null","en-US,en;q=0.9","true","600","tones/880hz_short.mp3","s","","","tone_number_task","1000","22","tones/880hz_short.mp3","1150","100","null","null",""
"","","","","","html-keyboard-response","13","570560","0.0-11.0-2.0-0.0","23","1","2023-10-31 20:14:33","a725c3012b74bf33a1020a98cb69c237","181.84.123.3","Mozilla/5.0 (Windows NT 10.0; Win64; x64) AppleWebKit/537.36 (KHTML, like Gecko) Chrome/118.0.0.0 Safari/537.36 Edg/118.0.2088.76","WebKit","Edge","118.0.2088.76","Windows","10.0","null","en-US,en;q=0.9","true","null","","null","","","delay_block","","","","","","null","null",""
"","","","","","html-keyboard-response","14","570711","0.0-11.0-2.0-1.0","23","1","2023-10-31 20:14:33","a725c3012b74bf33a1020a98cb69c237","181.84.123.3","Mozilla/5.0 (Windows NT 10.0; Win64; x64) AppleWebKit/537.36 (KHTML, like Gecko) Chrome/118.0.0.0 Safari/537.36 Edg/118.0.2088.76","WebKit","Edge","118.0.2088.76","Windows","10.0","null","en-US,en;q=0.9","true","null","<p id=""stimulus"" style=""font-size:100px;"">22</p>","null","","","tone_number_task_remaining_before_delay","","22","","550","100","null","null",""
"","","","","","html-keyboard-response","15","571615","0.0-11.0-5.0-0.0","23","1","2023-10-31 20:14:33","a725c3012b74bf33a1020a98cb69c237","181.84.123.3","Mozilla/5.0 (Windows NT 10.0; Win64; x64) AppleWebKit/537.36 (KHTML, like Gecko) Chrome/118.0.0.0 Safari/537.36 Edg/118.0.2088.76","WebKit","Edge","118.0.2088.76","Windows","10.0","null","en-US,en;q=0.9","true","903","<p id=""stimulus"" style=""font-size:100px;"">22</p>","j","","","empty_block","","22","","","","null","null",""
"","","","","","html-keyboard-response","16","574322","0.0-13.0-0.0","23","1","2023-10-31 20:14:33","a725c3012b74bf33a1020a98cb69c237","181.84.123.3","Mozilla/5.0 (Windows NT 10.0; Win64; x64) AppleWebKit/537.36 (KHTML, like Gecko) Chrome/118.0.0.0 Safari/537.36 Edg/118.0.2088.76","WebKit","Edge","118.0.2088.76","Windows","10.0","null","en-US,en;q=0.9","true","null","<div style=""font-size:100px;"">X</div>","null","","","fixation","","","","","","","",""
"","","","","","audio-keyboard-response","17","574974","0.0-13.0-1.0","23","1","2023-10-31 20:14:33","a725c3012b74bf33a1020a98cb69c237","181.84.123.3","Mozilla/5.0 (Windows NT 10.0; Win64; x64) AppleWebKit/537.36 (KHTML, like Gecko) Chrome/118.0.0.0 Safari/537.36 Edg/118.0.2088.76","WebKit","Edge","118.0.2088.76","Windows","10.0","null","en-US,en;q=0.9","true","null","tones/440hz_short.mp3","null","","","tone_number_task","500","31","tones/440hz_short.mp3","650","100","null","null",""
"","","","","","html-keyboard-response","18","575181","0.0-13.0-4.0-0.0","23","1","2023-10-31 20:14:33","a725c3012b74bf33a1020a98cb69c237","181.84.123.3","Mozilla/5.0 (Windows NT 10.0; Win64; x64) AppleWebKit/537.36 (KHTML, like Gecko) Chrome/118.0.0.0 Safari/537.36 Edg/118.0.2088.76","WebKit","Edge","118.0.2088.76","Windows","10.0","null","en-US,en;q=0.9","true","203","tones/440hz_short.mp3","a","","","empty_block","","31","","","","null","null",""
"","","","","","html-keyboard-response","19","575822","0.0-13.0-4.0-1.0","23","1","2023-10-31 20:14:33","a725c3012b74bf33a1020a98cb69c237","181.84.123.3","Mozilla/5.0 (Windows NT 10.0; Win64; x64) AppleWebKit/537.36 (KHTML, like Gecko) Chrome/118.0.0.0 Safari/537.36 Edg/118.0.2088.76","WebKit","Edge","118.0.2088.76","Windows","10.0","null","en-US,en;q=0.9","true","641","tones/440hz_short.mp3","j","","","empty_block","","31","","","","null","null",""
"","","","","","html-keyboard-response","20","578529","0.0-15.0-0.0","23","1","2023-10-31 20:14:33","a725c3012b74bf33a1020a98cb69c237","181.84.123.3","Mozilla/5.0 (Windows NT 10.0; Win64; x64) AppleWebKit/537.36 (KHTML, like Gecko) Chrome/118.0.0.0 Safari/537.36 Edg/118.0.2088.76","WebKit","Edge","118.0.2088.76","Windows","10.0","null","en-US,en;q=0.9","true","null","<div style=""font-size:100px;"">X</div>","null","","","fixation","","","","","","","",""
"","","","","","audio-keyboard-response","21","578831","0.0-15.0-1.0","23","1","2023-10-31 20:14:33","a725c3012b74bf33a1020a98cb69c237","181.84.123.3","Mozilla/5.0 (Windows NT 10.0; Win64; x64) AppleWebKit/537.36 (KHTML, like Gecko) Chrome/118.0.0.0 Safari/537.36 Edg/118.0.2088.76","WebKit","Edge","118.0.2088.76","Windows","10.0","null","en-US,en;q=0.9","true","null","tones/440hz_short.mp3","null","","","tone_number_task","150","36","tones/440hz_short.mp3","300","100","null","null",""
"","","","","","html-keyboard-response","22","580359","0.0-15.0-4.0-0.0","23","1","2023-10-31 20:14:33","a725c3012b74bf33a1020a98cb69c237","181.84.123.3","Mozilla/5.0 (Windows NT 10.0; Win64; x64) AppleWebKit/537.36 (KHTML, like Gecko) Chrome/118.0.0.0 Safari/537.36 Edg/118.0.2088.76","WebKit","Edge","118.0.2088.76","Windows","10.0","null","en-US,en;q=0.9","true","1528","tones/440hz_short.mp3","a","","","empty_block","","36","","","","null","null",""
"","","","","","html-keyboard-response","23","580655","0.0-15.0-4.0-1.0","23","1","2023-10-31 20:14:33","a725c3012b74bf33a1020a98cb69c237","181.84.123.3","Mozilla/5.0 (Windows NT 10.0; Win64; x64) AppleWebKit/537.36 (KHTML, like Gecko) Chrome/118.0.0.0 Safari/537.36 Edg/118.0.2088.76","WebKit","Edge","118.0.2088.76","Windows","10.0","null","en-US,en;q=0.9","true","295","tones/440hz_short.mp3","j","","","empty_block","","36","","","","null","null",""
"","","","","","html-keyboard-response","24","583362","0.0-17.0-0.0","23","1","2023-10-31 20:14:33","a725c3012b74bf33a1020a98cb69c237","181.84.123.3","Mozilla/5.0 (Windows NT 10.0; Win64; x64) AppleWebKit/537.36 (KHTML, like Gecko) Chrome/118.0.0.0 Safari/537.36 Edg/118.0.2088.76","WebKit","Edge","118.0.2088.76","Windows","10.0","null","en-US,en;q=0.9","true","null","<div style=""font-size:100px;"">X</div>","null","","","fixation","","","","","","","",""
"","","","","","audio-keyboard-response","25","583563","0.0-17.0-1.0","23","1","2023-10-31 20:14:33","a725c3012b74bf33a1020a98cb69c237","181.84.123.3","Mozilla/5.0 (Windows NT 10.0; Win64; x64) AppleWebKit/537.36 (KHTML, like Gecko) Chrome/118.0.0.0 Safari/537.36 Edg/118.0.2088.76","WebKit","Edge","118.0.2088.76","Windows","10.0","null","en-US,en;q=0.9","true","null","tones/440hz_short.mp3","null","","","tone_number_task","50","21","tones/440hz_short.mp3","200","100","null","null",""
"","","","","","html-keyboard-response","26","583903","0.0-17.0-4.0-0.0","23","1","2023-10-31 20:14:33","a725c3012b74bf33a1020a98cb69c237","181.84.123.3","Mozilla/5.0 (Windows NT 10.0; Win64; x64) AppleWebKit/537.36 (KHTML, like Gecko) Chrome/118.0.0.0 Safari/537.36 Edg/118.0.2088.76","WebKit","Edge","118.0.2088.76","Windows","10.0","null","en-US,en;q=0.9","true","338","tones/440hz_short.mp3","a","","","empty_block","","21","","","","null","null",""
"","","","","","html-keyboard-response","27","584367","0.0-17.0-4.0-1.0","23","1","2023-10-31 20:14:33","a725c3012b74bf33a1020a98cb69c237","181.84.123.3","Mozilla/5.0 (Windows NT 10.0; Win64; x64) AppleWebKit/537.36 (KHTML, like Gecko) Chrome/118.0.0.0 Safari/537.36 Edg/118.0.2088.76","WebKit","Edge","118.0.2088.76","Windows","10.0","null","en-US,en;q=0.9","true","463","tones/440hz_short.mp3","j","","","empty_block","","21","","","","null","null",""
"","","","","","html-button-response","28","594289","0.0-19.0","23","1","2023-10-31 20:14:33","a725c3012b74bf33a1020a98cb69c237","181.84.123.3","Mozilla/5.0 (Windows NT 10.0; Win64; x64) AppleWebKit/537.36 (KHTML, like Gecko) Chrome/118.0.0.0 Safari/537.36 Edg/118.0.2088.76","WebKit","Edge","118.0.2088.76","Windows","10.0","null","en-US,en;q=0.9","true","9921","
  <h1> Muy bien </h1>
  <p> Ahora, en vez de ser presentados en dígitos, los números vendrán escritos en palabras. </p>
  <p> Por ejemplo, en vez de 44 te aparecerá ""cuarenta y cuatro"". </p>
  ","0","","","","","","","","","","",""
"","","","","","html-keyboard-response","29","596996","0.0-20.0-0.0","23","1","2023-10-31 20:14:33","a725c3012b74bf33a1020a98cb69c237","181.84.123.3","Mozilla/5.0 (Windows NT 10.0; Win64; x64) AppleWebKit/537.36 (KHTML, like Gecko) Chrome/118.0.0.0 Safari/537.36 Edg/118.0.2088.76","WebKit","Edge","118.0.2088.76","Windows","10.0","null","en-US,en;q=0.9","true","null","<div style=""font-size:100px;"">X</div>","null","","","fixation","","","","","","","",""
"","","","","","audio-keyboard-response","30","597454","0.0-20.0-1.0","23","1","2023-10-31 20:14:33","a725c3012b74bf33a1020a98cb69c237","181.84.123.3","Mozilla/5.0 (Windows NT 10.0; Win64; x64) AppleWebKit/537.36 (KHTML, like Gecko) Chrome/118.0.0.0 Safari/537.36 Edg/118.0.2088.76","WebKit","Edge","118.0.2088.76","Windows","10.0","null","en-US,en;q=0.9","true","459","tones/440hz_short.mp3","a","","","tone_number_task","1000","cincuenta y ocho","tones/440hz_short.mp3","1150","60","null","null",""
"","","","","","html-keyboard-response","31","598010","0.0-20.0-2.0-0.0","23","1","2023-10-31 20:14:33","a725c3012b74bf33a1020a98cb69c237","181.84.123.3","Mozilla/5.0 (Windows NT 10.0; Win64; x64) AppleWebKit/537.36 (KHTML, like Gecko) Chrome/118.0.0.0 Safari/537.36 Edg/118.0.2088.76","WebKit","Edge","118.0.2088.76","Windows","10.0","null","en-US,en;q=0.9","true","null","","null","","","delay_block","","","","","","null","null",""
"","","","","","html-keyboard-response","32","598163","0.0-20.0-2.0-1.0","23","1","2023-10-31 20:14:33","a725c3012b74bf33a1020a98cb69c237","181.84.123.3","Mozilla/5.0 (Windows NT 10.0; Win64; x64) AppleWebKit/537.36 (KHTML, like Gecko) Chrome/118.0.0.0 Safari/537.36 Edg/118.0.2088.76","WebKit","Edge","118.0.2088.76","Windows","10.0","null","en-US,en;q=0.9","true","null","<p id=""stimulus"" style=""font-size:60px;"">cincuenta y ocho</p>","null","","","tone_number_task_remaining_before_delay","","cincuenta y ocho","","691","60","null","null",""
"","","","","","html-keyboard-response","33","599006","0.0-20.0-5.0-0.0","23","1","2023-10-31 20:14:33","a725c3012b74bf33a1020a98cb69c237","181.84.123.3","Mozilla/5.0 (Windows NT 10.0; Win64; x64) AppleWebKit/537.36 (KHTML, like Gecko) Chrome/118.0.0.0 Safari/537.36 Edg/118.0.2088.76","WebKit","Edge","118.0.2088.76","Windows","10.0","null","en-US,en;q=0.9","true","843","<p id=""stimulus"" style=""font-size:60px;"">cincuenta y ocho</p>","k","","","empty_block","","cincuenta y ocho","","","","null","null",""
"","","","","","html-button-response","34","605915","0.0-22.0","23","1","2023-10-31 20:14:33","a725c3012b74bf33a1020a98cb69c237","181.84.123.3","Mozilla/5.0 (Windows NT 10.0; Win64; x64) AppleWebKit/537.36 (KHTML, like Gecko) Chrome/118.0.0.0 Safari/537.36 Edg/118.0.2088.76","WebKit","Edge","118.0.2088.76","Windows","10.0","null","en-US,en;q=0.9","true","6907","
  <h1> Fin del Entrenamiento </h1>
  <p> ¡Felicitaciones, terminaste el entrenamiento! Ahora vamos a comenzar con el experimento. </p>
  <p> Es importante tener en cuenta que consta de cuatro bloques.</p>
  <p> Podés aprovechar los momentos entre bloques para tomar un breve descanso o tomar agua entre cada uno</p>
  <p> Recordá que tenés que responder lo más rápido que puedas, pero sin equivocarte. </p>
  ","0","","","","","","","","","","",""
"","","","","","external-html","35","617230","0.0-23.0","23","1","2023-10-31 20:14:33","a725c3012b74bf33a1020a98cb69c237","181.84.123.3","Mozilla/5.0 (Windows NT 10.0; Win64; x64) AppleWebKit/537.36 (KHTML, like Gecko) Chrome/118.0.0.0 Safari/537.36 Edg/118.0.2088.76","WebKit","Edge","118.0.2088.76","Windows","10.0","null","en-US,en;q=0.9","true","11046","","","","instructions/instructions_digits_first.html","","","","","","","","",""
"","","","","","call-function","36","617232","0.0-24.0","23","1","2023-10-31 20:14:33","a725c3012b74bf33a1020a98cb69c237","181.84.123.3","Mozilla/5.0 (Windows NT 10.0; Win64; x64) AppleWebKit/537.36 (KHTML, like Gecko) Chrome/118.0.0.0 Safari/537.36 Edg/118.0.2088.76","WebKit","Edge","118.0.2088.76","Windows","10.0","null","en-US,en;q=0.9","true","","","","","","","","","","","","","",""
"","","","","","html-keyboard-response","37","619938","0.0-25.0","23","1","2023-10-31 20:14:33","a725c3012b74bf33a1020a98cb69c237","181.84.123.3","Mozilla/5.0 (Windows NT 10.0; Win64; x64) AppleWebKit/537.36 (KHTML, like Gecko) Chrome/118.0.0.0 Safari/537.36 Edg/118.0.2088.76","WebKit","Edge","118.0.2088.76","Windows","10.0","null","en-US,en;q=0.9","true","null","<div style=""font-size:100px;"">X</div>","null","","","fixation","","","","","","","",""
"","","","","","audio-keyboard-response","38","620439","0.0-26.0","23","1","2023-10-31 20:14:33","a725c3012b74bf33a1020a98cb69c237","181.84.123.3","Mozilla/5.0 (Windows NT 10.0; Win64; x64) AppleWebKit/537.36 (KHTML, like Gecko) Chrome/118.0.0.0 Safari/537.36 Edg/118.0.2088.76","WebKit","Edge","118.0.2088.76","Windows","10.0","null","en-US,en;q=0.9","true","501","tones/880hz_short.mp3","s","","","tone_number_task","1025","28","tones/880hz_short.mp3","1175","100","0","0",""
"","","","","","html-keyboard-response","39","620964","0.0-27.0-0.0","23","1","2023-10-31 20:14:33","a725c3012b74bf33a1020a98cb69c237","181.84.123.3","Mozilla/5.0 (Windows NT 10.0; Win64; x64) AppleWebKit/537.36 (KHTML, like Gecko) Chrome/118.0.0.0 Safari/537.36 Edg/118.0.2088.76","WebKit","Edge","118.0.2088.76","Windows","10.0","null","en-US,en;q=0.9","true","null","","null","","","delay_block","","","","","","0","0",""
"","","","","","html-keyboard-response","40","621116","0.0-27.0-1.0","23","1","2023-10-31 20:14:33","a725c3012b74bf33a1020a98cb69c237","181.84.123.3","Mozilla/5.0 (Windows NT 10.0; Win64; x64) AppleWebKit/537.36 (KHTML, like Gecko) Chrome/118.0.0.0 Safari/537.36 Edg/118.0.2088.76","WebKit","Edge","118.0.2088.76","Windows","10.0","null","en-US,en;q=0.9","true","null","<p id=""stimulus"" style=""font-size:100px;"">28</p>","null","","","tone_number_task_remaining_before_delay","","28","","674","100","0","0",""
"","","","","","html-keyboard-response","41","621607","0.0-30.0-0.0","23","1","2023-10-31 20:14:33","a725c3012b74bf33a1020a98cb69c237","181.84.123.3","Mozilla/5.0 (Windows NT 10.0; Win64; x64) AppleWebKit/537.36 (KHTML, like Gecko) Chrome/118.0.0.0 Safari/537.36 Edg/118.0.2088.76","WebKit","Edge","118.0.2088.76","Windows","10.0","null","en-US,en;q=0.9","true","489","<p id=""stimulus"" style=""font-size:100px;"">28</p>","j","","","empty_block","","28","","","","0","0",""
"","","","","","html-keyboard-response","42","624314","0.0-31.0","23","1","2023-10-31 20:14:33","a725c3012b74bf33a1020a98cb69c237","181.84.123.3","Mozilla/5.0 (Windows NT 10.0; Win64; x64) AppleWebKit/537.36 (KHTML, like Gecko) Chrome/118.0.0.0 Safari/537.36 Edg/118.0.2088.76","WebKit","Edge","118.0.2088.76","Windows","10.0","null","en-US,en;q=0.9","true","null","<div style=""font-size:100px;"">X</div>","null","","","fixation","","","","","","","",""
"","","","","","audio-keyboard-response","43","624895","0.0-32.0","23","1","2023-10-31 20:14:33","a725c3012b74bf33a1020a98cb69c237","181.84.123.3","Mozilla/5.0 (Windows NT 10.0; Win64; x64) AppleWebKit/537.36 (KHTML, like Gecko) Chrome/118.0.0.0 Safari/537.36 Edg/118.0.2088.76","WebKit","Edge","118.0.2088.76","Windows","10.0","null","en-US,en;q=0.9","true","581","tones/440hz_short.mp3","a","","","tone_number_task","992.5","62","tones/440hz_short.mp3","1142.5","100","0","1",""
"","","","","","html-keyboard-response","44","625307","0.0-33.0-0.0","23","1","2023-10-31 20:14:33","a725c3012b74bf33a1020a98cb69c237","181.84.123.3","Mozilla/5.0 (Windows NT 10.0; Win64; x64) AppleWebKit/537.36 (KHTML, like Gecko) Chrome/118.0.0.0 Safari/537.36 Edg/118.0.2088.76","WebKit","Edge","118.0.2088.76","Windows","10.0","null","en-US,en;q=0.9","true","null","","null","","","delay_block","","","","","","0","1",""
"","","","","","html-keyboard-response","45","625459","0.0-33.0-1.0","23","1","2023-10-31 20:14:33","a725c3012b74bf33a1020a98cb69c237","181.84.123.3","Mozilla/5.0 (Windows NT 10.0; Win64; x64) AppleWebKit/537.36 (KHTML, like Gecko) Chrome/118.0.0.0 Safari/537.36 Edg/118.0.2088.76","WebKit","Edge","118.0.2088.76","Windows","10.0","null","en-US,en;q=0.9","true","null","<p id=""stimulus"" style=""font-size:100px;"">62</p>","null","","","tone_number_task_remaining_before_delay","","62","","561.5","100","0","1",""
"","","","","","html-keyboard-response","46","625783","0.0-36.0-0.0","23","1","2023-10-31 20:14:33","a725c3012b74bf33a1020a98cb69c237","181.84.123.3","Mozilla/5.0 (Windows NT 10.0; Win64; x64) AppleWebKit/537.36 (KHTML, like Gecko) Chrome/118.0.0.0 Safari/537.36 Edg/118.0.2088.76","WebKit","Edge","118.0.2088.76","Windows","10.0","null","en-US,en;q=0.9","true","323","<p id=""stimulus"" style=""font-size:100px;"">62</p>","k","","","empty_block","","62","","","","0","1",""
"","","","","","html-keyboard-response","47","628489","0.0-37.0","23","1","2023-10-31 20:14:33","a725c3012b74bf33a1020a98cb69c237","181.84.123.3","Mozilla/5.0 (Windows NT 10.0; Win64; x64) AppleWebKit/537.36 (KHTML, like Gecko) Chrome/118.0.0.0 Safari/537.36 Edg/118.0.2088.76","WebKit","Edge","118.0.2088.76","Windows","10.0","null","en-US,en;q=0.9","true","null","<div style=""font-size:100px;"">X</div>","null","","","fixation","","","","","","","",""
"","","","","","audio-keyboard-response","48","629223","0.0-38.0","23","1","2023-10-31 20:14:33","a725c3012b74bf33a1020a98cb69c237","181.84.123.3","Mozilla/5.0 (Windows NT 10.0; Win64; x64) AppleWebKit/537.36 (KHTML, like Gecko) Chrome/118.0.0.0 Safari/537.36 Edg/118.0.2088.76","WebKit","Edge","118.0.2088.76","Windows","10.0","null","en-US,en;q=0.9","true","728","tones/440hz_short.mp3","a","","","tone_number_task","1025","24","tones/440hz_short.mp3","1175","100","0","2",""
"","","","","","html-keyboard-response","49","629521","0.0-39.0-0.0","23","1","2023-10-31 20:14:33","a725c3012b74bf33a1020a98cb69c237","181.84.123.3","Mozilla/5.0 (Windows NT 10.0; Win64; x64) AppleWebKit/537.36 (KHTML, like Gecko) Chrome/118.0.0.0 Safari/537.36 Edg/118.0.2088.76","WebKit","Edge","118.0.2088.76","Windows","10.0","null","en-US,en;q=0.9","true","null","","null","","","delay_block","","","","","","0","2",""
"","","","","","html-keyboard-response","50","629674","0.0-39.0-1.0","23","1","2023-10-31 20:14:33","a725c3012b74bf33a1020a98cb69c237","181.84.123.3","Mozilla/5.0 (Windows NT 10.0; Win64; x64) AppleWebKit/537.36 (KHTML, like Gecko) Chrome/118.0.0.0 Safari/537.36 Edg/118.0.2088.76","WebKit","Edge","118.0.2088.76","Windows","10.0","null","en-US,en;q=0.9","true","null","<p id=""stimulus"" style=""font-size:100px;"">24</p>","null","","","tone_number_task_remaining_before_delay","","24","","447","100","0","2",""
"","","","","","html-keyboard-response","51","630111","0.0-42.0-0.0","23","1","2023-10-31 20:14:33","a725c3012b74bf33a1020a98cb69c237","181.84.123.3","Mozilla/5.0 (Windows NT 10.0; Win64; x64) AppleWebKit/537.36 (KHTML, like Gecko) Chrome/118.0.0.0 Safari/537.36 Edg/118.0.2088.76","WebKit","Edge","118.0.2088.76","Windows","10.0","null","en-US,en;q=0.9","true","436","<p id=""stimulus"" style=""font-size:100px;"">24</p>","j","","","empty_block","","24","","","","0","2",""
"","","","","","html-keyboard-response","52","632818","0.0-43.0","23","1","2023-10-31 20:14:33","a725c3012b74bf33a1020a98cb69c237","181.84.123.3","Mozilla/5.0 (Windows NT 10.0; Win64; x64) AppleWebKit/537.36 (KHTML, like Gecko) Chrome/118.0.0.0 Safari/537.36 Edg/118.0.2088.76","WebKit","Edge","118.0.2088.76","Windows","10.0","null","en-US,en;q=0.9","true","null","<div style=""font-size:100px;"">X</div>","null","","","fixation","","","","","","","",""
"","","","","","audio-keyboard-response","53","633072","0.0-44.0","23","1","2023-10-31 20:14:33","a725c3012b74bf33a1020a98cb69c237","181.84.123.3","Mozilla/5.0 (Windows NT 10.0; Win64; x64) AppleWebKit/537.36 (KHTML, like Gecko) Chrome/118.0.0.0 Safari/537.36 Edg/118.0.2088.76","WebKit","Edge","118.0.2088.76","Windows","10.0","null","en-US,en;q=0.9","true","null","tones/880hz_short.mp3","null","","","tone_number_task","102.5","54","tones/880hz_short.mp3","252.5","100","0","3",""
"","","","","","html-keyboard-response","54","633374","0.0-47.0-0.0","23","1","2023-10-31 20:14:33","a725c3012b74bf33a1020a98cb69c237","181.84.123.3","Mozilla/5.0 (Windows NT 10.0; Win64; x64) AppleWebKit/537.36 (KHTML, like Gecko) Chrome/118.0.0.0 Safari/537.36 Edg/118.0.2088.76","WebKit","Edge","118.0.2088.76","Windows","10.0","null","en-US,en;q=0.9","true","301","tones/880hz_short.mp3","s","","","empty_block","","54","","","","0","3",""
"","","","","","html-keyboard-response","55","633840","0.0-47.0-1.0","23","1","2023-10-31 20:14:33","a725c3012b74bf33a1020a98cb69c237","181.84.123.3","Mozilla/5.0 (Windows NT 10.0; Win64; x64) AppleWebKit/537.36 (KHTML, like Gecko) Chrome/118.0.0.0 Safari/537.36 Edg/118.0.2088.76","WebKit","Edge","118.0.2088.76","Windows","10.0","null","en-US,en;q=0.9","true","464","tones/880hz_short.mp3","k","","","empty_block","","54","","","","0","3",""
"","","","","","html-keyboard-response","56","636547","0.0-49.0","23","1","2023-10-31 20:14:33","a725c3012b74bf33a1020a98cb69c237","181.84.123.3","Mozilla/5.0 (Windows NT 10.0; Win64; x64) AppleWebKit/537.36 (KHTML, like Gecko) Chrome/118.0.0.0 Safari/537.36 Edg/118.0.2088.76","WebKit","Edge","118.0.2088.76","Windows","10.0","null","en-US,en;q=0.9","true","null","<div style=""font-size:100px;"">X</div>","null","","","fixation","","","","","","","",""
"","","","","","audio-keyboard-response","57","637063","0.0-50.0","23","1","2023-10-31 20:14:33","a725c3012b74bf33a1020a98cb69c237","181.84.123.3","Mozilla/5.0 (Windows NT 10.0; Win64; x64) AppleWebKit/537.36 (KHTML, like Gecko) Chrome/118.0.0.0 Safari/537.36 Edg/118.0.2088.76","WebKit","Edge","118.0.2088.76","Windows","10.0","null","en-US,en;q=0.9","true","509","tones/440hz_short.mp3","a","","","tone_number_task","992.5","57","tones/440hz_short.mp3","1142.5","100","0","4",""
"","","","","","html-keyboard-response","58","637548","0.0-51.0-0.0","23","1","2023-10-31 20:14:33","a725c3012b74bf33a1020a98cb69c237","181.84.123.3","Mozilla/5.0 (Windows NT 10.0; Win64; x64) AppleWebKit/537.36 (KHTML, like Gecko) Chrome/118.0.0.0 Safari/537.36 Edg/118.0.2088.76","WebKit","Edge","118.0.2088.76","Windows","10.0","null","en-US,en;q=0.9","true","null","","null","","","delay_block","","","","","","0","4",""
"","","","","","html-keyboard-response","59","637699","0.0-51.0-1.0","23","1","2023-10-31 20:14:33","a725c3012b74bf33a1020a98cb69c237","181.84.123.3","Mozilla/5.0 (Windows NT 10.0; Win64; x64) AppleWebKit/537.36 (KHTML, like Gecko) Chrome/118.0.0.0 Safari/537.36 Edg/118.0.2088.76","WebKit","Edge","118.0.2088.76","Windows","10.0","null","en-US,en;q=0.9","true","null","<p id=""stimulus"" style=""font-size:100px;"">57</p>","null","","","tone_number_task_remaining_before_delay","","57","","633.5","100","0","4",""
"","","","","","html-keyboard-response","60","638391","0.0-54.0-0.0","23","1","2023-10-31 20:14:33","a725c3012b74bf33a1020a98cb69c237","181.84.123.3","Mozilla/5.0 (Windows NT 10.0; Win64; x64) AppleWebKit/537.36 (KHTML, like Gecko) Chrome/118.0.0.0 Safari/537.36 Edg/118.0.2088.76","WebKit","Edge","118.0.2088.76","Windows","10.0","null","en-US,en;q=0.9","true","690","<p id=""stimulus"" style=""font-size:100px;"">57</p>","k","","","empty_block","","57","","","","0","4",""
"","","","","","html-keyboard-response","61","641098","0.0-55.0","23","1","2023-10-31 20:14:33","a725c3012b74bf33a1020a98cb69c237","181.84.123.3","Mozilla/5.0 (Windows NT 10.0; Win64; x64) AppleWebKit/537.36 (KHTML, like Gecko) Chrome/118.0.0.0 Safari/537.36 Edg/118.0.2088.76","WebKit","Edge","118.0.2088.76","Windows","10.0","null","en-US,en;q=0.9","true","null","<div style=""font-size:100px;"">X</div>","null","","","fixation","","","","","","","",""
"","","","","","audio-keyboard-response","62","642275","0.0-56.0","23","1","2023-10-31 20:14:33","a725c3012b74bf33a1020a98cb69c237","181.84.123.3","Mozilla/5.0 (Windows NT 10.0; Win64; x64) AppleWebKit/537.36 (KHTML, like Gecko) Chrome/118.0.0.0 Safari/537.36 Edg/118.0.2088.76","WebKit","Edge","118.0.2088.76","Windows","10.0","null","en-US,en;q=0.9","true","null","tones/880hz_short.mp3","null","","","tone_number_task","1025","43","tones/880hz_short.mp3","1175","100","0","5",""
"","","","","","html-keyboard-response","63","642279","0.0-59.0-0.0","23","1","2023-10-31 20:14:33","a725c3012b74bf33a1020a98cb69c237","181.84.123.3","Mozilla/5.0 (Windows NT 10.0; Win64; x64) AppleWebKit/537.36 (KHTML, like Gecko) Chrome/118.0.0.0 Safari/537.36 Edg/118.0.2088.76","WebKit","Edge","118.0.2088.76","Windows","10.0","null","en-US,en;q=0.9","true","2","tones/880hz_short.mp3","s","","","empty_block","","43","","","","0","5",""
"","","","","","html-keyboard-response","64","643047","0.0-59.0-1.0","23","1","2023-10-31 20:14:33","a725c3012b74bf33a1020a98cb69c237","181.84.123.3","Mozilla/5.0 (Windows NT 10.0; Win64; x64) AppleWebKit/537.36 (KHTML, like Gecko) Chrome/118.0.0.0 Safari/537.36 Edg/118.0.2088.76","WebKit","Edge","118.0.2088.76","Windows","10.0","null","en-US,en;q=0.9","true","766","tones/880hz_short.mp3","j","","","empty_block","","43","","","","0","5",""
"","","","","","html-keyboard-response","65","645754","0.0-61.0","23","1","2023-10-31 20:14:33","a725c3012b74bf33a1020a98cb69c237","181.84.123.3","Mozilla/5.0 (Windows NT 10.0; Win64; x64) AppleWebKit/537.36 (KHTML, like Gecko) Chrome/118.0.0.0 Safari/537.36 Edg/118.0.2088.76","WebKit","Edge","118.0.2088.76","Windows","10.0","null","en-US,en;q=0.9","true","null","<div style=""font-size:100px;"">X</div>","null","","","fixation","","","","","","","",""
"","","","","","audio-keyboard-response","66","646182","0.0-62.0","23","1","2023-10-31 20:14:33","a725c3012b74bf33a1020a98cb69c237","181.84.123.3","Mozilla/5.0 (Windows NT 10.0; Win64; x64) AppleWebKit/537.36 (KHTML, like Gecko) Chrome/118.0.0.0 Safari/537.36 Edg/118.0.2088.76","WebKit","Edge","118.0.2088.76","Windows","10.0","null","en-US,en;q=0.9","true","429","tones/440hz_short.mp3","a","","","tone_number_task","992.5","31","tones/440hz_short.mp3","1142.5","100","0","6",""
"","","","","","html-keyboard-response","67","646747","0.0-63.0-0.0","23","1","2023-10-31 20:14:33","a725c3012b74bf33a1020a98cb69c237","181.84.123.3","Mozilla/5.0 (Windows NT 10.0; Win64; x64) AppleWebKit/537.36 (KHTML, like Gecko) Chrome/118.0.0.0 Safari/537.36 Edg/118.0.2088.76","WebKit","Edge","118.0.2088.76","Windows","10.0","null","en-US,en;q=0.9","true","null","","null","","","delay_block","","","","","","0","6",""
"","","","","","html-keyboard-response","68","646899","0.0-63.0-1.0","23","1","2023-10-31 20:14:33","a725c3012b74bf33a1020a98cb69c237","181.84.123.3","Mozilla/5.0 (Windows NT 10.0; Win64; x64) AppleWebKit/537.36 (KHTML, like Gecko) Chrome/118.0.0.0 Safari/537.36 Edg/118.0.2088.76","WebKit","Edge","118.0.2088.76","Windows","10.0","null","en-US,en;q=0.9","true","null","<p id=""stimulus"" style=""font-size:100px;"">31</p>","null","","","tone_number_task_remaining_before_delay","","31","","713.5","100","0","6",""
"","","","","","html-keyboard-response","69","647399","0.0-66.0-0.0","23","1","2023-10-31 20:14:33","a725c3012b74bf33a1020a98cb69c237","181.84.123.3","Mozilla/5.0 (Windows NT 10.0; Win64; x64) AppleWebKit/537.36 (KHTML, like Gecko) Chrome/118.0.0.0 Safari/537.36 Edg/118.0.2088.76","WebKit","Edge","118.0.2088.76","Windows","10.0","null","en-US,en;q=0.9","true","499","<p id=""stimulus"" style=""font-size:100px;"">31</p>","j","","","empty_block","","31","","","","0","6",""
"","","","","","html-keyboard-response","70","650106","0.0-67.0","23","1","2023-10-31 20:14:33","a725c3012b74bf33a1020a98cb69c237","181.84.123.3","Mozilla/5.0 (Windows NT 10.0; Win64; x64) AppleWebKit/537.36 (KHTML, like Gecko) Chrome/118.0.0.0 Safari/537.36 Edg/118.0.2088.76","WebKit","Edge","118.0.2088.76","Windows","10.0","null","en-US,en;q=0.9","true","null","<div style=""font-size:100px;"">X</div>","null","","","fixation","","","","","","","",""
"","","","","","audio-keyboard-response","71","650258","0.0-68.0","23","1","2023-10-31 20:14:33","a725c3012b74bf33a1020a98cb69c237","181.84.123.3","Mozilla/5.0 (Windows NT 10.0; Win64; x64) AppleWebKit/537.36 (KHTML, like Gecko) Chrome/118.0.0.0 Safari/537.36 Edg/118.0.2088.76","WebKit","Edge","118.0.2088.76","Windows","10.0","null","en-US,en;q=0.9","true","null","tones/440hz_short.mp3","null","","","tone_number_task","0","34","tones/440hz_short.mp3","150","100","0","7",""
"","","","","","html-keyboard-response","72","650598","0.0-71.0-0.0","23","1","2023-10-31 20:14:33","a725c3012b74bf33a1020a98cb69c237","181.84.123.3","Mozilla/5.0 (Windows NT 10.0; Win64; x64) AppleWebKit/537.36 (KHTML, like Gecko) Chrome/118.0.0.0 Safari/537.36 Edg/118.0.2088.76","WebKit","Edge","118.0.2088.76","Windows","10.0","null","en-US,en;q=0.9","true","338","tones/440hz_short.mp3","a","","","empty_block","","34","","","","0","7",""
"","","","","","html-keyboard-response","73","651185","0.0-71.0-1.0","23","1","2023-10-31 20:14:33","a725c3012b74bf33a1020a98cb69c237","181.84.123.3","Mozilla/5.0 (Windows NT 10.0; Win64; x64) AppleWebKit/537.36 (KHTML, like Gecko) Chrome/118.0.0.0 Safari/537.36 Edg/118.0.2088.76","WebKit","Edge","118.0.2088.76","Windows","10.0","null","en-US,en;q=0.9","true","585","tones/440hz_short.mp3","j","","","empty_block","","34","","","","0","7",""
"","","","","","html-keyboard-response","74","653894","0.0-73.0","23","1","2023-10-31 20:14:33","a725c3012b74bf33a1020a98cb69c237","181.84.123.3","Mozilla/5.0 (Windows NT 10.0; Win64; x64) AppleWebKit/537.36 (KHTML, like Gecko) Chrome/118.0.0.0 Safari/537.36 Edg/118.0.2088.76","WebKit","Edge","118.0.2088.76","Windows","10.0","null","en-US,en;q=0.9","true","null","<div style=""font-size:100px;"">X</div>","null","","","fixation","","","","","","","",""
"","","","","","audio-keyboard-response","75","654463","0.0-74.0","23","1","2023-10-31 20:14:33","a725c3012b74bf33a1020a98cb69c237","181.84.123.3","Mozilla/5.0 (Windows NT 10.0; Win64; x64) AppleWebKit/537.36 (KHTML, like Gecko) Chrome/118.0.0.0 Safari/537.36 Edg/118.0.2088.76","WebKit","Edge","118.0.2088.76","Windows","10.0","null","en-US,en;q=0.9","true","560","tones/440hz_short.mp3","a","","","tone_number_task","992.5","58","tones/440hz_short.mp3","1142.5","100","0","8",""
"","","","","","html-keyboard-response","76","654897","0.0-75.0-0.0","23","1","2023-10-31 20:14:33","a725c3012b74bf33a1020a98cb69c237","181.84.123.3","Mozilla/5.0 (Windows NT 10.0; Win64; x64) AppleWebKit/537.36 (KHTML, like Gecko) Chrome/118.0.0.0 Safari/537.36 Edg/118.0.2088.76","WebKit","Edge","118.0.2088.76","Windows","10.0","null","en-US,en;q=0.9","true","null","","null","","","delay_block","","","","","","0","8",""
"","","","","","html-keyboard-response","77","655050","0.0-75.0-1.0","23","1","2023-10-31 20:14:33","a725c3012b74bf33a1020a98cb69c237","181.84.123.3","Mozilla/5.0 (Windows NT 10.0; Win64; x64) AppleWebKit/537.36 (KHTML, like Gecko) Chrome/118.0.0.0 Safari/537.36 Edg/118.0.2088.76","WebKit","Edge","118.0.2088.76","Windows","10.0","null","en-US,en;q=0.9","true","null","<p id=""stimulus"" style=""font-size:100px;"">58</p>","null","","","tone_number_task_remaining_before_delay","","58","","582.5","100","0","8",""
"","","","","","html-keyboard-response","78","655271","0.0-78.0-0.0","23","1","2023-10-31 20:14:33","a725c3012b74bf33a1020a98cb69c237","181.84.123.3","Mozilla/5.0 (Windows NT 10.0; Win64; x64) AppleWebKit/537.36 (KHTML, like Gecko) Chrome/118.0.0.0 Safari/537.36 Edg/118.0.2088.76","WebKit","Edge","118.0.2088.76","Windows","10.0","null","en-US,en;q=0.9","true","220","<p id=""stimulus"" style=""font-size:100px;"">58</p>","k","","","empty_block","","58","","","","0","8",""
"","","","","","html-keyboard-response","79","657978","0.0-79.0","23","1","2023-10-31 20:14:33","a725c3012b74bf33a1020a98cb69c237","181.84.123.3","Mozilla/5.0 (Windows NT 10.0; Win64; x64) AppleWebKit/537.36 (KHTML, like Gecko) Chrome/118.0.0.0 Safari/537.36 Edg/118.0.2088.76","WebKit","Edge","118.0.2088.76","Windows","10.0","null","en-US,en;q=0.9","true","null","<div style=""font-size:100px;"">X</div>","null","","","fixation","","","","","","","",""
"","","","","","audio-keyboard-response","80","658233","0.0-80.0","23","1","2023-10-31 20:14:33","a725c3012b74bf33a1020a98cb69c237","181.84.123.3","Mozilla/5.0 (Windows NT 10.0; Win64; x64) AppleWebKit/537.36 (KHTML, like Gecko) Chrome/118.0.0.0 Safari/537.36 Edg/118.0.2088.76","WebKit","Edge","118.0.2088.76","Windows","10.0","null","en-US,en;q=0.9","true","null","tones/440hz_short.mp3","null","","","tone_number_task","102.5","64","tones/440hz_short.mp3","252.5","100","0","9",""
"","","","","","html-keyboard-response","81","658839","0.0-83.0-0.0","23","1","2023-10-31 20:14:33","a725c3012b74bf33a1020a98cb69c237","181.84.123.3","Mozilla/5.0 (Windows NT 10.0; Win64; x64) AppleWebKit/537.36 (KHTML, like Gecko) Chrome/118.0.0.0 Safari/537.36 Edg/118.0.2088.76","WebKit","Edge","118.0.2088.76","Windows","10.0","null","en-US,en;q=0.9","true","601","tones/440hz_short.mp3","s","","","empty_block","","64","","","","0","9",""
"","","","","","html-keyboard-response","82","659887","0.0-83.0-1.0","23","1","2023-10-31 20:14:33","a725c3012b74bf33a1020a98cb69c237","181.84.123.3","Mozilla/5.0 (Windows NT 10.0; Win64; x64) AppleWebKit/537.36 (KHTML, like Gecko) Chrome/118.0.0.0 Safari/537.36 Edg/118.0.2088.76","WebKit","Edge","118.0.2088.76","Windows","10.0","null","en-US,en;q=0.9","true","1046","tones/440hz_short.mp3","k","","","empty_block","","64","","","","0","9",""
"","","","","","html-keyboard-response","83","662594","0.0-85.0","23","1","2023-10-31 20:14:33","a725c3012b74bf33a1020a98cb69c237","181.84.123.3","Mozilla/5.0 (Windows NT 10.0; Win64; x64) AppleWebKit/537.36 (KHTML, like Gecko) Chrome/118.0.0.0 Safari/537.36 Edg/118.0.2088.76","WebKit","Edge","118.0.2088.76","Windows","10.0","null","en-US,en;q=0.9","true","null","<div style=""font-size:100px;"">X</div>","null","","","fixation","","","","","","","",""
"","","","","","audio-keyboard-response","84","662747","0.0-86.0","23","1","2023-10-31 20:14:33","a725c3012b74bf33a1020a98cb69c237","181.84.123.3","Mozilla/5.0 (Windows NT 10.0; Win64; x64) AppleWebKit/537.36 (KHTML, like Gecko) Chrome/118.0.0.0 Safari/537.36 Edg/118.0.2088.76","WebKit","Edge","118.0.2088.76","Windows","10.0","null","en-US,en;q=0.9","true","null","tones/880hz_short.mp3","null","","","tone_number_task","0","63","tones/880hz_short.mp3","150","100","0","10",""
"","","","","","html-keyboard-response","85","663511","0.0-89.0-0.0","23","1","2023-10-31 20:14:33","a725c3012b74bf33a1020a98cb69c237","181.84.123.3","Mozilla/5.0 (Windows NT 10.0; Win64; x64) AppleWebKit/537.36 (KHTML, like Gecko) Chrome/118.0.0.0 Safari/537.36 Edg/118.0.2088.76","WebKit","Edge","118.0.2088.76","Windows","10.0","null","en-US,en;q=0.9","true","762","tones/880hz_short.mp3","s","","","empty_block","","63","","","","0","10",""
"","","","","","html-keyboard-response","86","663815","0.0-89.0-1.0","23","1","2023-10-31 20:14:33","a725c3012b74bf33a1020a98cb69c237","181.84.123.3","Mozilla/5.0 (Windows NT 10.0; Win64; x64) AppleWebKit/537.36 (KHTML, like Gecko) Chrome/118.0.0.0 Safari/537.36 Edg/118.0.2088.76","WebKit","Edge","118.0.2088.76","Windows","10.0","null","en-US,en;q=0.9","true","302","tones/880hz_short.mp3","k","","","empty_block","","63","","","","0","10",""
"","","","","","html-keyboard-response","87","666522","0.0-91.0","23","1","2023-10-31 20:14:33","a725c3012b74bf33a1020a98cb69c237","181.84.123.3","Mozilla/5.0 (Windows NT 10.0; Win64; x64) AppleWebKit/537.36 (KHTML, like Gecko) Chrome/118.0.0.0 Safari/537.36 Edg/118.0.2088.76","WebKit","Edge","118.0.2088.76","Windows","10.0","null","en-US,en;q=0.9","true","null","<div style=""font-size:100px;"">X</div>","null","","","fixation","","","","","","","",""
"","","","","","audio-keyboard-response","88","667175","0.0-92.0","23","1","2023-10-31 20:14:33","a725c3012b74bf33a1020a98cb69c237","181.84.123.3","Mozilla/5.0 (Windows NT 10.0; Win64; x64) AppleWebKit/537.36 (KHTML, like Gecko) Chrome/118.0.0.0 Safari/537.36 Edg/118.0.2088.76","WebKit","Edge","118.0.2088.76","Windows","10.0","null","en-US,en;q=0.9","true","659","tones/440hz_short.mp3","a","","","tone_number_task","992.5","23","tones/440hz_short.mp3","1142.5","100","0","11",""
"","","","","","html-keyboard-response","89","667511","0.0-93.0-0.0","23","1","2023-10-31 20:14:33","a725c3012b74bf33a1020a98cb69c237","181.84.123.3","Mozilla/5.0 (Windows NT 10.0; Win64; x64) AppleWebKit/537.36 (KHTML, like Gecko) Chrome/118.0.0.0 Safari/537.36 Edg/118.0.2088.76","WebKit","Edge","118.0.2088.76","Windows","10.0","null","en-US,en;q=0.9","true","null","","null","","","delay_block","","","","","","0","11",""
"","","","","","html-keyboard-response","90","667667","0.0-93.0-1.0","23","1","2023-10-31 20:14:33","a725c3012b74bf33a1020a98cb69c237","181.84.123.3","Mozilla/5.0 (Windows NT 10.0; Win64; x64) AppleWebKit/537.36 (KHTML, like Gecko) Chrome/118.0.0.0 Safari/537.36 Edg/118.0.2088.76","WebKit","Edge","118.0.2088.76","Windows","10.0","null","en-US,en;q=0.9","true","null","<p id=""stimulus"" style=""font-size:100px;"">23</p>","null","","","tone_number_task_remaining_before_delay","","23","","483.5","100","0","11",""
"","","","","","html-keyboard-response","91","668127","0.0-96.0-0.0","23","1","2023-10-31 20:14:33","a725c3012b74bf33a1020a98cb69c237","181.84.123.3","Mozilla/5.0 (Windows NT 10.0; Win64; x64) AppleWebKit/537.36 (KHTML, like Gecko) Chrome/118.0.0.0 Safari/537.36 Edg/118.0.2088.76","WebKit","Edge","118.0.2088.76","Windows","10.0","null","en-US,en;q=0.9","true","458","<p id=""stimulus"" style=""font-size:100px;"">23</p>","j","","","empty_block","","23","","","","0","11",""
"","","","","","html-keyboard-response","92","670834","0.0-97.0","23","1","2023-10-31 20:14:33","a725c3012b74bf33a1020a98cb69c237","181.84.123.3","Mozilla/5.0 (Windows NT 10.0; Win64; x64) AppleWebKit/537.36 (KHTML, like Gecko) Chrome/118.0.0.0 Safari/537.36 Edg/118.0.2088.76","WebKit","Edge","118.0.2088.76","Windows","10.0","null","en-US,en;q=0.9","true","null","<div style=""font-size:100px;"">X</div>","null","","","fixation","","","","","","","",""
"","","","","","audio-keyboard-response","93","670987","0.0-98.0","23","1","2023-10-31 20:14:33","a725c3012b74bf33a1020a98cb69c237","181.84.123.3","Mozilla/5.0 (Windows NT 10.0; Win64; x64) AppleWebKit/537.36 (KHTML, like Gecko) Chrome/118.0.0.0 Safari/537.36 Edg/118.0.2088.76","WebKit","Edge","118.0.2088.76","Windows","10.0","null","en-US,en;q=0.9","true","null","tones/880hz_short.mp3","null","","","tone_number_task","0","56","tones/880hz_short.mp3","150","100","0","12",""
"","","","","","html-keyboard-response","94","671471","0.0-101.0-0.0","23","1","2023-10-31 20:14:33","a725c3012b74bf33a1020a98cb69c237","181.84.123.3","Mozilla/5.0 (Windows NT 10.0; Win64; x64) AppleWebKit/537.36 (KHTML, like Gecko) Chrome/118.0.0.0 Safari/537.36 Edg/118.0.2088.76","WebKit","Edge","118.0.2088.76","Windows","10.0","null","en-US,en;q=0.9","true","482","tones/880hz_short.mp3","s","","","empty_block","","56","","","","0","12",""
"","","","","","html-keyboard-response","95","672015","0.0-101.0-1.0","23","1","2023-10-31 20:14:33","a725c3012b74bf33a1020a98cb69c237","181.84.123.3","Mozilla/5.0 (Windows NT 10.0; Win64; x64) AppleWebKit/537.36 (KHTML, like Gecko) Chrome/118.0.0.0 Safari/537.36 Edg/118.0.2088.76","WebKit","Edge","118.0.2088.76","Windows","10.0","null","en-US,en;q=0.9","true","543","tones/880hz_short.mp3","k","","","empty_block","","56","","","","0","12",""
"","","","","","html-keyboard-response","96","674722","0.0-103.0","23","1","2023-10-31 20:14:33","a725c3012b74bf33a1020a98cb69c237","181.84.123.3","Mozilla/5.0 (Windows NT 10.0; Win64; x64) AppleWebKit/537.36 (KHTML, like Gecko) Chrome/118.0.0.0 Safari/537.36 Edg/118.0.2088.76","WebKit","Edge","118.0.2088.76","Windows","10.0","null","en-US,en;q=0.9","true","null","<div style=""font-size:100px;"">X</div>","null","","","fixation","","","","","","","",""
"","","","","","audio-keyboard-response","97","674977","0.0-104.0","23","1","2023-10-31 20:14:33","a725c3012b74bf33a1020a98cb69c237","181.84.123.3","Mozilla/5.0 (Windows NT 10.0; Win64; x64) AppleWebKit/537.36 (KHTML, like Gecko) Chrome/118.0.0.0 Safari/537.36 Edg/118.0.2088.76","WebKit","Edge","118.0.2088.76","Windows","10.0","null","en-US,en;q=0.9","true","null","tones/440hz_short.mp3","null","","","tone_number_task","102.5","61","tones/440hz_short.mp3","252.5","100","0","13",""
"","","","","","html-keyboard-response","98","675519","0.0-107.0-0.0","23","1","2023-10-31 20:14:33","a725c3012b74bf33a1020a98cb69c237","181.84.123.3","Mozilla/5.0 (Windows NT 10.0; Win64; x64) AppleWebKit/537.36 (KHTML, like Gecko) Chrome/118.0.0.0 Safari/537.36 Edg/118.0.2088.76","WebKit","Edge","118.0.2088.76","Windows","10.0","null","en-US,en;q=0.9","true","540","tones/440hz_short.mp3","a","","","empty_block","","61","","","","0","13",""
"","","","","","html-keyboard-response","99","675919","0.0-107.0-1.0","23","1","2023-10-31 20:14:33","a725c3012b74bf33a1020a98cb69c237","181.84.123.3","Mozilla/5.0 (Windows NT 10.0; Win64; x64) AppleWebKit/537.36 (KHTML, like Gecko) Chrome/118.0.0.0 Safari/537.36 Edg/118.0.2088.76","WebKit","Edge","118.0.2088.76","Windows","10.0","null","en-US,en;q=0.9","true","398","tones/440hz_short.mp3","k","","","empty_block","","61","","","","0","13",""
"","","","","","html-keyboard-response","100","678626","0.0-109.0","23","1","2023-10-31 20:14:33","a725c3012b74bf33a1020a98cb69c237","181.84.123.3","Mozilla/5.0 (Windows NT 10.0; Win64; x64) AppleWebKit/537.36 (KHTML, like Gecko) Chrome/118.0.0.0 Safari/537.36 Edg/118.0.2088.76","WebKit","Edge","118.0.2088.76","Windows","10.0","null","en-US,en;q=0.9","true","null","<div style=""font-size:100px;"">X</div>","null","","","fixation","","","","","","","",""
"","","","","","audio-keyboard-response","101","679344","0.0-110.0","23","1","2023-10-31 20:14:33","a725c3012b74bf33a1020a98cb69c237","181.84.123.3","Mozilla/5.0 (Windows NT 10.0; Win64; x64) AppleWebKit/537.36 (KHTML, like Gecko) Chrome/118.0.0.0 Safari/537.36 Edg/118.0.2088.76","WebKit","Edge","118.0.2088.76","Windows","10.0","null","en-US,en;q=0.9","true","720","tones/440hz_short.mp3","a","","","tone_number_task","992.5","47","tones/440hz_short.mp3","1142.5","100","0","14",""
"","","","","","html-keyboard-response","102","679619","0.0-111.0-0.0","23","1","2023-10-31 20:14:33","a725c3012b74bf33a1020a98cb69c237","181.84.123.3","Mozilla/5.0 (Windows NT 10.0; Win64; x64) AppleWebKit/537.36 (KHTML, like Gecko) Chrome/118.0.0.0 Safari/537.36 Edg/118.0.2088.76","WebKit","Edge","118.0.2088.76","Windows","10.0","null","en-US,en;q=0.9","true","null","","null","","","delay_block","","","","","","0","14",""
"","","","","","html-keyboard-response","103","679774","0.0-111.0-1.0","23","1","2023-10-31 20:14:33","a725c3012b74bf33a1020a98cb69c237","181.84.123.3","Mozilla/5.0 (Windows NT 10.0; Win64; x64) AppleWebKit/537.36 (KHTML, like Gecko) Chrome/118.0.0.0 Safari/537.36 Edg/118.0.2088.76","WebKit","Edge","118.0.2088.76","Windows","10.0","null","en-US,en;q=0.9","true","null","<p id=""stimulus"" style=""font-size:100px;"">47</p>","null","","","tone_number_task_remaining_before_delay","","47","","422.5","100","0","14",""
"","","","","","html-keyboard-response","104","680312","0.0-114.0-0.0","23","1","2023-10-31 20:14:33","a725c3012b74bf33a1020a98cb69c237","181.84.123.3","Mozilla/5.0 (Windows NT 10.0; Win64; x64) AppleWebKit/537.36 (KHTML, like Gecko) Chrome/118.0.0.0 Safari/537.36 Edg/118.0.2088.76","WebKit","Edge","118.0.2088.76","Windows","10.0","null","en-US,en;q=0.9","true","536","<p id=""stimulus"" style=""font-size:100px;"">47</p>","k","","","empty_block","","47","","","","0","14",""
"","","","","","html-keyboard-response","105","683019","0.0-115.0","23","1","2023-10-31 20:14:33","a725c3012b74bf33a1020a98cb69c237","181.84.123.3","Mozilla/5.0 (Windows NT 10.0; Win64; x64) AppleWebKit/537.36 (KHTML, like Gecko) Chrome/118.0.0.0 Safari/537.36 Edg/118.0.2088.76","WebKit","Edge","118.0.2088.76","Windows","10.0","null","en-US,en;q=0.9","true","null","<div style=""font-size:100px;"">X</div>","null","","","fixation","","","","","","","",""
"","","","","","audio-keyboard-response","106","683172","0.0-116.0","23","1","2023-10-31 20:14:33","a725c3012b74bf33a1020a98cb69c237","181.84.123.3","Mozilla/5.0 (Windows NT 10.0; Win64; x64) AppleWebKit/537.36 (KHTML, like Gecko) Chrome/118.0.0.0 Safari/537.36 Edg/118.0.2088.76","WebKit","Edge","118.0.2088.76","Windows","10.0","null","en-US,en;q=0.9","true","null","tones/440hz_short.mp3","null","","","tone_number_task","0","26","tones/440hz_short.mp3","150","100","0","15",""
"","","","","","html-keyboard-response","107","683960","0.0-119.0-0.0","23","1","2023-10-31 20:14:33","a725c3012b74bf33a1020a98cb69c237","181.84.123.3","Mozilla/5.0 (Windows NT 10.0; Win64; x64) AppleWebKit/537.36 (KHTML, like Gecko) Chrome/118.0.0.0 Safari/537.36 Edg/118.0.2088.76","WebKit","Edge","118.0.2088.76","Windows","10.0","null","en-US,en;q=0.9","true","782","tones/440hz_short.mp3","a","","","empty_block","","26","","","","0","15",""
"","","","","","html-keyboard-response","108","684358","0.0-119.0-1.0","23","1","2023-10-31 20:14:33","a725c3012b74bf33a1020a98cb69c237","181.84.123.3","Mozilla/5.0 (Windows NT 10.0; Win64; x64) AppleWebKit/537.36 (KHTML, like Gecko) Chrome/118.0.0.0 Safari/537.36 Edg/118.0.2088.76","WebKit","Edge","118.0.2088.76","Windows","10.0","null","en-US,en;q=0.9","true","397","tones/440hz_short.mp3","j","","","empty_block","","26","","","","0","15",""
"","","","","","html-keyboard-response","109","687066","0.0-121.0","23","1","2023-10-31 20:14:33","a725c3012b74bf33a1020a98cb69c237","181.84.123.3","Mozilla/5.0 (Windows NT 10.0; Win64; x64) AppleWebKit/537.36 (KHTML, like Gecko) Chrome/118.0.0.0 Safari/537.36 Edg/118.0.2088.76","WebKit","Edge","118.0.2088.76","Windows","10.0","null","en-US,en;q=0.9","true","null","<div style=""font-size:100px;"">X</div>","null","","","fixation","","","","","","","",""
"","","","","","audio-keyboard-response","110","687503","0.0-122.0","23","1","2023-10-31 20:14:33","a725c3012b74bf33a1020a98cb69c237","181.84.123.3","Mozilla/5.0 (Windows NT 10.0; Win64; x64) AppleWebKit/537.36 (KHTML, like Gecko) Chrome/118.0.0.0 Safari/537.36 Edg/118.0.2088.76","WebKit","Edge","118.0.2088.76","Windows","10.0","null","en-US,en;q=0.9","true","429","tones/880hz_short.mp3","s","","","tone_number_task","1025","42","tones/880hz_short.mp3","1175","100","0","16",""
"","","","","","html-keyboard-response","111","688102","0.0-123.0-0.0","23","1","2023-10-31 20:14:33","a725c3012b74bf33a1020a98cb69c237","181.84.123.3","Mozilla/5.0 (Windows NT 10.0; Win64; x64) AppleWebKit/537.36 (KHTML, like Gecko) Chrome/118.0.0.0 Safari/537.36 Edg/118.0.2088.76","WebKit","Edge","118.0.2088.76","Windows","10.0","null","en-US,en;q=0.9","true","null","","null","","","delay_block","","","","","","0","16",""
"","","","","","html-keyboard-response","112","688255","0.0-123.0-1.0","23","1","2023-10-31 20:14:33","a725c3012b74bf33a1020a98cb69c237","181.84.123.3","Mozilla/5.0 (Windows NT 10.0; Win64; x64) AppleWebKit/537.36 (KHTML, like Gecko) Chrome/118.0.0.0 Safari/537.36 Edg/118.0.2088.76","WebKit","Edge","118.0.2088.76","Windows","10.0","null","en-US,en;q=0.9","true","null","<p id=""stimulus"" style=""font-size:100px;"">42</p>","null","","","tone_number_task_remaining_before_delay","","42","","746","100","0","16",""
"","","","","","html-keyboard-response","113","688910","0.0-126.0-0.0","23","1","2023-10-31 20:14:33","a725c3012b74bf33a1020a98cb69c237","181.84.123.3","Mozilla/5.0 (Windows NT 10.0; Win64; x64) AppleWebKit/537.36 (KHTML, like Gecko) Chrome/118.0.0.0 Safari/537.36 Edg/118.0.2088.76","WebKit","Edge","118.0.2088.76","Windows","10.0","null","en-US,en;q=0.9","true","653","<p id=""stimulus"" style=""font-size:100px;"">42</p>","j","","","empty_block","","42","","","","0","16",""
"","","","","","html-keyboard-response","114","691618","0.0-127.0","23","1","2023-10-31 20:14:33","a725c3012b74bf33a1020a98cb69c237","181.84.123.3","Mozilla/5.0 (Windows NT 10.0; Win64; x64) AppleWebKit/537.36 (KHTML, like Gecko) Chrome/118.0.0.0 Safari/537.36 Edg/118.0.2088.76","WebKit","Edge","118.0.2088.76","Windows","10.0","null","en-US,en;q=0.9","true","null","<div style=""font-size:100px;"">X</div>","null","","","fixation","","","","","","","",""
"","","","","","audio-keyboard-response","115","691874","0.0-128.0","23","1","2023-10-31 20:14:33","a725c3012b74bf33a1020a98cb69c237","181.84.123.3","Mozilla/5.0 (Windows NT 10.0; Win64; x64) AppleWebKit/537.36 (KHTML, like Gecko) Chrome/118.0.0.0 Safari/537.36 Edg/118.0.2088.76","WebKit","Edge","118.0.2088.76","Windows","10.0","null","en-US,en;q=0.9","true","null","tones/440hz_short.mp3","null","","","tone_number_task","102.5","32","tones/440hz_short.mp3","252.5","100","0","17",""
"","","","","","html-keyboard-response","116","692136","0.0-131.0-0.0","23","1","2023-10-31 20:14:33","a725c3012b74bf33a1020a98cb69c237","181.84.123.3","Mozilla/5.0 (Windows NT 10.0; Win64; x64) AppleWebKit/537.36 (KHTML, like Gecko) Chrome/118.0.0.0 Safari/537.36 Edg/118.0.2088.76","WebKit","Edge","118.0.2088.76","Windows","10.0","null","en-US,en;q=0.9","true","253","tones/440hz_short.mp3","a","","","empty_block","","32","","","","0","17",""
"","","","","","html-keyboard-response","117","692440","0.0-131.0-1.0","23","1","2023-10-31 20:14:33","a725c3012b74bf33a1020a98cb69c237","181.84.123.3","Mozilla/5.0 (Windows NT 10.0; Win64; x64) AppleWebKit/537.36 (KHTML, like Gecko) Chrome/118.0.0.0 Safari/537.36 Edg/118.0.2088.76","WebKit","Edge","118.0.2088.76","Windows","10.0","null","en-US,en;q=0.9","true","302","tones/440hz_short.mp3","j","","","empty_block","","32","","","","0","17",""
"","","","","","html-keyboard-response","118","695147","0.0-133.0","23","1","2023-10-31 20:14:33","a725c3012b74bf33a1020a98cb69c237","181.84.123.3","Mozilla/5.0 (Windows NT 10.0; Win64; x64) AppleWebKit/537.36 (KHTML, like Gecko) Chrome/118.0.0.0 Safari/537.36 Edg/118.0.2088.76","WebKit","Edge","118.0.2088.76","Windows","10.0","null","en-US,en;q=0.9","true","null","<div style=""font-size:100px;"">X</div>","null","","","fixation","","","","","","","",""
"","","","","","audio-keyboard-response","119","695662","0.0-134.0","23","1","2023-10-31 20:14:33","a725c3012b74bf33a1020a98cb69c237","181.84.123.3","Mozilla/5.0 (Windows NT 10.0; Win64; x64) AppleWebKit/537.36 (KHTML, like Gecko) Chrome/118.0.0.0 Safari/537.36 Edg/118.0.2088.76","WebKit","Edge","118.0.2088.76","Windows","10.0","null","en-US,en;q=0.9","true","509","tones/880hz_short.mp3","s","","","tone_number_task","992.5","31","tones/880hz_short.mp3","1142.5","100","0","18",""
"","","","","","html-keyboard-response","120","696148","0.0-135.0-0.0","23","1","2023-10-31 20:14:33","a725c3012b74bf33a1020a98cb69c237","181.84.123.3","Mozilla/5.0 (Windows NT 10.0; Win64; x64) AppleWebKit/537.36 (KHTML, like Gecko) Chrome/118.0.0.0 Safari/537.36 Edg/118.0.2088.76","WebKit","Edge","118.0.2088.76","Windows","10.0","null","en-US,en;q=0.9","true","null","","null","","","delay_block","","","","","","0","18",""
"","","","","","html-keyboard-response","121","696305","0.0-135.0-1.0","23","1","2023-10-31 20:14:33","a725c3012b74bf33a1020a98cb69c237","181.84.123.3","Mozilla/5.0 (Windows NT 10.0; Win64; x64) AppleWebKit/537.36 (KHTML, like Gecko) Chrome/118.0.0.0 Safari/537.36 Edg/118.0.2088.76","WebKit","Edge","118.0.2088.76","Windows","10.0","null","en-US,en;q=0.9","true","null","<p id=""stimulus"" style=""font-size:100px;"">31</p>","null","","","tone_number_task_remaining_before_delay","","31","","633.5","100","0","18",""
"","","","","","html-keyboard-response","122","696728","0.0-138.0-0.0","23","1","2023-10-31 20:14:33","a725c3012b74bf33a1020a98cb69c237","181.84.123.3","Mozilla/5.0 (Windows NT 10.0; Win64; x64) AppleWebKit/537.36 (KHTML, like Gecko) Chrome/118.0.0.0 Safari/537.36 Edg/118.0.2088.76","WebKit","Edge","118.0.2088.76","Windows","10.0","null","en-US,en;q=0.9","true","420","<p id=""stimulus"" style=""font-size:100px;"">31</p>","j","","","empty_block","","31","","","","0","18",""
"","","","","","html-keyboard-response","123","699436","0.0-139.0","23","1","2023-10-31 20:14:33","a725c3012b74bf33a1020a98cb69c237","181.84.123.3","Mozilla/5.0 (Windows NT 10.0; Win64; x64) AppleWebKit/537.36 (KHTML, like Gecko) Chrome/118.0.0.0 Safari/537.36 Edg/118.0.2088.76","WebKit","Edge","118.0.2088.76","Windows","10.0","null","en-US,en;q=0.9","true","null","<div style=""font-size:100px;"">X</div>","null","","","fixation","","","","","","","",""
"","","","","","audio-keyboard-response","124","699691","0.0-140.0","23","1","2023-10-31 20:14:33","a725c3012b74bf33a1020a98cb69c237","181.84.123.3","Mozilla/5.0 (Windows NT 10.0; Win64; x64) AppleWebKit/537.36 (KHTML, like Gecko) Chrome/118.0.0.0 Safari/537.36 Edg/118.0.2088.76","WebKit","Edge","118.0.2088.76","Windows","10.0","null","en-US,en;q=0.9","true","null","tones/440hz_short.mp3","null","","","tone_number_task","102.5","55","tones/440hz_short.mp3","252.5","100","0","19",""
"","","","","","html-keyboard-response","125","700459","0.0-143.0-0.0","23","1","2023-10-31 20:14:33","a725c3012b74bf33a1020a98cb69c237","181.84.123.3","Mozilla/5.0 (Windows NT 10.0; Win64; x64) AppleWebKit/537.36 (KHTML, like Gecko) Chrome/118.0.0.0 Safari/537.36 Edg/118.0.2088.76","WebKit","Edge","118.0.2088.76","Windows","10.0","null","en-US,en;q=0.9","true","760","tones/440hz_short.mp3","a","","","empty_block","","55","","","","0","19",""
"","","","","","html-keyboard-response","126","700735","0.0-143.0-1.0","23","1","2023-10-31 20:14:33","a725c3012b74bf33a1020a98cb69c237","181.84.123.3","Mozilla/5.0 (Windows NT 10.0; Win64; x64) AppleWebKit/537.36 (KHTML, like Gecko) Chrome/118.0.0.0 Safari/537.36 Edg/118.0.2088.76","WebKit","Edge","118.0.2088.76","Windows","10.0","null","en-US,en;q=0.9","true","274","tones/440hz_short.mp3","k","","","empty_block","","55","","","","0","19",""
"","","","","","html-keyboard-response","127","703443","0.0-145.0","23","1","2023-10-31 20:14:33","a725c3012b74bf33a1020a98cb69c237","181.84.123.3","Mozilla/5.0 (Windows NT 10.0; Win64; x64) AppleWebKit/537.36 (KHTML, like Gecko) Chrome/118.0.0.0 Safari/537.36 Edg/118.0.2088.76","WebKit","Edge","118.0.2088.76","Windows","10.0","null","en-US,en;q=0.9","true","null","<div style=""font-size:100px;"">X</div>","null","","","fixation","","","","","","","",""
"","","","","","audio-keyboard-response","128","703699","0.0-146.0","23","1","2023-10-31 20:14:33","a725c3012b74bf33a1020a98cb69c237","181.84.123.3","Mozilla/5.0 (Windows NT 10.0; Win64; x64) AppleWebKit/537.36 (KHTML, like Gecko) Chrome/118.0.0.0 Safari/537.36 Edg/118.0.2088.76","WebKit","Edge","118.0.2088.76","Windows","10.0","null","en-US,en;q=0.9","true","null","tones/880hz_short.mp3","null","","","tone_number_task","102.5","58","tones/880hz_short.mp3","252.5","100","0","20",""
"","","","","","html-keyboard-response","129","704423","0.0-149.0-0.0","23","1","2023-10-31 20:14:33","a725c3012b74bf33a1020a98cb69c237","181.84.123.3","Mozilla/5.0 (Windows NT 10.0; Win64; x64) AppleWebKit/537.36 (KHTML, like Gecko) Chrome/118.0.0.0 Safari/537.36 Edg/118.0.2088.76","WebKit","Edge","118.0.2088.76","Windows","10.0","null","en-US,en;q=0.9","true","721","tones/880hz_short.mp3","s","","","empty_block","","58","","","","0","20",""
"","","","","","html-keyboard-response","130","704687","0.0-149.0-1.0","23","1","2023-10-31 20:14:33","a725c3012b74bf33a1020a98cb69c237","181.84.123.3","Mozilla/5.0 (Windows NT 10.0; Win64; x64) AppleWebKit/537.36 (KHTML, like Gecko) Chrome/118.0.0.0 Safari/537.36 Edg/118.0.2088.76","WebKit","Edge","118.0.2088.76","Windows","10.0","null","en-US,en;q=0.9","true","261","tones/880hz_short.mp3","k","","","empty_block","","58","","","","0","20",""
"","","","","","html-keyboard-response","131","707394","0.0-151.0","23","1","2023-10-31 20:14:33","a725c3012b74bf33a1020a98cb69c237","181.84.123.3","Mozilla/5.0 (Windows NT 10.0; Win64; x64) AppleWebKit/537.36 (KHTML, like Gecko) Chrome/118.0.0.0 Safari/537.36 Edg/118.0.2088.76","WebKit","Edge","118.0.2088.76","Windows","10.0","null","en-US,en;q=0.9","true","null","<div style=""font-size:100px;"">X</div>","null","","","fixation","","","","","","","",""
"","","","","","audio-keyboard-response","132","708007","0.0-152.0","23","1","2023-10-31 20:14:33","a725c3012b74bf33a1020a98cb69c237","181.84.123.3","Mozilla/5.0 (Windows NT 10.0; Win64; x64) AppleWebKit/537.36 (KHTML, like Gecko) Chrome/118.0.0.0 Safari/537.36 Edg/118.0.2088.76","WebKit","Edge","118.0.2088.76","Windows","10.0","null","en-US,en;q=0.9","true","611","tones/440hz_short.mp3","a","","","tone_number_task","1025","21","tones/440hz_short.mp3","1175","100","0","21",""
"","","","","","html-keyboard-response","133","708426","0.0-153.0-0.0","23","1","2023-10-31 20:14:33","a725c3012b74bf33a1020a98cb69c237","181.84.123.3","Mozilla/5.0 (Windows NT 10.0; Win64; x64) AppleWebKit/537.36 (KHTML, like Gecko) Chrome/118.0.0.0 Safari/537.36 Edg/118.0.2088.76","WebKit","Edge","118.0.2088.76","Windows","10.0","null","en-US,en;q=0.9","true","null","","null","","","delay_block","","","","","","0","21",""
"","","","","","html-keyboard-response","134","708585","0.0-153.0-1.0","23","1","2023-10-31 20:14:33","a725c3012b74bf33a1020a98cb69c237","181.84.123.3","Mozilla/5.0 (Windows NT 10.0; Win64; x64) AppleWebKit/537.36 (KHTML, like Gecko) Chrome/118.0.0.0 Safari/537.36 Edg/118.0.2088.76","WebKit","Edge","118.0.2088.76","Windows","10.0","null","en-US,en;q=0.9","true","null","<p id=""stimulus"" style=""font-size:100px;"">21</p>","null","","","tone_number_task_remaining_before_delay","","21","","564","100","0","21",""
"","","","","","html-keyboard-response","135","708975","0.0-156.0-0.0","23","1","2023-10-31 20:14:33","a725c3012b74bf33a1020a98cb69c237","181.84.123.3","Mozilla/5.0 (Windows NT 10.0; Win64; x64) AppleWebKit/537.36 (KHTML, like Gecko) Chrome/118.0.0.0 Safari/537.36 Edg/118.0.2088.76","WebKit","Edge","118.0.2088.76","Windows","10.0","null","en-US,en;q=0.9","true","388","<p id=""stimulus"" style=""font-size:100px;"">21</p>","j","","","empty_block","","21","","","","0","21",""
"","","","","","html-keyboard-response","136","711682","0.0-157.0","23","1","2023-10-31 20:14:33","a725c3012b74bf33a1020a98cb69c237","181.84.123.3","Mozilla/5.0 (Windows NT 10.0; Win64; x64) AppleWebKit/537.36 (KHTML, like Gecko) Chrome/118.0.0.0 Safari/537.36 Edg/118.0.2088.76","WebKit","Edge","118.0.2088.76","Windows","10.0","null","en-US,en;q=0.9","true","null","<div style=""font-size:100px;"">X</div>","null","","","fixation","","","","","","","",""
"","","","","","audio-keyboard-response","137","711836","0.0-158.0","23","1","2023-10-31 20:14:33","a725c3012b74bf33a1020a98cb69c237","181.84.123.3","Mozilla/5.0 (Windows NT 10.0; Win64; x64) AppleWebKit/537.36 (KHTML, like Gecko) Chrome/118.0.0.0 Safari/537.36 Edg/118.0.2088.76","WebKit","Edge","118.0.2088.76","Windows","10.0","null","en-US,en;q=0.9","true","null","tones/440hz_short.mp3","null","","","tone_number_task","0","34","tones/440hz_short.mp3","150","100","0","22",""
"","","","","","html-keyboard-response","138","712521","0.0-161.0-0.0","23","1","2023-10-31 20:14:33","a725c3012b74bf33a1020a98cb69c237","181.84.123.3","Mozilla/5.0 (Windows NT 10.0; Win64; x64) AppleWebKit/537.36 (KHTML, like Gecko) Chrome/118.0.0.0 Safari/537.36 Edg/118.0.2088.76","WebKit","Edge","118.0.2088.76","Windows","10.0","null","en-US,en;q=0.9","true","683","tones/440hz_short.mp3","a","","","empty_block","","34","","","","0","22",""
"","","","","","html-keyboard-response","139","712783","0.0-161.0-1.0","23","1","2023-10-31 20:14:33","a725c3012b74bf33a1020a98cb69c237","181.84.123.3","Mozilla/5.0 (Windows NT 10.0; Win64; x64) AppleWebKit/537.36 (KHTML, like Gecko) Chrome/118.0.0.0 Safari/537.36 Edg/118.0.2088.76","WebKit","Edge","118.0.2088.76","Windows","10.0","null","en-US,en;q=0.9","true","255","tones/440hz_short.mp3","j","","","empty_block","","34","","","","0","22",""
"","","","","","html-keyboard-response","140","715491","0.0-163.0","23","1","2023-10-31 20:14:33","a725c3012b74bf33a1020a98cb69c237","181.84.123.3","Mozilla/5.0 (Windows NT 10.0; Win64; x64) AppleWebKit/537.36 (KHTML, like Gecko) Chrome/118.0.0.0 Safari/537.36 Edg/118.0.2088.76","WebKit","Edge","118.0.2088.76","Windows","10.0","null","en-US,en;q=0.9","true","null","<div style=""font-size:100px;"">X</div>","null","","","fixation","","","","","","","",""
"","","","","","audio-keyboard-response","141","715943","0.0-164.0","23","1","2023-10-31 20:14:33","a725c3012b74bf33a1020a98cb69c237","181.84.123.3","Mozilla/5.0 (Windows NT 10.0; Win64; x64) AppleWebKit/537.36 (KHTML, like Gecko) Chrome/118.0.0.0 Safari/537.36 Edg/118.0.2088.76","WebKit","Edge","118.0.2088.76","Windows","10.0","null","en-US,en;q=0.9","true","448","tones/880hz_short.mp3","s","","","tone_number_task","992.5","46","tones/880hz_short.mp3","1142.5","100","0","23",""
"","","","","","html-keyboard-response","142","716489","0.0-165.0-0.0","23","1","2023-10-31 20:14:33","a725c3012b74bf33a1020a98cb69c237","181.84.123.3","Mozilla/5.0 (Windows NT 10.0; Win64; x64) AppleWebKit/537.36 (KHTML, like Gecko) Chrome/118.0.0.0 Safari/537.36 Edg/118.0.2088.76","WebKit","Edge","118.0.2088.76","Windows","10.0","null","en-US,en;q=0.9","true","null","","null","","","delay_block","","","","","","0","23",""
"","","","","","html-keyboard-response","143","716642","0.0-165.0-1.0","23","1","2023-10-31 20:14:33","a725c3012b74bf33a1020a98cb69c237","181.84.123.3","Mozilla/5.0 (Windows NT 10.0; Win64; x64) AppleWebKit/537.36 (KHTML, like Gecko) Chrome/118.0.0.0 Safari/537.36 Edg/118.0.2088.76","WebKit","Edge","118.0.2088.76","Windows","10.0","null","en-US,en;q=0.9","true","null","<p id=""stimulus"" style=""font-size:100px;"">46</p>","null","","","tone_number_task_remaining_before_delay","","46","","694.5","100","0","23",""
"","","","","","html-keyboard-response","144","717151","0.0-168.0-0.0","23","1","2023-10-31 20:14:33","a725c3012b74bf33a1020a98cb69c237","181.84.123.3","Mozilla/5.0 (Windows NT 10.0; Win64; x64) AppleWebKit/537.36 (KHTML, like Gecko) Chrome/118.0.0.0 Safari/537.36 Edg/118.0.2088.76","WebKit","Edge","118.0.2088.76","Windows","10.0","null","en-US,en;q=0.9","true","507","<p id=""stimulus"" style=""font-size:100px;"">46</p>","k","","","empty_block","","46","","","","0","23",""
"","","","","","html-keyboard-response","145","719858","0.0-169.0","23","1","2023-10-31 20:14:33","a725c3012b74bf33a1020a98cb69c237","181.84.123.3","Mozilla/5.0 (Windows NT 10.0; Win64; x64) AppleWebKit/537.36 (KHTML, like Gecko) Chrome/118.0.0.0 Safari/537.36 Edg/118.0.2088.76","WebKit","Edge","118.0.2088.76","Windows","10.0","null","en-US,en;q=0.9","true","null","<div style=""font-size:100px;"">X</div>","null","","","fixation","","","","","","","",""
"","","","","","audio-keyboard-response","146","720113","0.0-170.0","23","1","2023-10-31 20:14:33","a725c3012b74bf33a1020a98cb69c237","181.84.123.3","Mozilla/5.0 (Windows NT 10.0; Win64; x64) AppleWebKit/537.36 (KHTML, like Gecko) Chrome/118.0.0.0 Safari/537.36 Edg/118.0.2088.76","WebKit","Edge","118.0.2088.76","Windows","10.0","null","en-US,en;q=0.9","true","null","tones/440hz_short.mp3","null","","","tone_number_task","102.5","26","tones/440hz_short.mp3","252.5","100","0","24",""
"","","","","","html-keyboard-response","147","720439","0.0-173.0-0.0","23","1","2023-10-31 20:14:33","a725c3012b74bf33a1020a98cb69c237","181.84.123.3","Mozilla/5.0 (Windows NT 10.0; Win64; x64) AppleWebKit/537.36 (KHTML, like Gecko) Chrome/118.0.0.0 Safari/537.36 Edg/118.0.2088.76","WebKit","Edge","118.0.2088.76","Windows","10.0","null","en-US,en;q=0.9","true","320","tones/440hz_short.mp3","a","","","empty_block","","26","","","","0","24",""
"","","","","","html-keyboard-response","148","720743","0.0-173.0-1.0","23","1","2023-10-31 20:14:33","a725c3012b74bf33a1020a98cb69c237","181.84.123.3","Mozilla/5.0 (Windows NT 10.0; Win64; x64) AppleWebKit/537.36 (KHTML, like Gecko) Chrome/118.0.0.0 Safari/537.36 Edg/118.0.2088.76","WebKit","Edge","118.0.2088.76","Windows","10.0","null","en-US,en;q=0.9","true","300","tones/440hz_short.mp3","j","","","empty_block","","26","","","","0","24",""
"","","","","","html-keyboard-response","149","723450","0.0-175.0","23","1","2023-10-31 20:14:33","a725c3012b74bf33a1020a98cb69c237","181.84.123.3","Mozilla/5.0 (Windows NT 10.0; Win64; x64) AppleWebKit/537.36 (KHTML, like Gecko) Chrome/118.0.0.0 Safari/537.36 Edg/118.0.2088.76","WebKit","Edge","118.0.2088.76","Windows","10.0","null","en-US,en;q=0.9","true","null","<div style=""font-size:100px;"">X</div>","null","","","fixation","","","","","","","",""
"","","","","","audio-keyboard-response","150","723705","0.0-176.0","23","1","2023-10-31 20:14:33","a725c3012b74bf33a1020a98cb69c237","181.84.123.3","Mozilla/5.0 (Windows NT 10.0; Win64; x64) AppleWebKit/537.36 (KHTML, like Gecko) Chrome/118.0.0.0 Safari/537.36 Edg/118.0.2088.76","WebKit","Edge","118.0.2088.76","Windows","10.0","null","en-US,en;q=0.9","true","null","tones/880hz_short.mp3","null","","","tone_number_task","102.5","64","tones/880hz_short.mp3","252.5","100","0","25",""
"","","","","","html-keyboard-response","151","724039","0.0-179.0-0.0","23","1","2023-10-31 20:14:33","a725c3012b74bf33a1020a98cb69c237","181.84.123.3","Mozilla/5.0 (Windows NT 10.0; Win64; x64) AppleWebKit/537.36 (KHTML, like Gecko) Chrome/118.0.0.0 Safari/537.36 Edg/118.0.2088.76","WebKit","Edge","118.0.2088.76","Windows","10.0","null","en-US,en;q=0.9","true","330","tones/880hz_short.mp3","s","","","empty_block","","64","","","","0","25",""
"","","","","","html-keyboard-response","152","724303","0.0-179.0-1.0","23","1","2023-10-31 20:14:33","a725c3012b74bf33a1020a98cb69c237","181.84.123.3","Mozilla/5.0 (Windows NT 10.0; Win64; x64) AppleWebKit/537.36 (KHTML, like Gecko) Chrome/118.0.0.0 Safari/537.36 Edg/118.0.2088.76","WebKit","Edge","118.0.2088.76","Windows","10.0","null","en-US,en;q=0.9","true","262","tones/880hz_short.mp3","k","","","empty_block","","64","","","","0","25",""
"","","","","","html-keyboard-response","153","727011","0.0-181.0","23","1","2023-10-31 20:14:33","a725c3012b74bf33a1020a98cb69c237","181.84.123.3","Mozilla/5.0 (Windows NT 10.0; Win64; x64) AppleWebKit/537.36 (KHTML, like Gecko) Chrome/118.0.0.0 Safari/537.36 Edg/118.0.2088.76","WebKit","Edge","118.0.2088.76","Windows","10.0","null","en-US,en;q=0.9","true","null","<div style=""font-size:100px;"">X</div>","null","","","fixation","","","","","","","",""
"","","","","","audio-keyboard-response","154","727487","0.0-182.0","23","1","2023-10-31 20:14:33","a725c3012b74bf33a1020a98cb69c237","181.84.123.3","Mozilla/5.0 (Windows NT 10.0; Win64; x64) AppleWebKit/537.36 (KHTML, like Gecko) Chrome/118.0.0.0 Safari/537.36 Edg/118.0.2088.76","WebKit","Edge","118.0.2088.76","Windows","10.0","null","en-US,en;q=0.9","true","480","tones/440hz_short.mp3","a","","","tone_number_task","992.5","25","tones/440hz_short.mp3","1142.5","100","0","26",""
"","","","","","html-keyboard-response","155","728002","0.0-183.0-0.0","23","1","2023-10-31 20:14:33","a725c3012b74bf33a1020a98cb69c237","181.84.123.3","Mozilla/5.0 (Windows NT 10.0; Win64; x64) AppleWebKit/537.36 (KHTML, like Gecko) Chrome/118.0.0.0 Safari/537.36 Edg/118.0.2088.76","WebKit","Edge","118.0.2088.76","Windows","10.0","null","en-US,en;q=0.9","true","null","","null","","","delay_block","","","","","","0","26",""
"","","","","","html-keyboard-response","156","728156","0.0-183.0-1.0","23","1","2023-10-31 20:14:33","a725c3012b74bf33a1020a98cb69c237","181.84.123.3","Mozilla/5.0 (Windows NT 10.0; Win64; x64) AppleWebKit/537.36 (KHTML, like Gecko) Chrome/118.0.0.0 Safari/537.36 Edg/118.0.2088.76","WebKit","Edge","118.0.2088.76","Windows","10.0","null","en-US,en;q=0.9","true","null","<p id=""stimulus"" style=""font-size:100px;"">25</p>","null","","","tone_number_task_remaining_before_delay","","25","","662.5","100","0","26",""
"","","","","","html-keyboard-response","157","728511","0.0-186.0-0.0","23","1","2023-10-31 20:14:33","a725c3012b74bf33a1020a98cb69c237","181.84.123.3","Mozilla/5.0 (Windows NT 10.0; Win64; x64) AppleWebKit/537.36 (KHTML, like Gecko) Chrome/118.0.0.0 Safari/537.36 Edg/118.0.2088.76","WebKit","Edge","118.0.2088.76","Windows","10.0","null","en-US,en;q=0.9","true","351","<p id=""stimulus"" style=""font-size:100px;"">25</p>","j","","","empty_block","","25","","","","0","26",""
"","","","","","html-keyboard-response","158","731218","0.0-187.0","23","1","2023-10-31 20:14:33","a725c3012b74bf33a1020a98cb69c237","181.84.123.3","Mozilla/5.0 (Windows NT 10.0; Win64; x64) AppleWebKit/537.36 (KHTML, like Gecko) Chrome/118.0.0.0 Safari/537.36 Edg/118.0.2088.76","WebKit","Edge","118.0.2088.76","Windows","10.0","null","en-US,en;q=0.9","true","null","<div style=""font-size:100px;"">X</div>","null","","","fixation","","","","","","","",""
"","","","","","audio-keyboard-response","159","731372","0.0-188.0","23","1","2023-10-31 20:14:33","a725c3012b74bf33a1020a98cb69c237","181.84.123.3","Mozilla/5.0 (Windows NT 10.0; Win64; x64) AppleWebKit/537.36 (KHTML, like Gecko) Chrome/118.0.0.0 Safari/537.36 Edg/118.0.2088.76","WebKit","Edge","118.0.2088.76","Windows","10.0","null","en-US,en;q=0.9","true","null","tones/440hz_short.mp3","null","","","tone_number_task","0","51","tones/440hz_short.mp3","150","100","0","27",""
"","","","","","html-keyboard-response","160","732187","0.0-191.0-0.0","23","1","2023-10-31 20:14:33","a725c3012b74bf33a1020a98cb69c237","181.84.123.3","Mozilla/5.0 (Windows NT 10.0; Win64; x64) AppleWebKit/537.36 (KHTML, like Gecko) Chrome/118.0.0.0 Safari/537.36 Edg/118.0.2088.76","WebKit","Edge","118.0.2088.76","Windows","10.0","null","en-US,en;q=0.9","true","809","tones/440hz_short.mp3","a","","","empty_block","","51","","","","0","27",""
"","","","","","html-keyboard-response","161","732503","0.0-191.0-1.0","23","1","2023-10-31 20:14:33","a725c3012b74bf33a1020a98cb69c237","181.84.123.3","Mozilla/5.0 (Windows NT 10.0; Win64; x64) AppleWebKit/537.36 (KHTML, like Gecko) Chrome/118.0.0.0 Safari/537.36 Edg/118.0.2088.76","WebKit","Edge","118.0.2088.76","Windows","10.0","null","en-US,en;q=0.9","true","314","tones/440hz_short.mp3","k","","","empty_block","","51","","","","0","27",""
"","","","","","html-keyboard-response","162","735211","0.0-193.0","23","1","2023-10-31 20:14:33","a725c3012b74bf33a1020a98cb69c237","181.84.123.3","Mozilla/5.0 (Windows NT 10.0; Win64; x64) AppleWebKit/537.36 (KHTML, like Gecko) Chrome/118.0.0.0 Safari/537.36 Edg/118.0.2088.76","WebKit","Edge","118.0.2088.76","Windows","10.0","null","en-US,en;q=0.9","true","null","<div style=""font-size:100px;"">X</div>","null","","","fixation","","","","","","","",""
"","","","","","audio-keyboard-response","163","735807","0.0-194.0","23","1","2023-10-31 20:14:33","a725c3012b74bf33a1020a98cb69c237","181.84.123.3","Mozilla/5.0 (Windows NT 10.0; Win64; x64) AppleWebKit/537.36 (KHTML, like Gecko) Chrome/118.0.0.0 Safari/537.36 Edg/118.0.2088.76","WebKit","Edge","118.0.2088.76","Windows","10.0","null","en-US,en;q=0.9","true","600","tones/880hz_short.mp3","s","","","tone_number_task","1025","44","tones/880hz_short.mp3","1175","100","0","28",""
"","","","","","html-keyboard-response","164","736235","0.0-195.0-0.0","23","1","2023-10-31 20:14:33","a725c3012b74bf33a1020a98cb69c237","181.84.123.3","Mozilla/5.0 (Windows NT 10.0; Win64; x64) AppleWebKit/537.36 (KHTML, like Gecko) Chrome/118.0.0.0 Safari/537.36 Edg/118.0.2088.76","WebKit","Edge","118.0.2088.76","Windows","10.0","null","en-US,en;q=0.9","true","null","","null","","","delay_block","","","","","","0","28",""
"","","","","","html-keyboard-response","165","736397","0.0-195.0-1.0","23","1","2023-10-31 20:14:33","a725c3012b74bf33a1020a98cb69c237","181.84.123.3","Mozilla/5.0 (Windows NT 10.0; Win64; x64) AppleWebKit/537.36 (KHTML, like Gecko) Chrome/118.0.0.0 Safari/537.36 Edg/118.0.2088.76","WebKit","Edge","118.0.2088.76","Windows","10.0","null","en-US,en;q=0.9","true","null","<p id=""stimulus"" style=""font-size:100px;"">44</p>","null","","","tone_number_task_remaining_before_delay","","44","","575","100","0","28",""
"","","","","","html-keyboard-response","166","737095","0.0-198.0-0.0","23","1","2023-10-31 20:14:33","a725c3012b74bf33a1020a98cb69c237","181.84.123.3","Mozilla/5.0 (Windows NT 10.0; Win64; x64) AppleWebKit/537.36 (KHTML, like Gecko) Chrome/118.0.0.0 Safari/537.36 Edg/118.0.2088.76","WebKit","Edge","118.0.2088.76","Windows","10.0","null","en-US,en;q=0.9","true","694","<p id=""stimulus"" style=""font-size:100px;"">44</p>","j","","","empty_block","","44","","","","0","28",""
"","","","","","html-keyboard-response","167","739803","0.0-199.0","23","1","2023-10-31 20:14:33","a725c3012b74bf33a1020a98cb69c237","181.84.123.3","Mozilla/5.0 (Windows NT 10.0; Win64; x64) AppleWebKit/537.36 (KHTML, like Gecko) Chrome/118.0.0.0 Safari/537.36 Edg/118.0.2088.76","WebKit","Edge","118.0.2088.76","Windows","10.0","null","en-US,en;q=0.9","true","null","<div style=""font-size:100px;"">X</div>","null","","","fixation","","","","","","","",""
"","","","","","audio-keyboard-response","168","740519","0.0-200.0","23","1","2023-10-31 20:14:33","a725c3012b74bf33a1020a98cb69c237","181.84.123.3","Mozilla/5.0 (Windows NT 10.0; Win64; x64) AppleWebKit/537.36 (KHTML, like Gecko) Chrome/118.0.0.0 Safari/537.36 Edg/118.0.2088.76","WebKit","Edge","118.0.2088.76","Windows","10.0","null","en-US,en;q=0.9","true","709","tones/880hz_short.mp3","s","","","tone_number_task","1025","43","tones/880hz_short.mp3","1175","100","0","29",""
"","","","","","html-keyboard-response","169","740839","0.0-201.0-0.0","23","1","2023-10-31 20:14:33","a725c3012b74bf33a1020a98cb69c237","181.84.123.3","Mozilla/5.0 (Windows NT 10.0; Win64; x64) AppleWebKit/537.36 (KHTML, like Gecko) Chrome/118.0.0.0 Safari/537.36 Edg/118.0.2088.76","WebKit","Edge","118.0.2088.76","Windows","10.0","null","en-US,en;q=0.9","true","null","","null","","","delay_block","","","","","","0","29",""
"","","","","","html-keyboard-response","170","740999","0.0-201.0-1.0","23","1","2023-10-31 20:14:33","a725c3012b74bf33a1020a98cb69c237","181.84.123.3","Mozilla/5.0 (Windows NT 10.0; Win64; x64) AppleWebKit/537.36 (KHTML, like Gecko) Chrome/118.0.0.0 Safari/537.36 Edg/118.0.2088.76","WebKit","Edge","118.0.2088.76","Windows","10.0","null","en-US,en;q=0.9","true","null","<p id=""stimulus"" style=""font-size:100px;"">43</p>","null","","","tone_number_task_remaining_before_delay","","43","","466","100","0","29",""
"","","","","","html-keyboard-response","171","741503","0.0-204.0-0.0","23","1","2023-10-31 20:14:33","a725c3012b74bf33a1020a98cb69c237","181.84.123.3","Mozilla/5.0 (Windows NT 10.0; Win64; x64) AppleWebKit/537.36 (KHTML, like Gecko) Chrome/118.0.0.0 Safari/537.36 Edg/118.0.2088.76","WebKit","Edge","118.0.2088.76","Windows","10.0","null","en-US,en;q=0.9","true","502","<p id=""stimulus"" style=""font-size:100px;"">43</p>","j","","","empty_block","","43","","","","0","29",""
"","","","","","html-keyboard-response","172","744211","0.0-205.0","23","1","2023-10-31 20:14:33","a725c3012b74bf33a1020a98cb69c237","181.84.123.3","Mozilla/5.0 (Windows NT 10.0; Win64; x64) AppleWebKit/537.36 (KHTML, like Gecko) Chrome/118.0.0.0 Safari/537.36 Edg/118.0.2088.76","WebKit","Edge","118.0.2088.76","Windows","10.0","null","en-US,en;q=0.9","true","null","<div style=""font-size:100px;"">X</div>","null","","","fixation","","","","","","","",""
"","","","","","audio-keyboard-response","173","744365","0.0-206.0","23","1","2023-10-31 20:14:33","a725c3012b74bf33a1020a98cb69c237","181.84.123.3","Mozilla/5.0 (Windows NT 10.0; Win64; x64) AppleWebKit/537.36 (KHTML, like Gecko) Chrome/118.0.0.0 Safari/537.36 Edg/118.0.2088.76","WebKit","Edge","118.0.2088.76","Windows","10.0","null","en-US,en;q=0.9","true","null","tones/880hz_short.mp3","null","","","tone_number_task","0","38","tones/880hz_short.mp3","150","100","0","30",""
"","","","","","html-keyboard-response","174","744630","0.0-209.0-0.0","23","1","2023-10-31 20:14:33","a725c3012b74bf33a1020a98cb69c237","181.84.123.3","Mozilla/5.0 (Windows NT 10.0; Win64; x64) AppleWebKit/537.36 (KHTML, like Gecko) Chrome/118.0.0.0 Safari/537.36 Edg/118.0.2088.76","WebKit","Edge","118.0.2088.76","Windows","10.0","null","en-US,en;q=0.9","true","260","tones/880hz_short.mp3","s","","","empty_block","","38","","","","0","30",""
"","","","","","html-keyboard-response","175","745335","0.0-209.0-1.0","23","1","2023-10-31 20:14:33","a725c3012b74bf33a1020a98cb69c237","181.84.123.3","Mozilla/5.0 (Windows NT 10.0; Win64; x64) AppleWebKit/537.36 (KHTML, like Gecko) Chrome/118.0.0.0 Safari/537.36 Edg/118.0.2088.76","WebKit","Edge","118.0.2088.76","Windows","10.0","null","en-US,en;q=0.9","true","702","tones/880hz_short.mp3","j","","","empty_block","","38","","","","0","30",""
"","","","","","html-keyboard-response","176","748043","0.0-211.0","23","1","2023-10-31 20:14:33","a725c3012b74bf33a1020a98cb69c237","181.84.123.3","Mozilla/5.0 (Windows NT 10.0; Win64; x64) AppleWebKit/537.36 (KHTML, like Gecko) Chrome/118.0.0.0 Safari/537.36 Edg/118.0.2088.76","WebKit","Edge","118.0.2088.76","Windows","10.0","null","en-US,en;q=0.9","true","null","<div style=""font-size:100px;"">X</div>","null","","","fixation","","","","","","","",""
"","","","","","audio-keyboard-response","177","748196","0.0-212.0","23","1","2023-10-31 20:14:33","a725c3012b74bf33a1020a98cb69c237","181.84.123.3","Mozilla/5.0 (Windows NT 10.0; Win64; x64) AppleWebKit/537.36 (KHTML, like Gecko) Chrome/118.0.0.0 Safari/537.36 Edg/118.0.2088.76","WebKit","Edge","118.0.2088.76","Windows","10.0","null","en-US,en;q=0.9","true","null","tones/440hz_short.mp3","null","","","tone_number_task","0","56","tones/440hz_short.mp3","150","100","0","31",""
"","","","","","html-keyboard-response","178","749043","0.0-215.0-0.0","23","1","2023-10-31 20:14:33","a725c3012b74bf33a1020a98cb69c237","181.84.123.3","Mozilla/5.0 (Windows NT 10.0; Win64; x64) AppleWebKit/537.36 (KHTML, like Gecko) Chrome/118.0.0.0 Safari/537.36 Edg/118.0.2088.76","WebKit","Edge","118.0.2088.76","Windows","10.0","null","en-US,en;q=0.9","true","840","tones/440hz_short.mp3","a","","","empty_block","","56","","","","0","31",""
"","","","","","html-keyboard-response","179","749343","0.0-215.0-1.0","23","1","2023-10-31 20:14:33","a725c3012b74bf33a1020a98cb69c237","181.84.123.3","Mozilla/5.0 (Windows NT 10.0; Win64; x64) AppleWebKit/537.36 (KHTML, like Gecko) Chrome/118.0.0.0 Safari/537.36 Edg/118.0.2088.76","WebKit","Edge","118.0.2088.76","Windows","10.0","null","en-US,en;q=0.9","true","298","tones/440hz_short.mp3","k","","","empty_block","","56","","","","0","31",""
"","","","","","html-keyboard-response","180","752051","0.0-217.0","23","1","2023-10-31 20:14:33","a725c3012b74bf33a1020a98cb69c237","181.84.123.3","Mozilla/5.0 (Windows NT 10.0; Win64; x64) AppleWebKit/537.36 (KHTML, like Gecko) Chrome/118.0.0.0 Safari/537.36 Edg/118.0.2088.76","WebKit","Edge","118.0.2088.76","Windows","10.0","null","en-US,en;q=0.9","true","null","<div style=""font-size:100px;"">X</div>","null","","","fixation","","","","","","","",""
"","","","","","audio-keyboard-response","181","752205","0.0-218.0","23","1","2023-10-31 20:14:33","a725c3012b74bf33a1020a98cb69c237","181.84.123.3","Mozilla/5.0 (Windows NT 10.0; Win64; x64) AppleWebKit/537.36 (KHTML, like Gecko) Chrome/118.0.0.0 Safari/537.36 Edg/118.0.2088.76","WebKit","Edge","118.0.2088.76","Windows","10.0","null","en-US,en;q=0.9","true","null","tones/880hz_short.mp3","null","","","tone_number_task","0","31","tones/880hz_short.mp3","150","100","0","32",""
"","","","","","html-keyboard-response","182","753207","0.0-221.0-0.0","23","1","2023-10-31 20:14:33","a725c3012b74bf33a1020a98cb69c237","181.84.123.3","Mozilla/5.0 (Windows NT 10.0; Win64; x64) AppleWebKit/537.36 (KHTML, like Gecko) Chrome/118.0.0.0 Safari/537.36 Edg/118.0.2088.76","WebKit","Edge","118.0.2088.76","Windows","10.0","null","en-US,en;q=0.9","true","996","tones/880hz_short.mp3","s","","","empty_block","","31","","","","0","32",""
"","","","","","html-keyboard-response","183","753535","0.0-221.0-1.0","23","1","2023-10-31 20:14:33","a725c3012b74bf33a1020a98cb69c237","181.84.123.3","Mozilla/5.0 (Windows NT 10.0; Win64; x64) AppleWebKit/537.36 (KHTML, like Gecko) Chrome/118.0.0.0 Safari/537.36 Edg/118.0.2088.76","WebKit","Edge","118.0.2088.76","Windows","10.0","null","en-US,en;q=0.9","true","326","tones/880hz_short.mp3","j","","","empty_block","","31","","","","0","32",""
"","","","","","html-keyboard-response","184","756243","0.0-223.0","23","1","2023-10-31 20:14:33","a725c3012b74bf33a1020a98cb69c237","181.84.123.3","Mozilla/5.0 (Windows NT 10.0; Win64; x64) AppleWebKit/537.36 (KHTML, like Gecko) Chrome/118.0.0.0 Safari/537.36 Edg/118.0.2088.76","WebKit","Edge","118.0.2088.76","Windows","10.0","null","en-US,en;q=0.9","true","null","<div style=""font-size:100px;"">X</div>","null","","","fixation","","","","","","","",""
"","","","","","audio-keyboard-response","185","756499","0.0-224.0","23","1","2023-10-31 20:14:33","a725c3012b74bf33a1020a98cb69c237","181.84.123.3","Mozilla/5.0 (Windows NT 10.0; Win64; x64) AppleWebKit/537.36 (KHTML, like Gecko) Chrome/118.0.0.0 Safari/537.36 Edg/118.0.2088.76","WebKit","Edge","118.0.2088.76","Windows","10.0","null","en-US,en;q=0.9","true","null","tones/880hz_short.mp3","null","","","tone_number_task","102.5","59","tones/880hz_short.mp3","252.5","100","0","33",""
"","","","","","html-keyboard-response","186","756919","0.0-227.0-0.0","23","1","2023-10-31 20:14:33","a725c3012b74bf33a1020a98cb69c237","181.84.123.3","Mozilla/5.0 (Windows NT 10.0; Win64; x64) AppleWebKit/537.36 (KHTML, like Gecko) Chrome/118.0.0.0 Safari/537.36 Edg/118.0.2088.76","WebKit","Edge","118.0.2088.76","Windows","10.0","null","en-US,en;q=0.9","true","414","tones/880hz_short.mp3","s","","","empty_block","","59","","","","0","33",""
"","","","","","html-keyboard-response","187","757219","0.0-227.0-1.0","23","1","2023-10-31 20:14:33","a725c3012b74bf33a1020a98cb69c237","181.84.123.3","Mozilla/5.0 (Windows NT 10.0; Win64; x64) AppleWebKit/537.36 (KHTML, like Gecko) Chrome/118.0.0.0 Safari/537.36 Edg/118.0.2088.76","WebKit","Edge","118.0.2088.76","Windows","10.0","null","en-US,en;q=0.9","true","298","tones/880hz_short.mp3","k","","","empty_block","","59","","","","0","33",""
"","","","","","html-keyboard-response","188","759928","0.0-229.0","23","1","2023-10-31 20:14:33","a725c3012b74bf33a1020a98cb69c237","181.84.123.3","Mozilla/5.0 (Windows NT 10.0; Win64; x64) AppleWebKit/537.36 (KHTML, like Gecko) Chrome/118.0.0.0 Safari/537.36 Edg/118.0.2088.76","WebKit","Edge","118.0.2088.76","Windows","10.0","null","en-US,en;q=0.9","true","null","<div style=""font-size:100px;"">X</div>","null","","","fixation","","","","","","","",""
"","","","","","audio-keyboard-response","189","760583","0.0-230.0","23","1","2023-10-31 20:14:33","a725c3012b74bf33a1020a98cb69c237","181.84.123.3","Mozilla/5.0 (Windows NT 10.0; Win64; x64) AppleWebKit/537.36 (KHTML, like Gecko) Chrome/118.0.0.0 Safari/537.36 Edg/118.0.2088.76","WebKit","Edge","118.0.2088.76","Windows","10.0","null","en-US,en;q=0.9","true","648","tones/440hz_short.mp3","a","","","tone_number_task","1025","66","tones/440hz_short.mp3","1175","100","0","34",""
"","","","","","html-keyboard-response","190","760963","0.0-231.0-0.0","23","1","2023-10-31 20:14:33","a725c3012b74bf33a1020a98cb69c237","181.84.123.3","Mozilla/5.0 (Windows NT 10.0; Win64; x64) AppleWebKit/537.36 (KHTML, like Gecko) Chrome/118.0.0.0 Safari/537.36 Edg/118.0.2088.76","WebKit","Edge","118.0.2088.76","Windows","10.0","null","en-US,en;q=0.9","true","null","","null","","","delay_block","","","","","","0","34",""
"","","","","","html-keyboard-response","191","761119","0.0-231.0-1.0","23","1","2023-10-31 20:14:33","a725c3012b74bf33a1020a98cb69c237","181.84.123.3","Mozilla/5.0 (Windows NT 10.0; Win64; x64) AppleWebKit/537.36 (KHTML, like Gecko) Chrome/118.0.0.0 Safari/537.36 Edg/118.0.2088.76","WebKit","Edge","118.0.2088.76","Windows","10.0","null","en-US,en;q=0.9","true","null","<p id=""stimulus"" style=""font-size:100px;"">66</p>","null","","","tone_number_task_remaining_before_delay","","66","","527","100","0","34",""
"","","","","","html-keyboard-response","192","761551","0.0-234.0-0.0","23","1","2023-10-31 20:14:33","a725c3012b74bf33a1020a98cb69c237","181.84.123.3","Mozilla/5.0 (Windows NT 10.0; Win64; x64) AppleWebKit/537.36 (KHTML, like Gecko) Chrome/118.0.0.0 Safari/537.36 Edg/118.0.2088.76","WebKit","Edge","118.0.2088.76","Windows","10.0","null","en-US,en;q=0.9","true","429","<p id=""stimulus"" style=""font-size:100px;"">66</p>","k","","","empty_block","","66","","","","0","34",""
"","","","","","html-keyboard-response","193","764275","0.0-235.0","23","1","2023-10-31 20:14:33","a725c3012b74bf33a1020a98cb69c237","181.84.123.3","Mozilla/5.0 (Windows NT 10.0; Win64; x64) AppleWebKit/537.36 (KHTML, like Gecko) Chrome/118.0.0.0 Safari/537.36 Edg/118.0.2088.76","WebKit","Edge","118.0.2088.76","Windows","10.0","null","en-US,en;q=0.9","true","null","<div style=""font-size:100px;"">X</div>","null","","","fixation","","","","","","","",""
"","","","","","audio-keyboard-response","194","764530","0.0-236.0","23","1","2023-10-31 20:14:33","a725c3012b74bf33a1020a98cb69c237","181.84.123.3","Mozilla/5.0 (Windows NT 10.0; Win64; x64) AppleWebKit/537.36 (KHTML, like Gecko) Chrome/118.0.0.0 Safari/537.36 Edg/118.0.2088.76","WebKit","Edge","118.0.2088.76","Windows","10.0","null","en-US,en;q=0.9","true","null","tones/440hz_short.mp3","null","","","tone_number_task","102.5","33","tones/440hz_short.mp3","252.5","100","0","35",""
"","","","","","html-keyboard-response","195","765058","0.0-239.0-0.0","23","1","2023-10-31 20:14:33","a725c3012b74bf33a1020a98cb69c237","181.84.123.3","Mozilla/5.0 (Windows NT 10.0; Win64; x64) AppleWebKit/537.36 (KHTML, like Gecko) Chrome/118.0.0.0 Safari/537.36 Edg/118.0.2088.76","WebKit","Edge","118.0.2088.76","Windows","10.0","null","en-US,en;q=0.9","true","525","tones/440hz_short.mp3","a","","","empty_block","","33","","","","0","35",""
"","","","","","html-keyboard-response","196","765375","0.0-239.0-1.0","23","1","2023-10-31 20:14:33","a725c3012b74bf33a1020a98cb69c237","181.84.123.3","Mozilla/5.0 (Windows NT 10.0; Win64; x64) AppleWebKit/537.36 (KHTML, like Gecko) Chrome/118.0.0.0 Safari/537.36 Edg/118.0.2088.76","WebKit","Edge","118.0.2088.76","Windows","10.0","null","en-US,en;q=0.9","true","311","tones/440hz_short.mp3","j","","","empty_block","","33","","","","0","35",""
"","","","","","html-keyboard-response","197","768083","0.0-241.0","23","1","2023-10-31 20:14:33","a725c3012b74bf33a1020a98cb69c237","181.84.123.3","Mozilla/5.0 (Windows NT 10.0; Win64; x64) AppleWebKit/537.36 (KHTML, like Gecko) Chrome/118.0.0.0 Safari/537.36 Edg/118.0.2088.76","WebKit","Edge","118.0.2088.76","Windows","10.0","null","en-US,en;q=0.9","true","null","<div style=""font-size:100px;"">X</div>","null","","","fixation","","","","","","","",""
"","","","","","audio-keyboard-response","198","768654","0.0-242.0","23","1","2023-10-31 20:14:33","a725c3012b74bf33a1020a98cb69c237","181.84.123.3","Mozilla/5.0 (Windows NT 10.0; Win64; x64) AppleWebKit/537.36 (KHTML, like Gecko) Chrome/118.0.0.0 Safari/537.36 Edg/118.0.2088.76","WebKit","Edge","118.0.2088.76","Windows","10.0","null","en-US,en;q=0.9","true","568","tones/440hz_short.mp3","a","","","tone_number_task","992.5","69","tones/440hz_short.mp3","1142.5","100","0","36",""
"","","","","","html-keyboard-response","199","769082","0.0-243.0-0.0","23","1","2023-10-31 20:14:33","a725c3012b74bf33a1020a98cb69c237","181.84.123.3","Mozilla/5.0 (Windows NT 10.0; Win64; x64) AppleWebKit/537.36 (KHTML, like Gecko) Chrome/118.0.0.0 Safari/537.36 Edg/118.0.2088.76","WebKit","Edge","118.0.2088.76","Windows","10.0","null","en-US,en;q=0.9","true","null","","null","","","delay_block","","","","","","0","36",""
"","","","","","html-keyboard-response","200","769239","0.0-243.0-1.0","23","1","2023-10-31 20:14:33","a725c3012b74bf33a1020a98cb69c237","181.84.123.3","Mozilla/5.0 (Windows NT 10.0; Win64; x64) AppleWebKit/537.36 (KHTML, like Gecko) Chrome/118.0.0.0 Safari/537.36 Edg/118.0.2088.76","WebKit","Edge","118.0.2088.76","Windows","10.0","null","en-US,en;q=0.9","true","null","<p id=""stimulus"" style=""font-size:100px;"">69</p>","null","","","tone_number_task_remaining_before_delay","","69","","574.5","100","0","36",""
"","","","","","html-keyboard-response","201","769607","0.0-246.0-0.0","23","1","2023-10-31 20:14:33","a725c3012b74bf33a1020a98cb69c237","181.84.123.3","Mozilla/5.0 (Windows NT 10.0; Win64; x64) AppleWebKit/537.36 (KHTML, like Gecko) Chrome/118.0.0.0 Safari/537.36 Edg/118.0.2088.76","WebKit","Edge","118.0.2088.76","Windows","10.0","null","en-US,en;q=0.9","true","365","<p id=""stimulus"" style=""font-size:100px;"">69</p>","k","","","empty_block","","69","","","","0","36",""
"","","","","","html-keyboard-response","202","772315","0.0-247.0","23","1","2023-10-31 20:14:33","a725c3012b74bf33a1020a98cb69c237","181.84.123.3","Mozilla/5.0 (Windows NT 10.0; Win64; x64) AppleWebKit/537.36 (KHTML, like Gecko) Chrome/118.0.0.0 Safari/537.36 Edg/118.0.2088.76","WebKit","Edge","118.0.2088.76","Windows","10.0","null","en-US,en;q=0.9","true","null","<div style=""font-size:100px;"">X</div>","null","","","fixation","","","","","","","",""
"","","","","","audio-keyboard-response","203","772849","0.0-248.0","23","1","2023-10-31 20:14:33","a725c3012b74bf33a1020a98cb69c237","181.84.123.3","Mozilla/5.0 (Windows NT 10.0; Win64; x64) AppleWebKit/537.36 (KHTML, like Gecko) Chrome/118.0.0.0 Safari/537.36 Edg/118.0.2088.76","WebKit","Edge","118.0.2088.76","Windows","10.0","null","en-US,en;q=0.9","true","531","tones/880hz_short.mp3","s","","","tone_number_task","1025","36","tones/880hz_short.mp3","1175","100","0","37",""
"","","","","","html-keyboard-response","204","773346","0.0-249.0-0.0","23","1","2023-10-31 20:14:33","a725c3012b74bf33a1020a98cb69c237","181.84.123.3","Mozilla/5.0 (Windows NT 10.0; Win64; x64) AppleWebKit/537.36 (KHTML, like Gecko) Chrome/118.0.0.0 Safari/537.36 Edg/118.0.2088.76","WebKit","Edge","118.0.2088.76","Windows","10.0","null","en-US,en;q=0.9","true","null","","null","","","delay_block","","","","","","0","37",""
"","","","","","html-keyboard-response","205","773499","0.0-249.0-1.0","23","1","2023-10-31 20:14:33","a725c3012b74bf33a1020a98cb69c237","181.84.123.3","Mozilla/5.0 (Windows NT 10.0; Win64; x64) AppleWebKit/537.36 (KHTML, like Gecko) Chrome/118.0.0.0 Safari/537.36 Edg/118.0.2088.76","WebKit","Edge","118.0.2088.76","Windows","10.0","null","en-US,en;q=0.9","true","null","<p id=""stimulus"" style=""font-size:100px;"">36</p>","null","","","tone_number_task_remaining_before_delay","","36","","644","100","0","37",""
"","","","","","html-keyboard-response","206","774055","0.0-252.0-0.0","23","1","2023-10-31 20:14:33","a725c3012b74bf33a1020a98cb69c237","181.84.123.3","Mozilla/5.0 (Windows NT 10.0; Win64; x64) AppleWebKit/537.36 (KHTML, like Gecko) Chrome/118.0.0.0 Safari/537.36 Edg/118.0.2088.76","WebKit","Edge","118.0.2088.76","Windows","10.0","null","en-US,en;q=0.9","true","552","<p id=""stimulus"" style=""font-size:100px;"">36</p>","j","","","empty_block","","36","","","","0","37",""
"","","","","","html-keyboard-response","207","776763","0.0-253.0","23","1","2023-10-31 20:14:33","a725c3012b74bf33a1020a98cb69c237","181.84.123.3","Mozilla/5.0 (Windows NT 10.0; Win64; x64) AppleWebKit/537.36 (KHTML, like Gecko) Chrome/118.0.0.0 Safari/537.36 Edg/118.0.2088.76","WebKit","Edge","118.0.2088.76","Windows","10.0","null","en-US,en;q=0.9","true","null","<div style=""font-size:100px;"">X</div>","null","","","fixation","","","","","","","",""
"","","","","","audio-keyboard-response","208","776916","0.0-254.0","23","1","2023-10-31 20:14:33","a725c3012b74bf33a1020a98cb69c237","181.84.123.3","Mozilla/5.0 (Windows NT 10.0; Win64; x64) AppleWebKit/537.36 (KHTML, like Gecko) Chrome/118.0.0.0 Safari/537.36 Edg/118.0.2088.76","WebKit","Edge","118.0.2088.76","Windows","10.0","null","en-US,en;q=0.9","true","null","tones/440hz_short.mp3","null","","","tone_number_task","0","64","tones/440hz_short.mp3","150","100","0","38",""
"","","","","","html-keyboard-response","209","777546","0.0-257.0-0.0","23","1","2023-10-31 20:14:33","a725c3012b74bf33a1020a98cb69c237","181.84.123.3","Mozilla/5.0 (Windows NT 10.0; Win64; x64) AppleWebKit/537.36 (KHTML, like Gecko) Chrome/118.0.0.0 Safari/537.36 Edg/118.0.2088.76","WebKit","Edge","118.0.2088.76","Windows","10.0","null","en-US,en;q=0.9","true","626","tones/440hz_short.mp3","a","","","empty_block","","64","","","","0","38",""
"","","","","","html-keyboard-response","210","777927","0.0-257.0-1.0","23","1","2023-10-31 20:14:33","a725c3012b74bf33a1020a98cb69c237","181.84.123.3","Mozilla/5.0 (Windows NT 10.0; Win64; x64) AppleWebKit/537.36 (KHTML, like Gecko) Chrome/118.0.0.0 Safari/537.36 Edg/118.0.2088.76","WebKit","Edge","118.0.2088.76","Windows","10.0","null","en-US,en;q=0.9","true","369","tones/440hz_short.mp3","k","","","empty_block","","64","","","","0","38",""
"","","","","","html-keyboard-response","211","780637","0.0-259.0","23","1","2023-10-31 20:14:33","a725c3012b74bf33a1020a98cb69c237","181.84.123.3","Mozilla/5.0 (Windows NT 10.0; Win64; x64) AppleWebKit/537.36 (KHTML, like Gecko) Chrome/118.0.0.0 Safari/537.36 Edg/118.0.2088.76","WebKit","Edge","118.0.2088.76","Windows","10.0","null","en-US,en;q=0.9","true","null","<div style=""font-size:100px;"">X</div>","null","","","fixation","","","","","","","",""
