"success","timeout","failed_images","failed_audio","failed_video","trial_type","trial_index","time_elapsed","internal_node_id","run_id","condition","recorded_at","source_code_version","ip","user_agent","device","browser","browser_version","platform","platform_version","referer","accept_language","check","rt","stimulus","response","question_order","url","task","delay","number","audioFile","trial_duration","font_size","block","round","value"
"true","false","[]","[]","[]","preload","0","11","0.0-0.0","11","1","2023-10-27 17:03:59","a725c3012b74bf33a1020a98cb69c237","152.168.59.172","Mozilla/5.0 (Windows NT 10.0; Win64; x64) AppleWebKit/537.36 (KHTML, like Gecko) Chrome/118.0.0.0 Safari/537.36","WebKit","Chrome","118.0.0.0","Windows","10.0","null","es-ES,es;q=0.9,en;q=0.8","true","","","","","","","","","","","","","",""
"true","","","","","fullscreen","1","3146","0.0-1.0","11","1","2023-10-27 17:03:59","a725c3012b74bf33a1020a98cb69c237","152.168.59.172","Mozilla/5.0 (Windows NT 10.0; Win64; x64) AppleWebKit/537.36 (KHTML, like Gecko) Chrome/118.0.0.0 Safari/537.36","WebKit","Chrome","118.0.0.0","Windows","10.0","null","es-ES,es;q=0.9,en;q=0.8","true","","","","","","","","","","","","","",""
"","","","","","html-button-response","2","3858","0.0-2.0","11","1","2023-10-27 17:03:59","a725c3012b74bf33a1020a98cb69c237","152.168.59.172","Mozilla/5.0 (Windows NT 10.0; Win64; x64) AppleWebKit/537.36 (KHTML, like Gecko) Chrome/118.0.0.0 Safari/537.36","WebKit","Chrome","118.0.0.0","Windows","10.0","null","es-ES,es;q=0.9,en;q=0.8","true","711","<p style=""font-size:24px; color:red;"">Cosas importantes a tener en cuenta antes de comenzar el experimento:</p>","0","","","","","","","","","","",""
"","","","","","html-button-response","3","4768","0.0-3.0","11","1","2023-10-27 17:03:59","a725c3012b74bf33a1020a98cb69c237","152.168.59.172","Mozilla/5.0 (Windows NT 10.0; Win64; x64) AppleWebKit/537.36 (KHTML, like Gecko) Chrome/118.0.0.0 Safari/537.36","WebKit","Chrome","118.0.0.0","Windows","10.0","null","es-ES,es;q=0.9,en;q=0.8","true","910","<p style=""font-size:24px;"">El experimento dura aproximadamente 15 minutos.</p><p style=""font-size:24px;"">Por favor, no cierres la ventana del navegador durante el experimento.</p><p style=""font-size:24px;"">Si se completa de forma parcial, no se guardará ningún resultado.</p>","0","","","","","","","","","","",""
"","","","","","html-button-response","4","5379","0.0-4.0","11","1","2023-10-27 17:03:59","a725c3012b74bf33a1020a98cb69c237","152.168.59.172","Mozilla/5.0 (Windows NT 10.0; Win64; x64) AppleWebKit/537.36 (KHTML, like Gecko) Chrome/118.0.0.0 Safari/537.36","WebKit","Chrome","118.0.0.0","Windows","10.0","null","es-ES,es;q=0.9,en;q=0.8","true","611","<p style=""font-size:24px;"">El experimento contiene estímulos sonoros.</p>","0","","","","","","","","","","",""
"","","","","","audio-button-response","5","6879","0.0-5.0-0.0","11","1","2023-10-27 17:03:59","a725c3012b74bf33a1020a98cb69c237","152.168.59.172","Mozilla/5.0 (Windows NT 10.0; Win64; x64) AppleWebKit/537.36 (KHTML, like Gecko) Chrome/118.0.0.0 Safari/537.36","WebKit","Chrome","118.0.0.0","Windows","10.0","null","es-ES,es;q=0.9,en;q=0.8","true","1501","tones/440hz_short.mp3","1","","","","","","","","","","",""
"","","","","","audio-button-response","6","7399","0.0-6.0-0.0","11","1","2023-10-27 17:03:59","a725c3012b74bf33a1020a98cb69c237","152.168.59.172","Mozilla/5.0 (Windows NT 10.0; Win64; x64) AppleWebKit/537.36 (KHTML, like Gecko) Chrome/118.0.0.0 Safari/537.36","WebKit","Chrome","118.0.0.0","Windows","10.0","null","es-ES,es;q=0.9,en;q=0.8","true","520","tones/880hz_short.mp3","1","","","","","","","","","","",""
"","","","","","survey-html-form","7","8837","0.0-7.0","11","1","2023-10-27 17:03:59","a725c3012b74bf33a1020a98cb69c237","152.168.59.172","Mozilla/5.0 (Windows NT 10.0; Win64; x64) AppleWebKit/537.36 (KHTML, like Gecko) Chrome/118.0.0.0 Safari/537.36","WebKit","Chrome","118.0.0.0","Windows","10.0","null","es-ES,es;q=0.9,en;q=0.8","true","1435","","{""response"":""23""}","","","","","","","","","","",""
"","","","","","survey-multi-choice","8","11156","0.0-8.0","11","1","2023-10-27 17:03:59","a725c3012b74bf33a1020a98cb69c237","152.168.59.172","Mozilla/5.0 (Windows NT 10.0; Win64; x64) AppleWebKit/537.36 (KHTML, like Gecko) Chrome/118.0.0.0 Safari/537.36","WebKit","Chrome","118.0.0.0","Windows","10.0","null","es-ES,es;q=0.9,en;q=0.8","true","2318","","{""gender"":""Hombre"",""hand"":""Derecha""}","[0,1]","","","","","","","","","",""
"","","","","","external-html","9","90966","0.0-9.0","11","1","2023-10-27 17:03:59","a725c3012b74bf33a1020a98cb69c237","152.168.59.172","Mozilla/5.0 (Windows NT 10.0; Win64; x64) AppleWebKit/537.36 (KHTML, like Gecko) Chrome/118.0.0.0 Safari/537.36","WebKit","Chrome","118.0.0.0","Windows","10.0","null","es-ES,es;q=0.9,en;q=0.8","true","79552","","","","instructions/instructions.html","","","","","","","","",""
"","","","","","external-html","10","95479","0.0-10.0","11","1","2023-10-27 17:03:59","a725c3012b74bf33a1020a98cb69c237","152.168.59.172","Mozilla/5.0 (Windows NT 10.0; Win64; x64) AppleWebKit/537.36 (KHTML, like Gecko) Chrome/118.0.0.0 Safari/537.36","WebKit","Chrome","118.0.0.0","Windows","10.0","null","es-ES,es;q=0.9,en;q=0.8","true","4240","","","","instructions/animation.html","","","","","","","","",""
"","","","","","html-keyboard-response","11","98166","0.0-11.0-0.0","11","1","2023-10-27 17:03:59","a725c3012b74bf33a1020a98cb69c237","152.168.59.172","Mozilla/5.0 (Windows NT 10.0; Win64; x64) AppleWebKit/537.36 (KHTML, like Gecko) Chrome/118.0.0.0 Safari/537.36","WebKit","Chrome","118.0.0.0","Windows","10.0","null","es-ES,es;q=0.9,en;q=0.8","true","null","<div style=""font-size:100px;"">X</div>","null","","","fixation","","","","","","","",""
"","","","","","audio-keyboard-response","12","99326","0.0-11.0-1.0","11","1","2023-10-27 17:03:59","a725c3012b74bf33a1020a98cb69c237","152.168.59.172","Mozilla/5.0 (Windows NT 10.0; Win64; x64) AppleWebKit/537.36 (KHTML, like Gecko) Chrome/118.0.0.0 Safari/537.36","WebKit","Chrome","118.0.0.0","Windows","10.0","null","es-ES,es;q=0.9,en;q=0.8","true","null","tones/880hz_short.mp3","null","","","tone_number_task","1000","51","tones/880hz_short.mp3","1150","100","null","null",""
"","","","","","html-keyboard-response","13","99424","0.0-11.0-4.0-0.0","11","1","2023-10-27 17:03:59","a725c3012b74bf33a1020a98cb69c237","152.168.59.172","Mozilla/5.0 (Windows NT 10.0; Win64; x64) AppleWebKit/537.36 (KHTML, like Gecko) Chrome/118.0.0.0 Safari/537.36","WebKit","Chrome","118.0.0.0","Windows","10.0","null","es-ES,es;q=0.9,en;q=0.8","true","97","tones/880hz_short.mp3","s","","","empty_block","","51","","","","null","null",""
"","","","","","html-keyboard-response","14","100080","0.0-11.0-4.0-1.0","11","1","2023-10-27 17:03:59","a725c3012b74bf33a1020a98cb69c237","152.168.59.172","Mozilla/5.0 (Windows NT 10.0; Win64; x64) AppleWebKit/537.36 (KHTML, like Gecko) Chrome/118.0.0.0 Safari/537.36","WebKit","Chrome","118.0.0.0","Windows","10.0","null","es-ES,es;q=0.9,en;q=0.8","true","655","tones/880hz_short.mp3","k","","","empty_block","","51","","","","null","null",""
"","","","","","html-keyboard-response","15","102777","0.0-13.0-0.0","11","1","2023-10-27 17:03:59","a725c3012b74bf33a1020a98cb69c237","152.168.59.172","Mozilla/5.0 (Windows NT 10.0; Win64; x64) AppleWebKit/537.36 (KHTML, like Gecko) Chrome/118.0.0.0 Safari/537.36","WebKit","Chrome","118.0.0.0","Windows","10.0","null","es-ES,es;q=0.9,en;q=0.8","true","null","<div style=""font-size:100px;"">X</div>","null","","","fixation","","","","","","","",""
"","","","","","audio-keyboard-response","16","103429","0.0-13.0-1.0","11","1","2023-10-27 17:03:59","a725c3012b74bf33a1020a98cb69c237","152.168.59.172","Mozilla/5.0 (Windows NT 10.0; Win64; x64) AppleWebKit/537.36 (KHTML, like Gecko) Chrome/118.0.0.0 Safari/537.36","WebKit","Chrome","118.0.0.0","Windows","10.0","null","es-ES,es;q=0.9,en;q=0.8","true","null","tones/440hz_short.mp3","null","","","tone_number_task","500","25","tones/440hz_short.mp3","650","100","null","null",""
"","","","","","html-keyboard-response","17","103744","0.0-13.0-4.0-0.0","11","1","2023-10-27 17:03:59","a725c3012b74bf33a1020a98cb69c237","152.168.59.172","Mozilla/5.0 (Windows NT 10.0; Win64; x64) AppleWebKit/537.36 (KHTML, like Gecko) Chrome/118.0.0.0 Safari/537.36","WebKit","Chrome","118.0.0.0","Windows","10.0","null","es-ES,es;q=0.9,en;q=0.8","true","314","tones/440hz_short.mp3","a","","","empty_block","","25","","","","null","null",""
"","","","","","html-keyboard-response","18","103904","0.0-13.0-4.0-1.0","11","1","2023-10-27 17:03:59","a725c3012b74bf33a1020a98cb69c237","152.168.59.172","Mozilla/5.0 (Windows NT 10.0; Win64; x64) AppleWebKit/537.36 (KHTML, like Gecko) Chrome/118.0.0.0 Safari/537.36","WebKit","Chrome","118.0.0.0","Windows","10.0","null","es-ES,es;q=0.9,en;q=0.8","true","159","tones/440hz_short.mp3","j","","","empty_block","","25","","","","null","null",""
"","","","","","html-keyboard-response","19","106600","0.0-15.0-0.0","11","1","2023-10-27 17:03:59","a725c3012b74bf33a1020a98cb69c237","152.168.59.172","Mozilla/5.0 (Windows NT 10.0; Win64; x64) AppleWebKit/537.36 (KHTML, like Gecko) Chrome/118.0.0.0 Safari/537.36","WebKit","Chrome","118.0.0.0","Windows","10.0","null","es-ES,es;q=0.9,en;q=0.8","true","null","<div style=""font-size:100px;"">X</div>","null","","","fixation","","","","","","","",""
"","","","","","audio-keyboard-response","20","106910","0.0-15.0-1.0","11","1","2023-10-27 17:03:59","a725c3012b74bf33a1020a98cb69c237","152.168.59.172","Mozilla/5.0 (Windows NT 10.0; Win64; x64) AppleWebKit/537.36 (KHTML, like Gecko) Chrome/118.0.0.0 Safari/537.36","WebKit","Chrome","118.0.0.0","Windows","10.0","null","es-ES,es;q=0.9,en;q=0.8","true","null","tones/440hz_short.mp3","null","","","tone_number_task","150","66","tones/440hz_short.mp3","300","100","null","null",""
"","","","","","html-keyboard-response","21","107752","0.0-15.0-4.0-0.0","11","1","2023-10-27 17:03:59","a725c3012b74bf33a1020a98cb69c237","152.168.59.172","Mozilla/5.0 (Windows NT 10.0; Win64; x64) AppleWebKit/537.36 (KHTML, like Gecko) Chrome/118.0.0.0 Safari/537.36","WebKit","Chrome","118.0.0.0","Windows","10.0","null","es-ES,es;q=0.9,en;q=0.8","true","842","tones/440hz_short.mp3","a","","","empty_block","","66","","","","null","null",""
"","","","","","html-keyboard-response","22","107888","0.0-15.0-4.0-1.0","11","1","2023-10-27 17:03:59","a725c3012b74bf33a1020a98cb69c237","152.168.59.172","Mozilla/5.0 (Windows NT 10.0; Win64; x64) AppleWebKit/537.36 (KHTML, like Gecko) Chrome/118.0.0.0 Safari/537.36","WebKit","Chrome","118.0.0.0","Windows","10.0","null","es-ES,es;q=0.9,en;q=0.8","true","136","tones/440hz_short.mp3","k","","","empty_block","","66","","","","null","null",""
"","","","","","html-keyboard-response","23","110576","0.0-17.0-0.0","11","1","2023-10-27 17:03:59","a725c3012b74bf33a1020a98cb69c237","152.168.59.172","Mozilla/5.0 (Windows NT 10.0; Win64; x64) AppleWebKit/537.36 (KHTML, like Gecko) Chrome/118.0.0.0 Safari/537.36","WebKit","Chrome","118.0.0.0","Windows","10.0","null","es-ES,es;q=0.9,en;q=0.8","true","null","<div style=""font-size:100px;"">X</div>","null","","","fixation","","","","","","","",""
"","","","","","audio-keyboard-response","24","110792","0.0-17.0-1.0","11","1","2023-10-27 17:03:59","a725c3012b74bf33a1020a98cb69c237","152.168.59.172","Mozilla/5.0 (Windows NT 10.0; Win64; x64) AppleWebKit/537.36 (KHTML, like Gecko) Chrome/118.0.0.0 Safari/537.36","WebKit","Chrome","118.0.0.0","Windows","10.0","null","es-ES,es;q=0.9,en;q=0.8","true","null","tones/440hz_short.mp3","null","","","tone_number_task","50","42","tones/440hz_short.mp3","200","100","null","null",""
"","","","","","html-keyboard-response","25","111696","0.0-17.0-4.0-0.0","11","1","2023-10-27 17:03:59","a725c3012b74bf33a1020a98cb69c237","152.168.59.172","Mozilla/5.0 (Windows NT 10.0; Win64; x64) AppleWebKit/537.36 (KHTML, like Gecko) Chrome/118.0.0.0 Safari/537.36","WebKit","Chrome","118.0.0.0","Windows","10.0","null","es-ES,es;q=0.9,en;q=0.8","true","903","tones/440hz_short.mp3","a","","","empty_block","","42","","","","null","null",""
"","","","","","html-keyboard-response","26","111960","0.0-17.0-4.0-1.0","11","1","2023-10-27 17:03:59","a725c3012b74bf33a1020a98cb69c237","152.168.59.172","Mozilla/5.0 (Windows NT 10.0; Win64; x64) AppleWebKit/537.36 (KHTML, like Gecko) Chrome/118.0.0.0 Safari/537.36","WebKit","Chrome","118.0.0.0","Windows","10.0","null","es-ES,es;q=0.9,en;q=0.8","true","263","tones/440hz_short.mp3","j","","","empty_block","","42","","","","null","null",""
"","","","","","html-button-response","27","113506","0.0-19.0","11","1","2023-10-27 17:03:59","a725c3012b74bf33a1020a98cb69c237","152.168.59.172","Mozilla/5.0 (Windows NT 10.0; Win64; x64) AppleWebKit/537.36 (KHTML, like Gecko) Chrome/118.0.0.0 Safari/537.36","WebKit","Chrome","118.0.0.0","Windows","10.0","null","es-ES,es;q=0.9,en;q=0.8","true","1545","
  <h1> Muy bien </h1>
  <p> Ahora, en vez de ser presentados en dígitos, los números vendrán escritos en palabras. </p>
  <p> Por ejemplo, en vez de 44 te aparecerá ""cuarenta y cuatro"". </p>
  ","0","","","","","","","","","","",""
"","","","","","html-keyboard-response","28","116192","0.0-20.0-0.0","11","1","2023-10-27 17:03:59","a725c3012b74bf33a1020a98cb69c237","152.168.59.172","Mozilla/5.0 (Windows NT 10.0; Win64; x64) AppleWebKit/537.36 (KHTML, like Gecko) Chrome/118.0.0.0 Safari/537.36","WebKit","Chrome","118.0.0.0","Windows","10.0","null","es-ES,es;q=0.9,en;q=0.8","true","null","<div style=""font-size:100px;"">X</div>","null","","","fixation","","","","","","","",""
"","","","","","audio-keyboard-response","29","117343","0.0-20.0-1.0","11","1","2023-10-27 17:03:59","a725c3012b74bf33a1020a98cb69c237","152.168.59.172","Mozilla/5.0 (Windows NT 10.0; Win64; x64) AppleWebKit/537.36 (KHTML, like Gecko) Chrome/118.0.0.0 Safari/537.36","WebKit","Chrome","118.0.0.0","Windows","10.0","null","es-ES,es;q=0.9,en;q=0.8","true","null","tones/880hz_short.mp3","null","","","tone_number_task","1000","cuarenta y dos","tones/880hz_short.mp3","1150","60","null","null",""
"","","","","","html-keyboard-response","30","117752","0.0-20.0-4.0-0.0","11","1","2023-10-27 17:03:59","a725c3012b74bf33a1020a98cb69c237","152.168.59.172","Mozilla/5.0 (Windows NT 10.0; Win64; x64) AppleWebKit/537.36 (KHTML, like Gecko) Chrome/118.0.0.0 Safari/537.36","WebKit","Chrome","118.0.0.0","Windows","10.0","null","es-ES,es;q=0.9,en;q=0.8","true","408","tones/880hz_short.mp3","s","","","empty_block","","cuarenta y dos","","","","null","null",""
"","","","","","html-keyboard-response","31","118136","0.0-20.0-4.0-1.0","11","1","2023-10-27 17:03:59","a725c3012b74bf33a1020a98cb69c237","152.168.59.172","Mozilla/5.0 (Windows NT 10.0; Win64; x64) AppleWebKit/537.36 (KHTML, like Gecko) Chrome/118.0.0.0 Safari/537.36","WebKit","Chrome","118.0.0.0","Windows","10.0","null","es-ES,es;q=0.9,en;q=0.8","true","383","tones/880hz_short.mp3","j","","","empty_block","","cuarenta y dos","","","","null","null",""
"","","","","","html-button-response","32","121092","0.0-22.0","11","1","2023-10-27 17:03:59","a725c3012b74bf33a1020a98cb69c237","152.168.59.172","Mozilla/5.0 (Windows NT 10.0; Win64; x64) AppleWebKit/537.36 (KHTML, like Gecko) Chrome/118.0.0.0 Safari/537.36","WebKit","Chrome","118.0.0.0","Windows","10.0","null","es-ES,es;q=0.9,en;q=0.8","true","2955","
  <h1> Fin del Entrenamiento </h1>
  <p> ¡Felicitaciones, terminaste el entrenamiento! Ahora vamos a comenzar con el experimento. </p>
  <p> Es importante tener en cuenta que consta de cuatro bloques.</p>
  <p> Podés aprovechar los momentos entre bloques para tomar un breve descanso o tomar agua entre cada uno</p>
  <p> Recordá que tenés que responder lo más rápido que puedas, pero sin equivocarte. </p>
  ","0","","","","","","","","","","",""
"","","","","","external-html","33","123994","0.0-23.0","11","1","2023-10-27 17:03:59","a725c3012b74bf33a1020a98cb69c237","152.168.59.172","Mozilla/5.0 (Windows NT 10.0; Win64; x64) AppleWebKit/537.36 (KHTML, like Gecko) Chrome/118.0.0.0 Safari/537.36","WebKit","Chrome","118.0.0.0","Windows","10.0","null","es-ES,es;q=0.9,en;q=0.8","true","2612","","","","instructions/instructions_digits_first.html","","","","","","","","",""
"","","","","","call-function","34","123996","0.0-24.0","11","1","2023-10-27 17:03:59","a725c3012b74bf33a1020a98cb69c237","152.168.59.172","Mozilla/5.0 (Windows NT 10.0; Win64; x64) AppleWebKit/537.36 (KHTML, like Gecko) Chrome/118.0.0.0 Safari/537.36","WebKit","Chrome","118.0.0.0","Windows","10.0","null","es-ES,es;q=0.9,en;q=0.8","true","","","","","","","","","","","","","",""
"","","","","","html-keyboard-response","35","126682","0.0-25.0","11","1","2023-10-27 17:03:59","a725c3012b74bf33a1020a98cb69c237","152.168.59.172","Mozilla/5.0 (Windows NT 10.0; Win64; x64) AppleWebKit/537.36 (KHTML, like Gecko) Chrome/118.0.0.0 Safari/537.36","WebKit","Chrome","118.0.0.0","Windows","10.0","null","es-ES,es;q=0.9,en;q=0.8","true","null","<div style=""font-size:100px;"">X</div>","null","","","fixation","","","","","","","",""
"","","","","","audio-keyboard-response","36","126834","0.0-26.0","11","1","2023-10-27 17:03:59","a725c3012b74bf33a1020a98cb69c237","152.168.59.172","Mozilla/5.0 (Windows NT 10.0; Win64; x64) AppleWebKit/537.36 (KHTML, like Gecko) Chrome/118.0.0.0 Safari/537.36","WebKit","Chrome","118.0.0.0","Windows","10.0","null","es-ES,es;q=0.9,en;q=0.8","true","null","tones/880hz_short.mp3","null","","","tone_number_task","0","54","tones/880hz_short.mp3","150","100","0","0",""
"","","","","","html-keyboard-response","37","128035","0.0-29.0-0.0","11","1","2023-10-27 17:03:59","a725c3012b74bf33a1020a98cb69c237","152.168.59.172","Mozilla/5.0 (Windows NT 10.0; Win64; x64) AppleWebKit/537.36 (KHTML, like Gecko) Chrome/118.0.0.0 Safari/537.36","WebKit","Chrome","118.0.0.0","Windows","10.0","null","es-ES,es;q=0.9,en;q=0.8","true","null","tones/880hz_short.mp3","null","","","empty_block","","54","","","","0","0",""
"","","","","","html-keyboard-response","38","128336","0.0-29.0-1.0","11","1","2023-10-27 17:03:59","a725c3012b74bf33a1020a98cb69c237","152.168.59.172","Mozilla/5.0 (Windows NT 10.0; Win64; x64) AppleWebKit/537.36 (KHTML, like Gecko) Chrome/118.0.0.0 Safari/537.36","WebKit","Chrome","118.0.0.0","Windows","10.0","null","es-ES,es;q=0.9,en;q=0.8","true","300","tones/880hz_short.mp3","s","","","empty_block","","54","","","","0","0",""
"","","","","","html-keyboard-response","39","131022","0.0-31.0","11","1","2023-10-27 17:03:59","a725c3012b74bf33a1020a98cb69c237","152.168.59.172","Mozilla/5.0 (Windows NT 10.0; Win64; x64) AppleWebKit/537.36 (KHTML, like Gecko) Chrome/118.0.0.0 Safari/537.36","WebKit","Chrome","118.0.0.0","Windows","10.0","null","es-ES,es;q=0.9,en;q=0.8","true","null","<div style=""font-size:100px;"">X</div>","null","","","fixation","","","","","","","",""
"","","","","","audio-keyboard-response","40","131275","0.0-32.0","11","1","2023-10-27 17:03:59","a725c3012b74bf33a1020a98cb69c237","152.168.59.172","Mozilla/5.0 (Windows NT 10.0; Win64; x64) AppleWebKit/537.36 (KHTML, like Gecko) Chrome/118.0.0.0 Safari/537.36","WebKit","Chrome","118.0.0.0","Windows","10.0","null","es-ES,es;q=0.9,en;q=0.8","true","null","tones/440hz_short.mp3","null","","","tone_number_task","102.5","40","tones/440hz_short.mp3","252.5","100","0","1",""
"","","","","","html-keyboard-response","41","131776","0.0-35.0-0.0","11","1","2023-10-27 17:03:59","a725c3012b74bf33a1020a98cb69c237","152.168.59.172","Mozilla/5.0 (Windows NT 10.0; Win64; x64) AppleWebKit/537.36 (KHTML, like Gecko) Chrome/118.0.0.0 Safari/537.36","WebKit","Chrome","118.0.0.0","Windows","10.0","null","es-ES,es;q=0.9,en;q=0.8","true","500","tones/440hz_short.mp3","a","","","empty_block","","40","","","","0","1",""
"","","","","","html-keyboard-response","42","131920","0.0-35.0-1.0","11","1","2023-10-27 17:03:59","a725c3012b74bf33a1020a98cb69c237","152.168.59.172","Mozilla/5.0 (Windows NT 10.0; Win64; x64) AppleWebKit/537.36 (KHTML, like Gecko) Chrome/118.0.0.0 Safari/537.36","WebKit","Chrome","118.0.0.0","Windows","10.0","null","es-ES,es;q=0.9,en;q=0.8","true","143","tones/440hz_short.mp3","j","","","empty_block","","40","","","","0","1",""
"","","","","","html-keyboard-response","43","134606","0.0-37.0","11","1","2023-10-27 17:03:59","a725c3012b74bf33a1020a98cb69c237","152.168.59.172","Mozilla/5.0 (Windows NT 10.0; Win64; x64) AppleWebKit/537.36 (KHTML, like Gecko) Chrome/118.0.0.0 Safari/537.36","WebKit","Chrome","118.0.0.0","Windows","10.0","null","es-ES,es;q=0.9,en;q=0.8","true","null","<div style=""font-size:100px;"">X</div>","null","","","fixation","","","","","","","",""
"","","","","","audio-keyboard-response","44","134860","0.0-38.0","11","1","2023-10-27 17:03:59","a725c3012b74bf33a1020a98cb69c237","152.168.59.172","Mozilla/5.0 (Windows NT 10.0; Win64; x64) AppleWebKit/537.36 (KHTML, like Gecko) Chrome/118.0.0.0 Safari/537.36","WebKit","Chrome","118.0.0.0","Windows","10.0","null","es-ES,es;q=0.9,en;q=0.8","true","null","tones/440hz_short.mp3","null","","","tone_number_task","102.5","27","tones/440hz_short.mp3","252.5","100","0","2",""
"","","","","","html-keyboard-response","45","136061","0.0-41.0-0.0","11","1","2023-10-27 17:03:59","a725c3012b74bf33a1020a98cb69c237","152.168.59.172","Mozilla/5.0 (Windows NT 10.0; Win64; x64) AppleWebKit/537.36 (KHTML, like Gecko) Chrome/118.0.0.0 Safari/537.36","WebKit","Chrome","118.0.0.0","Windows","10.0","null","es-ES,es;q=0.9,en;q=0.8","true","null","tones/440hz_short.mp3","null","","","empty_block","","27","","","","0","2",""
"","","","","","html-keyboard-response","46","136968","0.0-41.0-1.0","11","1","2023-10-27 17:03:59","a725c3012b74bf33a1020a98cb69c237","152.168.59.172","Mozilla/5.0 (Windows NT 10.0; Win64; x64) AppleWebKit/537.36 (KHTML, like Gecko) Chrome/118.0.0.0 Safari/537.36","WebKit","Chrome","118.0.0.0","Windows","10.0","null","es-ES,es;q=0.9,en;q=0.8","true","906","tones/440hz_short.mp3","a","","","empty_block","","27","","","","0","2",""
"","","","","","html-keyboard-response","47","139654","0.0-43.0","11","1","2023-10-27 17:03:59","a725c3012b74bf33a1020a98cb69c237","152.168.59.172","Mozilla/5.0 (Windows NT 10.0; Win64; x64) AppleWebKit/537.36 (KHTML, like Gecko) Chrome/118.0.0.0 Safari/537.36","WebKit","Chrome","118.0.0.0","Windows","10.0","null","es-ES,es;q=0.9,en;q=0.8","true","null","<div style=""font-size:100px;"">X</div>","null","","","fixation","","","","","","","",""
"","","","","","audio-keyboard-response","48","139908","0.0-44.0","11","1","2023-10-27 17:03:59","a725c3012b74bf33a1020a98cb69c237","152.168.59.172","Mozilla/5.0 (Windows NT 10.0; Win64; x64) AppleWebKit/537.36 (KHTML, like Gecko) Chrome/118.0.0.0 Safari/537.36","WebKit","Chrome","118.0.0.0","Windows","10.0","null","es-ES,es;q=0.9,en;q=0.8","true","null","tones/440hz_short.mp3","null","","","tone_number_task","102.5","30","tones/440hz_short.mp3","252.5","100","0","3",""
"","","","","","html-keyboard-response","49","140536","0.0-47.0-0.0","11","1","2023-10-27 17:03:59","a725c3012b74bf33a1020a98cb69c237","152.168.59.172","Mozilla/5.0 (Windows NT 10.0; Win64; x64) AppleWebKit/537.36 (KHTML, like Gecko) Chrome/118.0.0.0 Safari/537.36","WebKit","Chrome","118.0.0.0","Windows","10.0","null","es-ES,es;q=0.9,en;q=0.8","true","628","tones/440hz_short.mp3","a","","","empty_block","","30","","","","0","3",""
"","","","","","html-keyboard-response","50","140640","0.0-47.0-1.0","11","1","2023-10-27 17:03:59","a725c3012b74bf33a1020a98cb69c237","152.168.59.172","Mozilla/5.0 (Windows NT 10.0; Win64; x64) AppleWebKit/537.36 (KHTML, like Gecko) Chrome/118.0.0.0 Safari/537.36","WebKit","Chrome","118.0.0.0","Windows","10.0","null","es-ES,es;q=0.9,en;q=0.8","true","103","tones/440hz_short.mp3","j","","","empty_block","","30","","","","0","3",""
"","","","","","html-keyboard-response","51","143326","0.0-49.0","11","1","2023-10-27 17:03:59","a725c3012b74bf33a1020a98cb69c237","152.168.59.172","Mozilla/5.0 (Windows NT 10.0; Win64; x64) AppleWebKit/537.36 (KHTML, like Gecko) Chrome/118.0.0.0 Safari/537.36","WebKit","Chrome","118.0.0.0","Windows","10.0","null","es-ES,es;q=0.9,en;q=0.8","true","null","<div style=""font-size:100px;"">X</div>","null","","","fixation","","","","","","","",""
"","","","","","audio-keyboard-response","52","143580","0.0-50.0","11","1","2023-10-27 17:03:59","a725c3012b74bf33a1020a98cb69c237","152.168.59.172","Mozilla/5.0 (Windows NT 10.0; Win64; x64) AppleWebKit/537.36 (KHTML, like Gecko) Chrome/118.0.0.0 Safari/537.36","WebKit","Chrome","118.0.0.0","Windows","10.0","null","es-ES,es;q=0.9,en;q=0.8","true","null","tones/440hz_short.mp3","null","","","tone_number_task","102.5","67","tones/440hz_short.mp3","252.5","100","0","4",""
"","","","","","html-keyboard-response","53","144745","0.0-53.0-0.0","11","1","2023-10-27 17:03:59","a725c3012b74bf33a1020a98cb69c237","152.168.59.172","Mozilla/5.0 (Windows NT 10.0; Win64; x64) AppleWebKit/537.36 (KHTML, like Gecko) Chrome/118.0.0.0 Safari/537.36","WebKit","Chrome","118.0.0.0","Windows","10.0","null","es-ES,es;q=0.9,en;q=0.8","true","1163","tones/440hz_short.mp3","a","","","empty_block","","67","","","","0","4",""
"","","","","","html-keyboard-response","54","144888","0.0-53.0-1.0","11","1","2023-10-27 17:03:59","a725c3012b74bf33a1020a98cb69c237","152.168.59.172","Mozilla/5.0 (Windows NT 10.0; Win64; x64) AppleWebKit/537.36 (KHTML, like Gecko) Chrome/118.0.0.0 Safari/537.36","WebKit","Chrome","118.0.0.0","Windows","10.0","null","es-ES,es;q=0.9,en;q=0.8","true","143","tones/440hz_short.mp3","k","","","empty_block","","67","","","","0","4",""
"","","","","","html-keyboard-response","55","147574","0.0-55.0","11","1","2023-10-27 17:03:59","a725c3012b74bf33a1020a98cb69c237","152.168.59.172","Mozilla/5.0 (Windows NT 10.0; Win64; x64) AppleWebKit/537.36 (KHTML, like Gecko) Chrome/118.0.0.0 Safari/537.36","WebKit","Chrome","118.0.0.0","Windows","10.0","null","es-ES,es;q=0.9,en;q=0.8","true","null","<div style=""font-size:100px;"">X</div>","null","","","fixation","","","","","","","",""
"","","","","","audio-keyboard-response","56","148717","0.0-56.0","11","1","2023-10-27 17:03:59","a725c3012b74bf33a1020a98cb69c237","152.168.59.172","Mozilla/5.0 (Windows NT 10.0; Win64; x64) AppleWebKit/537.36 (KHTML, like Gecko) Chrome/118.0.0.0 Safari/537.36","WebKit","Chrome","118.0.0.0","Windows","10.0","null","es-ES,es;q=0.9,en;q=0.8","true","null","tones/880hz_short.mp3","null","","","tone_number_task","992.5","21","tones/880hz_short.mp3","1142.5","100","0","5",""
"","","","","","html-keyboard-response","57","149329","0.0-59.0-0.0","11","1","2023-10-27 17:03:59","a725c3012b74bf33a1020a98cb69c237","152.168.59.172","Mozilla/5.0 (Windows NT 10.0; Win64; x64) AppleWebKit/537.36 (KHTML, like Gecko) Chrome/118.0.0.0 Safari/537.36","WebKit","Chrome","118.0.0.0","Windows","10.0","null","es-ES,es;q=0.9,en;q=0.8","true","610","tones/880hz_short.mp3","s","","","empty_block","","21","","","","0","5",""
"","","","","","html-keyboard-response","58","149441","0.0-59.0-1.0","11","1","2023-10-27 17:03:59","a725c3012b74bf33a1020a98cb69c237","152.168.59.172","Mozilla/5.0 (Windows NT 10.0; Win64; x64) AppleWebKit/537.36 (KHTML, like Gecko) Chrome/118.0.0.0 Safari/537.36","WebKit","Chrome","118.0.0.0","Windows","10.0","null","es-ES,es;q=0.9,en;q=0.8","true","111","tones/880hz_short.mp3","j","","","empty_block","","21","","","","0","5",""
"","","","","","html-keyboard-response","59","152126","0.0-61.0","11","1","2023-10-27 17:03:59","a725c3012b74bf33a1020a98cb69c237","152.168.59.172","Mozilla/5.0 (Windows NT 10.0; Win64; x64) AppleWebKit/537.36 (KHTML, like Gecko) Chrome/118.0.0.0 Safari/537.36","WebKit","Chrome","118.0.0.0","Windows","10.0","null","es-ES,es;q=0.9,en;q=0.8","true","null","<div style=""font-size:100px;"">X</div>","null","","","fixation","","","","","","","",""
"","","","","","audio-keyboard-response","60","152291","0.0-62.0","11","1","2023-10-27 17:03:59","a725c3012b74bf33a1020a98cb69c237","152.168.59.172","Mozilla/5.0 (Windows NT 10.0; Win64; x64) AppleWebKit/537.36 (KHTML, like Gecko) Chrome/118.0.0.0 Safari/537.36","WebKit","Chrome","118.0.0.0","Windows","10.0","null","es-ES,es;q=0.9,en;q=0.8","true","null","tones/880hz_short.mp3","null","","","tone_number_task","0","68","tones/880hz_short.mp3","150","100","0","6",""
"","","","","","html-keyboard-response","61","153493","0.0-65.0-0.0","11","1","2023-10-27 17:03:59","a725c3012b74bf33a1020a98cb69c237","152.168.59.172","Mozilla/5.0 (Windows NT 10.0; Win64; x64) AppleWebKit/537.36 (KHTML, like Gecko) Chrome/118.0.0.0 Safari/537.36","WebKit","Chrome","118.0.0.0","Windows","10.0","null","es-ES,es;q=0.9,en;q=0.8","true","null","tones/880hz_short.mp3","null","","","empty_block","","68","","","","0","6",""
"","","","","","html-keyboard-response","62","154353","0.0-65.0-1.0","11","1","2023-10-27 17:03:59","a725c3012b74bf33a1020a98cb69c237","152.168.59.172","Mozilla/5.0 (Windows NT 10.0; Win64; x64) AppleWebKit/537.36 (KHTML, like Gecko) Chrome/118.0.0.0 Safari/537.36","WebKit","Chrome","118.0.0.0","Windows","10.0","null","es-ES,es;q=0.9,en;q=0.8","true","858","tones/880hz_short.mp3","s","","","empty_block","","68","","","","0","6",""
"","","","","","html-keyboard-response","63","157038","0.0-67.0","11","1","2023-10-27 17:03:59","a725c3012b74bf33a1020a98cb69c237","152.168.59.172","Mozilla/5.0 (Windows NT 10.0; Win64; x64) AppleWebKit/537.36 (KHTML, like Gecko) Chrome/118.0.0.0 Safari/537.36","WebKit","Chrome","118.0.0.0","Windows","10.0","null","es-ES,es;q=0.9,en;q=0.8","true","null","<div style=""font-size:100px;"">X</div>","null","","","fixation","","","","","","","",""
"","","","","","audio-keyboard-response","64","157199","0.0-68.0","11","1","2023-10-27 17:03:59","a725c3012b74bf33a1020a98cb69c237","152.168.59.172","Mozilla/5.0 (Windows NT 10.0; Win64; x64) AppleWebKit/537.36 (KHTML, like Gecko) Chrome/118.0.0.0 Safari/537.36","WebKit","Chrome","118.0.0.0","Windows","10.0","null","es-ES,es;q=0.9,en;q=0.8","true","null","tones/880hz_short.mp3","null","","","tone_number_task","0","60","tones/880hz_short.mp3","150","100","0","7",""
"","","","","","html-keyboard-response","65","157913","0.0-71.0-0.0","11","1","2023-10-27 17:03:59","a725c3012b74bf33a1020a98cb69c237","152.168.59.172","Mozilla/5.0 (Windows NT 10.0; Win64; x64) AppleWebKit/537.36 (KHTML, like Gecko) Chrome/118.0.0.0 Safari/537.36","WebKit","Chrome","118.0.0.0","Windows","10.0","null","es-ES,es;q=0.9,en;q=0.8","true","713","tones/880hz_short.mp3","s","","","empty_block","","60","","","","0","7",""
"","","","","","html-keyboard-response","66","158665","0.0-71.0-1.0","11","1","2023-10-27 17:03:59","a725c3012b74bf33a1020a98cb69c237","152.168.59.172","Mozilla/5.0 (Windows NT 10.0; Win64; x64) AppleWebKit/537.36 (KHTML, like Gecko) Chrome/118.0.0.0 Safari/537.36","WebKit","Chrome","118.0.0.0","Windows","10.0","null","es-ES,es;q=0.9,en;q=0.8","true","751","tones/880hz_short.mp3","k","","","empty_block","","60","","","","0","7",""
"","","","","","html-keyboard-response","67","161351","0.0-73.0","11","1","2023-10-27 17:03:59","a725c3012b74bf33a1020a98cb69c237","152.168.59.172","Mozilla/5.0 (Windows NT 10.0; Win64; x64) AppleWebKit/537.36 (KHTML, like Gecko) Chrome/118.0.0.0 Safari/537.36","WebKit","Chrome","118.0.0.0","Windows","10.0","null","es-ES,es;q=0.9,en;q=0.8","true","null","<div style=""font-size:100px;"">X</div>","null","","","fixation","","","","","","","",""
"","","","","","audio-keyboard-response","68","161605","0.0-74.0","11","1","2023-10-27 17:03:59","a725c3012b74bf33a1020a98cb69c237","152.168.59.172","Mozilla/5.0 (Windows NT 10.0; Win64; x64) AppleWebKit/537.36 (KHTML, like Gecko) Chrome/118.0.0.0 Safari/537.36","WebKit","Chrome","118.0.0.0","Windows","10.0","null","es-ES,es;q=0.9,en;q=0.8","true","null","tones/880hz_short.mp3","null","","","tone_number_task","102.5","29","tones/880hz_short.mp3","252.5","100","0","8",""
"","","","","","html-keyboard-response","69","162792","0.0-77.0-0.0","11","1","2023-10-27 17:03:59","a725c3012b74bf33a1020a98cb69c237","152.168.59.172","Mozilla/5.0 (Windows NT 10.0; Win64; x64) AppleWebKit/537.36 (KHTML, like Gecko) Chrome/118.0.0.0 Safari/537.36","WebKit","Chrome","118.0.0.0","Windows","10.0","null","es-ES,es;q=0.9,en;q=0.8","true","1187","tones/880hz_short.mp3","s","","","empty_block","","29","","","","0","8",""
"","","","","","html-keyboard-response","70","163017","0.0-77.0-1.0","11","1","2023-10-27 17:03:59","a725c3012b74bf33a1020a98cb69c237","152.168.59.172","Mozilla/5.0 (Windows NT 10.0; Win64; x64) AppleWebKit/537.36 (KHTML, like Gecko) Chrome/118.0.0.0 Safari/537.36","WebKit","Chrome","118.0.0.0","Windows","10.0","null","es-ES,es;q=0.9,en;q=0.8","true","223","tones/880hz_short.mp3","j","","","empty_block","","29","","","","0","8",""
"","","","","","html-keyboard-response","71","165702","0.0-79.0","11","1","2023-10-27 17:03:59","a725c3012b74bf33a1020a98cb69c237","152.168.59.172","Mozilla/5.0 (Windows NT 10.0; Win64; x64) AppleWebKit/537.36 (KHTML, like Gecko) Chrome/118.0.0.0 Safari/537.36","WebKit","Chrome","118.0.0.0","Windows","10.0","null","es-ES,es;q=0.9,en;q=0.8","true","null","<div style=""font-size:100px;"">X</div>","null","","","fixation","","","","","","","",""
"","","","","","audio-keyboard-response","72","166847","0.0-80.0","11","1","2023-10-27 17:03:59","a725c3012b74bf33a1020a98cb69c237","152.168.59.172","Mozilla/5.0 (Windows NT 10.0; Win64; x64) AppleWebKit/537.36 (KHTML, like Gecko) Chrome/118.0.0.0 Safari/537.36","WebKit","Chrome","118.0.0.0","Windows","10.0","null","es-ES,es;q=0.9,en;q=0.8","true","null","tones/880hz_short.mp3","null","","","tone_number_task","992.5","55","tones/880hz_short.mp3","1142.5","100","0","9",""
"","","","","","html-keyboard-response","73","168049","0.0-83.0-0.0","11","1","2023-10-27 17:03:59","a725c3012b74bf33a1020a98cb69c237","152.168.59.172","Mozilla/5.0 (Windows NT 10.0; Win64; x64) AppleWebKit/537.36 (KHTML, like Gecko) Chrome/118.0.0.0 Safari/537.36","WebKit","Chrome","118.0.0.0","Windows","10.0","null","es-ES,es;q=0.9,en;q=0.8","true","null","tones/880hz_short.mp3","null","","","empty_block","","55","","","","0","9",""
"","","","","","html-keyboard-response","74","168465","0.0-83.0-1.0","11","1","2023-10-27 17:03:59","a725c3012b74bf33a1020a98cb69c237","152.168.59.172","Mozilla/5.0 (Windows NT 10.0; Win64; x64) AppleWebKit/537.36 (KHTML, like Gecko) Chrome/118.0.0.0 Safari/537.36","WebKit","Chrome","118.0.0.0","Windows","10.0","null","es-ES,es;q=0.9,en;q=0.8","true","414","tones/880hz_short.mp3","s","","","empty_block","","55","","","","0","9",""
"","","","","","html-keyboard-response","75","171150","0.0-85.0","11","1","2023-10-27 17:03:59","a725c3012b74bf33a1020a98cb69c237","152.168.59.172","Mozilla/5.0 (Windows NT 10.0; Win64; x64) AppleWebKit/537.36 (KHTML, like Gecko) Chrome/118.0.0.0 Safari/537.36","WebKit","Chrome","118.0.0.0","Windows","10.0","null","es-ES,es;q=0.9,en;q=0.8","true","null","<div style=""font-size:100px;"">X</div>","null","","","fixation","","","","","","","",""
"","","","","","audio-keyboard-response","76","171303","0.0-86.0","11","1","2023-10-27 17:03:59","a725c3012b74bf33a1020a98cb69c237","152.168.59.172","Mozilla/5.0 (Windows NT 10.0; Win64; x64) AppleWebKit/537.36 (KHTML, like Gecko) Chrome/118.0.0.0 Safari/537.36","WebKit","Chrome","118.0.0.0","Windows","10.0","null","es-ES,es;q=0.9,en;q=0.8","true","null","tones/440hz_short.mp3","null","","","tone_number_task","0","67","tones/440hz_short.mp3","150","100","0","10",""
"","","","","","html-keyboard-response","77","172377","0.0-89.0-0.0","11","1","2023-10-27 17:03:59","a725c3012b74bf33a1020a98cb69c237","152.168.59.172","Mozilla/5.0 (Windows NT 10.0; Win64; x64) AppleWebKit/537.36 (KHTML, like Gecko) Chrome/118.0.0.0 Safari/537.36","WebKit","Chrome","118.0.0.0","Windows","10.0","null","es-ES,es;q=0.9,en;q=0.8","true","1073","tones/440hz_short.mp3","a","","","empty_block","","67","","","","0","10",""
"","","","","","html-keyboard-response","78","172625","0.0-89.0-1.0","11","1","2023-10-27 17:03:59","a725c3012b74bf33a1020a98cb69c237","152.168.59.172","Mozilla/5.0 (Windows NT 10.0; Win64; x64) AppleWebKit/537.36 (KHTML, like Gecko) Chrome/118.0.0.0 Safari/537.36","WebKit","Chrome","118.0.0.0","Windows","10.0","null","es-ES,es;q=0.9,en;q=0.8","true","247","tones/440hz_short.mp3","k","","","empty_block","","67","","","","0","10",""
"","","","","","html-keyboard-response","79","175312","0.0-91.0","11","1","2023-10-27 17:03:59","a725c3012b74bf33a1020a98cb69c237","152.168.59.172","Mozilla/5.0 (Windows NT 10.0; Win64; x64) AppleWebKit/537.36 (KHTML, like Gecko) Chrome/118.0.0.0 Safari/537.36","WebKit","Chrome","118.0.0.0","Windows","10.0","null","es-ES,es;q=0.9,en;q=0.8","true","null","<div style=""font-size:100px;"">X</div>","null","","","fixation","","","","","","","",""
"","","","","","audio-keyboard-response","80","175465","0.0-92.0","11","1","2023-10-27 17:03:59","a725c3012b74bf33a1020a98cb69c237","152.168.59.172","Mozilla/5.0 (Windows NT 10.0; Win64; x64) AppleWebKit/537.36 (KHTML, like Gecko) Chrome/118.0.0.0 Safari/537.36","WebKit","Chrome","118.0.0.0","Windows","10.0","null","es-ES,es;q=0.9,en;q=0.8","true","null","tones/440hz_short.mp3","null","","","tone_number_task","0","47","tones/440hz_short.mp3","150","100","0","11",""
"","","","","","html-keyboard-response","81","176668","0.0-95.0-0.0","11","1","2023-10-27 17:03:59","a725c3012b74bf33a1020a98cb69c237","152.168.59.172","Mozilla/5.0 (Windows NT 10.0; Win64; x64) AppleWebKit/537.36 (KHTML, like Gecko) Chrome/118.0.0.0 Safari/537.36","WebKit","Chrome","118.0.0.0","Windows","10.0","null","es-ES,es;q=0.9,en;q=0.8","true","null","tones/440hz_short.mp3","null","","","empty_block","","47","","","","0","11",""
"","","","","","html-keyboard-response","82","177577","0.0-95.0-1.0","11","1","2023-10-27 17:03:59","a725c3012b74bf33a1020a98cb69c237","152.168.59.172","Mozilla/5.0 (Windows NT 10.0; Win64; x64) AppleWebKit/537.36 (KHTML, like Gecko) Chrome/118.0.0.0 Safari/537.36","WebKit","Chrome","118.0.0.0","Windows","10.0","null","es-ES,es;q=0.9,en;q=0.8","true","908","tones/440hz_short.mp3","a","","","empty_block","","47","","","","0","11",""
"","","","","","html-keyboard-response","83","180262","0.0-97.0","11","1","2023-10-27 17:03:59","a725c3012b74bf33a1020a98cb69c237","152.168.59.172","Mozilla/5.0 (Windows NT 10.0; Win64; x64) AppleWebKit/537.36 (KHTML, like Gecko) Chrome/118.0.0.0 Safari/537.36","WebKit","Chrome","118.0.0.0","Windows","10.0","null","es-ES,es;q=0.9,en;q=0.8","true","null","<div style=""font-size:100px;"">X</div>","null","","","fixation","","","","","","","",""
"","","","","","audio-keyboard-response","84","180415","0.0-98.0","11","1","2023-10-27 17:03:59","a725c3012b74bf33a1020a98cb69c237","152.168.59.172","Mozilla/5.0 (Windows NT 10.0; Win64; x64) AppleWebKit/537.36 (KHTML, like Gecko) Chrome/118.0.0.0 Safari/537.36","WebKit","Chrome","118.0.0.0","Windows","10.0","null","es-ES,es;q=0.9,en;q=0.8","true","null","tones/440hz_short.mp3","null","","","tone_number_task","0","40","tones/440hz_short.mp3","150","100","0","12",""
"","","","","","html-keyboard-response","85","181618","0.0-101.0-0.0","11","1","2023-10-27 17:03:59","a725c3012b74bf33a1020a98cb69c237","152.168.59.172","Mozilla/5.0 (Windows NT 10.0; Win64; x64) AppleWebKit/537.36 (KHTML, like Gecko) Chrome/118.0.0.0 Safari/537.36","WebKit","Chrome","118.0.0.0","Windows","10.0","null","es-ES,es;q=0.9,en;q=0.8","true","null","tones/440hz_short.mp3","null","","","empty_block","","40","","","","0","12",""
"","","","","","html-keyboard-response","86","181785","0.0-101.0-1.0","11","1","2023-10-27 17:03:59","a725c3012b74bf33a1020a98cb69c237","152.168.59.172","Mozilla/5.0 (Windows NT 10.0; Win64; x64) AppleWebKit/537.36 (KHTML, like Gecko) Chrome/118.0.0.0 Safari/537.36","WebKit","Chrome","118.0.0.0","Windows","10.0","null","es-ES,es;q=0.9,en;q=0.8","true","166","tones/440hz_short.mp3","a","","","empty_block","","40","","","","0","12",""
"","","","","","html-keyboard-response","87","184471","0.0-103.0","11","1","2023-10-27 17:03:59","a725c3012b74bf33a1020a98cb69c237","152.168.59.172","Mozilla/5.0 (Windows NT 10.0; Win64; x64) AppleWebKit/537.36 (KHTML, like Gecko) Chrome/118.0.0.0 Safari/537.36","WebKit","Chrome","118.0.0.0","Windows","10.0","null","es-ES,es;q=0.9,en;q=0.8","true","null","<div style=""font-size:100px;"">X</div>","null","","","fixation","","","","","","","",""
"","","","","","audio-keyboard-response","88","184622","0.0-104.0","11","1","2023-10-27 17:03:59","a725c3012b74bf33a1020a98cb69c237","152.168.59.172","Mozilla/5.0 (Windows NT 10.0; Win64; x64) AppleWebKit/537.36 (KHTML, like Gecko) Chrome/118.0.0.0 Safari/537.36","WebKit","Chrome","118.0.0.0","Windows","10.0","null","es-ES,es;q=0.9,en;q=0.8","true","null","tones/880hz_short.mp3","null","","","tone_number_task","0","24","tones/880hz_short.mp3","150","100","0","13",""
"","","","","","html-keyboard-response","89","185825","0.0-107.0-0.0","11","1","2023-10-27 17:03:59","a725c3012b74bf33a1020a98cb69c237","152.168.59.172","Mozilla/5.0 (Windows NT 10.0; Win64; x64) AppleWebKit/537.36 (KHTML, like Gecko) Chrome/118.0.0.0 Safari/537.36","WebKit","Chrome","118.0.0.0","Windows","10.0","null","es-ES,es;q=0.9,en;q=0.8","true","null","tones/880hz_short.mp3","null","","","empty_block","","24","","","","0","13",""
"","","","","","html-keyboard-response","90","187027","0.0-107.0-1.0","11","1","2023-10-27 17:03:59","a725c3012b74bf33a1020a98cb69c237","152.168.59.172","Mozilla/5.0 (Windows NT 10.0; Win64; x64) AppleWebKit/537.36 (KHTML, like Gecko) Chrome/118.0.0.0 Safari/537.36","WebKit","Chrome","118.0.0.0","Windows","10.0","null","es-ES,es;q=0.9,en;q=0.8","true","null","tones/880hz_short.mp3","null","","","empty_block","","24","","","","0","13",""
"","","","","","html-keyboard-response","91","189713","0.0-109.0","11","1","2023-10-27 17:03:59","a725c3012b74bf33a1020a98cb69c237","152.168.59.172","Mozilla/5.0 (Windows NT 10.0; Win64; x64) AppleWebKit/537.36 (KHTML, like Gecko) Chrome/118.0.0.0 Safari/537.36","WebKit","Chrome","118.0.0.0","Windows","10.0","null","es-ES,es;q=0.9,en;q=0.8","true","null","<div style=""font-size:100px;"">X</div>","null","","","fixation","","","","","","","",""
"","","","","","audio-keyboard-response","92","190857","0.0-110.0","11","1","2023-10-27 17:03:59","a725c3012b74bf33a1020a98cb69c237","152.168.59.172","Mozilla/5.0 (Windows NT 10.0; Win64; x64) AppleWebKit/537.36 (KHTML, like Gecko) Chrome/118.0.0.0 Safari/537.36","WebKit","Chrome","118.0.0.0","Windows","10.0","null","es-ES,es;q=0.9,en;q=0.8","true","null","tones/440hz_short.mp3","null","","","tone_number_task","992.5","22","tones/440hz_short.mp3","1142.5","100","0","14",""
"","","","","","html-keyboard-response","93","192001","0.0-113.0-0.0","11","1","2023-10-27 17:03:59","a725c3012b74bf33a1020a98cb69c237","152.168.59.172","Mozilla/5.0 (Windows NT 10.0; Win64; x64) AppleWebKit/537.36 (KHTML, like Gecko) Chrome/118.0.0.0 Safari/537.36","WebKit","Chrome","118.0.0.0","Windows","10.0","null","es-ES,es;q=0.9,en;q=0.8","true","1142","tones/440hz_short.mp3","a","","","empty_block","","22","","","","0","14",""
"","","","","","html-keyboard-response","94","192233","0.0-113.0-1.0","11","1","2023-10-27 17:03:59","a725c3012b74bf33a1020a98cb69c237","152.168.59.172","Mozilla/5.0 (Windows NT 10.0; Win64; x64) AppleWebKit/537.36 (KHTML, like Gecko) Chrome/118.0.0.0 Safari/537.36","WebKit","Chrome","118.0.0.0","Windows","10.0","null","es-ES,es;q=0.9,en;q=0.8","true","230","tones/440hz_short.mp3","j","","","empty_block","","22","","","","0","14",""
"","","","","","html-keyboard-response","95","194918","0.0-115.0","11","1","2023-10-27 17:03:59","a725c3012b74bf33a1020a98cb69c237","152.168.59.172","Mozilla/5.0 (Windows NT 10.0; Win64; x64) AppleWebKit/537.36 (KHTML, like Gecko) Chrome/118.0.0.0 Safari/537.36","WebKit","Chrome","118.0.0.0","Windows","10.0","null","es-ES,es;q=0.9,en;q=0.8","true","null","<div style=""font-size:100px;"">X</div>","null","","","fixation","","","","","","","",""
"","","","","","audio-keyboard-response","96","195173","0.0-116.0","11","1","2023-10-27 17:03:59","a725c3012b74bf33a1020a98cb69c237","152.168.59.172","Mozilla/5.0 (Windows NT 10.0; Win64; x64) AppleWebKit/537.36 (KHTML, like Gecko) Chrome/118.0.0.0 Safari/537.36","WebKit","Chrome","118.0.0.0","Windows","10.0","null","es-ES,es;q=0.9,en;q=0.8","true","null","tones/880hz_short.mp3","null","","","tone_number_task","102.5","60","tones/880hz_short.mp3","252.5","100","0","15",""
"","","","","","html-keyboard-response","97","196384","0.0-119.0-0.0","11","1","2023-10-27 17:03:59","a725c3012b74bf33a1020a98cb69c237","152.168.59.172","Mozilla/5.0 (Windows NT 10.0; Win64; x64) AppleWebKit/537.36 (KHTML, like Gecko) Chrome/118.0.0.0 Safari/537.36","WebKit","Chrome","118.0.0.0","Windows","10.0","null","es-ES,es;q=0.9,en;q=0.8","true","null","tones/880hz_short.mp3","null","","","empty_block","","60","","","","0","15",""
"","","","","","html-keyboard-response","98","197041","0.0-119.0-1.0","11","1","2023-10-27 17:03:59","a725c3012b74bf33a1020a98cb69c237","152.168.59.172","Mozilla/5.0 (Windows NT 10.0; Win64; x64) AppleWebKit/537.36 (KHTML, like Gecko) Chrome/118.0.0.0 Safari/537.36","WebKit","Chrome","118.0.0.0","Windows","10.0","null","es-ES,es;q=0.9,en;q=0.8","true","655","tones/880hz_short.mp3","s","","","empty_block","","60","","","","0","15",""
"","","","","","html-keyboard-response","99","199727","0.0-121.0","11","1","2023-10-27 17:03:59","a725c3012b74bf33a1020a98cb69c237","152.168.59.172","Mozilla/5.0 (Windows NT 10.0; Win64; x64) AppleWebKit/537.36 (KHTML, like Gecko) Chrome/118.0.0.0 Safari/537.36","WebKit","Chrome","118.0.0.0","Windows","10.0","null","es-ES,es;q=0.9,en;q=0.8","true","null","<div style=""font-size:100px;"">X</div>","null","","","fixation","","","","","","","",""
"","","","","","audio-keyboard-response","100","199880","0.0-122.0","11","1","2023-10-27 17:03:59","a725c3012b74bf33a1020a98cb69c237","152.168.59.172","Mozilla/5.0 (Windows NT 10.0; Win64; x64) AppleWebKit/537.36 (KHTML, like Gecko) Chrome/118.0.0.0 Safari/537.36","WebKit","Chrome","118.0.0.0","Windows","10.0","null","es-ES,es;q=0.9,en;q=0.8","true","null","tones/440hz_short.mp3","null","","","tone_number_task","0","44","tones/440hz_short.mp3","150","100","0","16",""
"","","","","","html-keyboard-response","101","200825","0.0-125.0-0.0","11","1","2023-10-27 17:03:59","a725c3012b74bf33a1020a98cb69c237","152.168.59.172","Mozilla/5.0 (Windows NT 10.0; Win64; x64) AppleWebKit/537.36 (KHTML, like Gecko) Chrome/118.0.0.0 Safari/537.36","WebKit","Chrome","118.0.0.0","Windows","10.0","null","es-ES,es;q=0.9,en;q=0.8","true","943","tones/440hz_short.mp3","a","","","empty_block","","44","","","","0","16",""
"","","","","","html-keyboard-response","102","200993","0.0-125.0-1.0","11","1","2023-10-27 17:03:59","a725c3012b74bf33a1020a98cb69c237","152.168.59.172","Mozilla/5.0 (Windows NT 10.0; Win64; x64) AppleWebKit/537.36 (KHTML, like Gecko) Chrome/118.0.0.0 Safari/537.36","WebKit","Chrome","118.0.0.0","Windows","10.0","null","es-ES,es;q=0.9,en;q=0.8","true","167","tones/440hz_short.mp3","j","","","empty_block","","44","","","","0","16",""
"","","","","","html-keyboard-response","103","203679","0.0-127.0","11","1","2023-10-27 17:03:59","a725c3012b74bf33a1020a98cb69c237","152.168.59.172","Mozilla/5.0 (Windows NT 10.0; Win64; x64) AppleWebKit/537.36 (KHTML, like Gecko) Chrome/118.0.0.0 Safari/537.36","WebKit","Chrome","118.0.0.0","Windows","10.0","null","es-ES,es;q=0.9,en;q=0.8","true","null","<div style=""font-size:100px;"">X</div>","null","","","fixation","","","","","","","",""
"","","","","","audio-keyboard-response","104","204856","0.0-128.0","11","1","2023-10-27 17:03:59","a725c3012b74bf33a1020a98cb69c237","152.168.59.172","Mozilla/5.0 (Windows NT 10.0; Win64; x64) AppleWebKit/537.36 (KHTML, like Gecko) Chrome/118.0.0.0 Safari/537.36","WebKit","Chrome","118.0.0.0","Windows","10.0","null","es-ES,es;q=0.9,en;q=0.8","true","null","tones/880hz_short.mp3","null","","","tone_number_task","1025","39","tones/880hz_short.mp3","1175","100","0","17",""
"","","","","","html-keyboard-response","105","204897","0.0-131.0-0.0","11","1","2023-10-27 17:03:59","a725c3012b74bf33a1020a98cb69c237","152.168.59.172","Mozilla/5.0 (Windows NT 10.0; Win64; x64) AppleWebKit/537.36 (KHTML, like Gecko) Chrome/118.0.0.0 Safari/537.36","WebKit","Chrome","118.0.0.0","Windows","10.0","null","es-ES,es;q=0.9,en;q=0.8","true","39","tones/880hz_short.mp3","s","","","empty_block","","39","","","","0","17",""
"","","","","","html-keyboard-response","106","205633","0.0-131.0-1.0","11","1","2023-10-27 17:03:59","a725c3012b74bf33a1020a98cb69c237","152.168.59.172","Mozilla/5.0 (Windows NT 10.0; Win64; x64) AppleWebKit/537.36 (KHTML, like Gecko) Chrome/118.0.0.0 Safari/537.36","WebKit","Chrome","118.0.0.0","Windows","10.0","null","es-ES,es;q=0.9,en;q=0.8","true","734","tones/880hz_short.mp3","j","","","empty_block","","39","","","","0","17",""
"","","","","","html-keyboard-response","107","208319","0.0-133.0","11","1","2023-10-27 17:03:59","a725c3012b74bf33a1020a98cb69c237","152.168.59.172","Mozilla/5.0 (Windows NT 10.0; Win64; x64) AppleWebKit/537.36 (KHTML, like Gecko) Chrome/118.0.0.0 Safari/537.36","WebKit","Chrome","118.0.0.0","Windows","10.0","null","es-ES,es;q=0.9,en;q=0.8","true","null","<div style=""font-size:100px;"">X</div>","null","","","fixation","","","","","","","",""
"","","","","","audio-keyboard-response","108","208573","0.0-134.0","11","1","2023-10-27 17:03:59","a725c3012b74bf33a1020a98cb69c237","152.168.59.172","Mozilla/5.0 (Windows NT 10.0; Win64; x64) AppleWebKit/537.36 (KHTML, like Gecko) Chrome/118.0.0.0 Safari/537.36","WebKit","Chrome","118.0.0.0","Windows","10.0","null","es-ES,es;q=0.9,en;q=0.8","true","null","tones/880hz_short.mp3","null","","","tone_number_task","102.5","30","tones/880hz_short.mp3","252.5","100","0","18",""
"","","","","","html-keyboard-response","109","209601","0.0-137.0-0.0","11","1","2023-10-27 17:03:59","a725c3012b74bf33a1020a98cb69c237","152.168.59.172","Mozilla/5.0 (Windows NT 10.0; Win64; x64) AppleWebKit/537.36 (KHTML, like Gecko) Chrome/118.0.0.0 Safari/537.36","WebKit","Chrome","118.0.0.0","Windows","10.0","null","es-ES,es;q=0.9,en;q=0.8","true","1026","tones/880hz_short.mp3","s","","","empty_block","","30","","","","0","18",""
"","","","","","html-keyboard-response","110","210225","0.0-137.0-1.0","11","1","2023-10-27 17:03:59","a725c3012b74bf33a1020a98cb69c237","152.168.59.172","Mozilla/5.0 (Windows NT 10.0; Win64; x64) AppleWebKit/537.36 (KHTML, like Gecko) Chrome/118.0.0.0 Safari/537.36","WebKit","Chrome","118.0.0.0","Windows","10.0","null","es-ES,es;q=0.9,en;q=0.8","true","623","tones/880hz_short.mp3","j","","","empty_block","","30","","","","0","18",""
"","","","","","html-keyboard-response","111","212911","0.0-139.0","11","1","2023-10-27 17:03:59","a725c3012b74bf33a1020a98cb69c237","152.168.59.172","Mozilla/5.0 (Windows NT 10.0; Win64; x64) AppleWebKit/537.36 (KHTML, like Gecko) Chrome/118.0.0.0 Safari/537.36","WebKit","Chrome","118.0.0.0","Windows","10.0","null","es-ES,es;q=0.9,en;q=0.8","true","null","<div style=""font-size:100px;"">X</div>","null","","","fixation","","","","","","","",""
"","","","","","audio-keyboard-response","112","214056","0.0-140.0","11","1","2023-10-27 17:03:59","a725c3012b74bf33a1020a98cb69c237","152.168.59.172","Mozilla/5.0 (Windows NT 10.0; Win64; x64) AppleWebKit/537.36 (KHTML, like Gecko) Chrome/118.0.0.0 Safari/537.36","WebKit","Chrome","118.0.0.0","Windows","10.0","null","es-ES,es;q=0.9,en;q=0.8","true","null","tones/880hz_short.mp3","null","","","tone_number_task","992.5","68","tones/880hz_short.mp3","1142.5","100","0","19",""
"","","","","","html-keyboard-response","113","215257","0.0-143.0-0.0","11","1","2023-10-27 17:03:59","a725c3012b74bf33a1020a98cb69c237","152.168.59.172","Mozilla/5.0 (Windows NT 10.0; Win64; x64) AppleWebKit/537.36 (KHTML, like Gecko) Chrome/118.0.0.0 Safari/537.36","WebKit","Chrome","118.0.0.0","Windows","10.0","null","es-ES,es;q=0.9,en;q=0.8","true","null","tones/880hz_short.mp3","null","","","empty_block","","68","","","","0","19",""
"","","","","","html-keyboard-response","114","215657","0.0-143.0-1.0","11","1","2023-10-27 17:03:59","a725c3012b74bf33a1020a98cb69c237","152.168.59.172","Mozilla/5.0 (Windows NT 10.0; Win64; x64) AppleWebKit/537.36 (KHTML, like Gecko) Chrome/118.0.0.0 Safari/537.36","WebKit","Chrome","118.0.0.0","Windows","10.0","null","es-ES,es;q=0.9,en;q=0.8","true","397","tones/880hz_short.mp3","s","","","empty_block","","68","","","","0","19",""
"","","","","","html-keyboard-response","115","218343","0.0-145.0","11","1","2023-10-27 17:03:59","a725c3012b74bf33a1020a98cb69c237","152.168.59.172","Mozilla/5.0 (Windows NT 10.0; Win64; x64) AppleWebKit/537.36 (KHTML, like Gecko) Chrome/118.0.0.0 Safari/537.36","WebKit","Chrome","118.0.0.0","Windows","10.0","null","es-ES,es;q=0.9,en;q=0.8","true","null","<div style=""font-size:100px;"">X</div>","null","","","fixation","","","","","","","",""
"","","","","","audio-keyboard-response","116","219521","0.0-146.0","11","1","2023-10-27 17:03:59","a725c3012b74bf33a1020a98cb69c237","152.168.59.172","Mozilla/5.0 (Windows NT 10.0; Win64; x64) AppleWebKit/537.36 (KHTML, like Gecko) Chrome/118.0.0.0 Safari/537.36","WebKit","Chrome","118.0.0.0","Windows","10.0","null","es-ES,es;q=0.9,en;q=0.8","true","null","tones/440hz_short.mp3","null","","","tone_number_task","1025","46","tones/440hz_short.mp3","1175","100","0","20",""
"","","","","","html-keyboard-response","117","220724","0.0-149.0-0.0","11","1","2023-10-27 17:03:59","a725c3012b74bf33a1020a98cb69c237","152.168.59.172","Mozilla/5.0 (Windows NT 10.0; Win64; x64) AppleWebKit/537.36 (KHTML, like Gecko) Chrome/118.0.0.0 Safari/537.36","WebKit","Chrome","118.0.0.0","Windows","10.0","null","es-ES,es;q=0.9,en;q=0.8","true","null","tones/440hz_short.mp3","null","","","empty_block","","46","","","","0","20",""
"","","","","","html-keyboard-response","118","221040","0.0-149.0-1.0","11","1","2023-10-27 17:03:59","a725c3012b74bf33a1020a98cb69c237","152.168.59.172","Mozilla/5.0 (Windows NT 10.0; Win64; x64) AppleWebKit/537.36 (KHTML, like Gecko) Chrome/118.0.0.0 Safari/537.36","WebKit","Chrome","118.0.0.0","Windows","10.0","null","es-ES,es;q=0.9,en;q=0.8","true","315","tones/440hz_short.mp3","a","","","empty_block","","46","","","","0","20",""
"","","","","","html-keyboard-response","119","223727","0.0-151.0","11","1","2023-10-27 17:03:59","a725c3012b74bf33a1020a98cb69c237","152.168.59.172","Mozilla/5.0 (Windows NT 10.0; Win64; x64) AppleWebKit/537.36 (KHTML, like Gecko) Chrome/118.0.0.0 Safari/537.36","WebKit","Chrome","118.0.0.0","Windows","10.0","null","es-ES,es;q=0.9,en;q=0.8","true","null","<div style=""font-size:100px;"">X</div>","null","","","fixation","","","","","","","",""
"","","","","","audio-keyboard-response","120","223983","0.0-152.0","11","1","2023-10-27 17:03:59","a725c3012b74bf33a1020a98cb69c237","152.168.59.172","Mozilla/5.0 (Windows NT 10.0; Win64; x64) AppleWebKit/537.36 (KHTML, like Gecko) Chrome/118.0.0.0 Safari/537.36","WebKit","Chrome","118.0.0.0","Windows","10.0","null","es-ES,es;q=0.9,en;q=0.8","true","null","tones/440hz_short.mp3","null","","","tone_number_task","102.5","53","tones/440hz_short.mp3","252.5","100","0","21",""
"","","","","","html-keyboard-response","121","225186","0.0-155.0-0.0","11","1","2023-10-27 17:03:59","a725c3012b74bf33a1020a98cb69c237","152.168.59.172","Mozilla/5.0 (Windows NT 10.0; Win64; x64) AppleWebKit/537.36 (KHTML, like Gecko) Chrome/118.0.0.0 Safari/537.36","WebKit","Chrome","118.0.0.0","Windows","10.0","null","es-ES,es;q=0.9,en;q=0.8","true","null","tones/440hz_short.mp3","null","","","empty_block","","53","","","","0","21",""
"","","","","","html-keyboard-response","122","226305","0.0-155.0-1.0","11","1","2023-10-27 17:03:59","a725c3012b74bf33a1020a98cb69c237","152.168.59.172","Mozilla/5.0 (Windows NT 10.0; Win64; x64) AppleWebKit/537.36 (KHTML, like Gecko) Chrome/118.0.0.0 Safari/537.36","WebKit","Chrome","118.0.0.0","Windows","10.0","null","es-ES,es;q=0.9,en;q=0.8","true","1116","tones/440hz_short.mp3","a","","","empty_block","","53","","","","0","21",""
"","","","","","html-keyboard-response","123","228991","0.0-157.0","11","1","2023-10-27 17:03:59","a725c3012b74bf33a1020a98cb69c237","152.168.59.172","Mozilla/5.0 (Windows NT 10.0; Win64; x64) AppleWebKit/537.36 (KHTML, like Gecko) Chrome/118.0.0.0 Safari/537.36","WebKit","Chrome","118.0.0.0","Windows","10.0","null","es-ES,es;q=0.9,en;q=0.8","true","null","<div style=""font-size:100px;"">X</div>","null","","","fixation","","","","","","","",""
"","","","","","audio-keyboard-response","124","230136","0.0-158.0","11","1","2023-10-27 17:03:59","a725c3012b74bf33a1020a98cb69c237","152.168.59.172","Mozilla/5.0 (Windows NT 10.0; Win64; x64) AppleWebKit/537.36 (KHTML, like Gecko) Chrome/118.0.0.0 Safari/537.36","WebKit","Chrome","118.0.0.0","Windows","10.0","null","es-ES,es;q=0.9,en;q=0.8","true","null","tones/440hz_short.mp3","null","","","tone_number_task","992.5","42","tones/440hz_short.mp3","1142.5","100","0","22",""
"","","","","","html-keyboard-response","125","230689","0.0-161.0-0.0","11","1","2023-10-27 17:03:59","a725c3012b74bf33a1020a98cb69c237","152.168.59.172","Mozilla/5.0 (Windows NT 10.0; Win64; x64) AppleWebKit/537.36 (KHTML, like Gecko) Chrome/118.0.0.0 Safari/537.36","WebKit","Chrome","118.0.0.0","Windows","10.0","null","es-ES,es;q=0.9,en;q=0.8","true","551","tones/440hz_short.mp3","a","","","empty_block","","42","","","","0","22",""
"","","","","","html-keyboard-response","126","230817","0.0-161.0-1.0","11","1","2023-10-27 17:03:59","a725c3012b74bf33a1020a98cb69c237","152.168.59.172","Mozilla/5.0 (Windows NT 10.0; Win64; x64) AppleWebKit/537.36 (KHTML, like Gecko) Chrome/118.0.0.0 Safari/537.36","WebKit","Chrome","118.0.0.0","Windows","10.0","null","es-ES,es;q=0.9,en;q=0.8","true","126","tones/440hz_short.mp3","j","","","empty_block","","42","","","","0","22",""
"","","","","","html-keyboard-response","127","233503","0.0-163.0","11","1","2023-10-27 17:03:59","a725c3012b74bf33a1020a98cb69c237","152.168.59.172","Mozilla/5.0 (Windows NT 10.0; Win64; x64) AppleWebKit/537.36 (KHTML, like Gecko) Chrome/118.0.0.0 Safari/537.36","WebKit","Chrome","118.0.0.0","Windows","10.0","null","es-ES,es;q=0.9,en;q=0.8","true","null","<div style=""font-size:100px;"">X</div>","null","","","fixation","","","","","","","",""
"","","","","","audio-keyboard-response","128","234681","0.0-164.0","11","1","2023-10-27 17:03:59","a725c3012b74bf33a1020a98cb69c237","152.168.59.172","Mozilla/5.0 (Windows NT 10.0; Win64; x64) AppleWebKit/537.36 (KHTML, like Gecko) Chrome/118.0.0.0 Safari/537.36","WebKit","Chrome","118.0.0.0","Windows","10.0","null","es-ES,es;q=0.9,en;q=0.8","true","null","tones/440hz_short.mp3","null","","","tone_number_task","1025","47","tones/440hz_short.mp3","1175","100","0","23",""
"","","","","","html-keyboard-response","129","235360","0.0-167.0-0.0","11","1","2023-10-27 17:03:59","a725c3012b74bf33a1020a98cb69c237","152.168.59.172","Mozilla/5.0 (Windows NT 10.0; Win64; x64) AppleWebKit/537.36 (KHTML, like Gecko) Chrome/118.0.0.0 Safari/537.36","WebKit","Chrome","118.0.0.0","Windows","10.0","null","es-ES,es;q=0.9,en;q=0.8","true","677","tones/440hz_short.mp3","a","","","empty_block","","47","","","","0","23",""
"","","","","","html-keyboard-response","130","235553","0.0-167.0-1.0","11","1","2023-10-27 17:03:59","a725c3012b74bf33a1020a98cb69c237","152.168.59.172","Mozilla/5.0 (Windows NT 10.0; Win64; x64) AppleWebKit/537.36 (KHTML, like Gecko) Chrome/118.0.0.0 Safari/537.36","WebKit","Chrome","118.0.0.0","Windows","10.0","null","es-ES,es;q=0.9,en;q=0.8","true","190","tones/440hz_short.mp3","k","","","empty_block","","47","","","","0","23",""
"","","","","","html-keyboard-response","131","238239","0.0-169.0","11","1","2023-10-27 17:03:59","a725c3012b74bf33a1020a98cb69c237","152.168.59.172","Mozilla/5.0 (Windows NT 10.0; Win64; x64) AppleWebKit/537.36 (KHTML, like Gecko) Chrome/118.0.0.0 Safari/537.36","WebKit","Chrome","118.0.0.0","Windows","10.0","null","es-ES,es;q=0.9,en;q=0.8","true","null","<div style=""font-size:100px;"">X</div>","null","","","fixation","","","","","","","",""
"","","","","","audio-keyboard-response","132","238392","0.0-170.0","11","1","2023-10-27 17:03:59","a725c3012b74bf33a1020a98cb69c237","152.168.59.172","Mozilla/5.0 (Windows NT 10.0; Win64; x64) AppleWebKit/537.36 (KHTML, like Gecko) Chrome/118.0.0.0 Safari/537.36","WebKit","Chrome","118.0.0.0","Windows","10.0","null","es-ES,es;q=0.9,en;q=0.8","true","null","tones/880hz_short.mp3","null","","","tone_number_task","0","54","tones/880hz_short.mp3","150","100","0","24",""
"","","","","","html-keyboard-response","133","239441","0.0-173.0-0.0","11","1","2023-10-27 17:03:59","a725c3012b74bf33a1020a98cb69c237","152.168.59.172","Mozilla/5.0 (Windows NT 10.0; Win64; x64) AppleWebKit/537.36 (KHTML, like Gecko) Chrome/118.0.0.0 Safari/537.36","WebKit","Chrome","118.0.0.0","Windows","10.0","null","es-ES,es;q=0.9,en;q=0.8","true","1047","tones/880hz_short.mp3","s","","","empty_block","","54","","","","0","24",""
"","","","","","html-keyboard-response","134","240009","0.0-173.0-1.0","11","1","2023-10-27 17:03:59","a725c3012b74bf33a1020a98cb69c237","152.168.59.172","Mozilla/5.0 (Windows NT 10.0; Win64; x64) AppleWebKit/537.36 (KHTML, like Gecko) Chrome/118.0.0.0 Safari/537.36","WebKit","Chrome","118.0.0.0","Windows","10.0","null","es-ES,es;q=0.9,en;q=0.8","true","566","tones/880hz_short.mp3","k","","","empty_block","","54","","","","0","24",""
"","","","","","html-keyboard-response","135","242695","0.0-175.0","11","1","2023-10-27 17:03:59","a725c3012b74bf33a1020a98cb69c237","152.168.59.172","Mozilla/5.0 (Windows NT 10.0; Win64; x64) AppleWebKit/537.36 (KHTML, like Gecko) Chrome/118.0.0.0 Safari/537.36","WebKit","Chrome","118.0.0.0","Windows","10.0","null","es-ES,es;q=0.9,en;q=0.8","true","null","<div style=""font-size:100px;"">X</div>","null","","","fixation","","","","","","","",""
"","","","","","audio-keyboard-response","136","243873","0.0-176.0","11","1","2023-10-27 17:03:59","a725c3012b74bf33a1020a98cb69c237","152.168.59.172","Mozilla/5.0 (Windows NT 10.0; Win64; x64) AppleWebKit/537.36 (KHTML, like Gecko) Chrome/118.0.0.0 Safari/537.36","WebKit","Chrome","118.0.0.0","Windows","10.0","null","es-ES,es;q=0.9,en;q=0.8","true","null","tones/440hz_short.mp3","null","","","tone_number_task","1025","29","tones/440hz_short.mp3","1175","100","0","25",""
"","","","","","html-keyboard-response","137","244529","0.0-179.0-0.0","11","1","2023-10-27 17:03:59","a725c3012b74bf33a1020a98cb69c237","152.168.59.172","Mozilla/5.0 (Windows NT 10.0; Win64; x64) AppleWebKit/537.36 (KHTML, like Gecko) Chrome/118.0.0.0 Safari/537.36","WebKit","Chrome","118.0.0.0","Windows","10.0","null","es-ES,es;q=0.9,en;q=0.8","true","654","tones/440hz_short.mp3","a","","","empty_block","","29","","","","0","25",""
"","","","","","html-keyboard-response","138","244769","0.0-179.0-1.0","11","1","2023-10-27 17:03:59","a725c3012b74bf33a1020a98cb69c237","152.168.59.172","Mozilla/5.0 (Windows NT 10.0; Win64; x64) AppleWebKit/537.36 (KHTML, like Gecko) Chrome/118.0.0.0 Safari/537.36","WebKit","Chrome","118.0.0.0","Windows","10.0","null","es-ES,es;q=0.9,en;q=0.8","true","238","tones/440hz_short.mp3","j","","","empty_block","","29","","","","0","25",""
"","","","","","html-keyboard-response","139","247455","0.0-181.0","11","1","2023-10-27 17:03:59","a725c3012b74bf33a1020a98cb69c237","152.168.59.172","Mozilla/5.0 (Windows NT 10.0; Win64; x64) AppleWebKit/537.36 (KHTML, like Gecko) Chrome/118.0.0.0 Safari/537.36","WebKit","Chrome","118.0.0.0","Windows","10.0","null","es-ES,es;q=0.9,en;q=0.8","true","null","<div style=""font-size:100px;"">X</div>","null","","","fixation","","","","","","","",""
"","","","","","audio-keyboard-response","140","247710","0.0-182.0","11","1","2023-10-27 17:03:59","a725c3012b74bf33a1020a98cb69c237","152.168.59.172","Mozilla/5.0 (Windows NT 10.0; Win64; x64) AppleWebKit/537.36 (KHTML, like Gecko) Chrome/118.0.0.0 Safari/537.36","WebKit","Chrome","118.0.0.0","Windows","10.0","null","es-ES,es;q=0.9,en;q=0.8","true","null","tones/440hz_short.mp3","null","","","tone_number_task","102.5","50","tones/440hz_short.mp3","252.5","100","0","26",""
"","","","","","html-keyboard-response","141","248417","0.0-185.0-0.0","11","1","2023-10-27 17:03:59","a725c3012b74bf33a1020a98cb69c237","152.168.59.172","Mozilla/5.0 (Windows NT 10.0; Win64; x64) AppleWebKit/537.36 (KHTML, like Gecko) Chrome/118.0.0.0 Safari/537.36","WebKit","Chrome","118.0.0.0","Windows","10.0","null","es-ES,es;q=0.9,en;q=0.8","true","704","tones/440hz_short.mp3","a","","","empty_block","","50","","","","0","26",""
"","","","","","html-keyboard-response","142","248561","0.0-185.0-1.0","11","1","2023-10-27 17:03:59","a725c3012b74bf33a1020a98cb69c237","152.168.59.172","Mozilla/5.0 (Windows NT 10.0; Win64; x64) AppleWebKit/537.36 (KHTML, like Gecko) Chrome/118.0.0.0 Safari/537.36","WebKit","Chrome","118.0.0.0","Windows","10.0","null","es-ES,es;q=0.9,en;q=0.8","true","142","tones/440hz_short.mp3","k","","","empty_block","","50","","","","0","26",""
"","","","","","html-keyboard-response","143","251248","0.0-187.0","11","1","2023-10-27 17:03:59","a725c3012b74bf33a1020a98cb69c237","152.168.59.172","Mozilla/5.0 (Windows NT 10.0; Win64; x64) AppleWebKit/537.36 (KHTML, like Gecko) Chrome/118.0.0.0 Safari/537.36","WebKit","Chrome","118.0.0.0","Windows","10.0","null","es-ES,es;q=0.9,en;q=0.8","true","null","<div style=""font-size:100px;"">X</div>","null","","","fixation","","","","","","","",""
"","","","","","audio-keyboard-response","144","252425","0.0-188.0","11","1","2023-10-27 17:03:59","a725c3012b74bf33a1020a98cb69c237","152.168.59.172","Mozilla/5.0 (Windows NT 10.0; Win64; x64) AppleWebKit/537.36 (KHTML, like Gecko) Chrome/118.0.0.0 Safari/537.36","WebKit","Chrome","118.0.0.0","Windows","10.0","null","es-ES,es;q=0.9,en;q=0.8","true","null","tones/440hz_short.mp3","null","","","tone_number_task","1025","60","tones/440hz_short.mp3","1175","100","0","27",""
"","","","","","html-keyboard-response","145","253057","0.0-191.0-0.0","11","1","2023-10-27 17:03:59","a725c3012b74bf33a1020a98cb69c237","152.168.59.172","Mozilla/5.0 (Windows NT 10.0; Win64; x64) AppleWebKit/537.36 (KHTML, like Gecko) Chrome/118.0.0.0 Safari/537.36","WebKit","Chrome","118.0.0.0","Windows","10.0","null","es-ES,es;q=0.9,en;q=0.8","true","629","tones/440hz_short.mp3","a","","","empty_block","","60","","","","0","27",""
"","","","","","html-keyboard-response","146","253985","0.0-191.0-1.0","11","1","2023-10-27 17:03:59","a725c3012b74bf33a1020a98cb69c237","152.168.59.172","Mozilla/5.0 (Windows NT 10.0; Win64; x64) AppleWebKit/537.36 (KHTML, like Gecko) Chrome/118.0.0.0 Safari/537.36","WebKit","Chrome","118.0.0.0","Windows","10.0","null","es-ES,es;q=0.9,en;q=0.8","true","926","tones/440hz_short.mp3","k","","","empty_block","","60","","","","0","27",""
"","","","","","html-keyboard-response","147","256671","0.0-193.0","11","1","2023-10-27 17:03:59","a725c3012b74bf33a1020a98cb69c237","152.168.59.172","Mozilla/5.0 (Windows NT 10.0; Win64; x64) AppleWebKit/537.36 (KHTML, like Gecko) Chrome/118.0.0.0 Safari/537.36","WebKit","Chrome","118.0.0.0","Windows","10.0","null","es-ES,es;q=0.9,en;q=0.8","true","null","<div style=""font-size:100px;"">X</div>","null","","","fixation","","","","","","","",""
"","","","","","audio-keyboard-response","148","257857","0.0-194.0","11","1","2023-10-27 17:03:59","a725c3012b74bf33a1020a98cb69c237","152.168.59.172","Mozilla/5.0 (Windows NT 10.0; Win64; x64) AppleWebKit/537.36 (KHTML, like Gecko) Chrome/118.0.0.0 Safari/537.36","WebKit","Chrome","118.0.0.0","Windows","10.0","null","es-ES,es;q=0.9,en;q=0.8","true","null","tones/880hz_short.mp3","null","","","tone_number_task","1025","56","tones/880hz_short.mp3","1175","100","0","28",""
"","","","","","html-keyboard-response","149","259060","0.0-197.0-0.0","11","1","2023-10-27 17:03:59","a725c3012b74bf33a1020a98cb69c237","152.168.59.172","Mozilla/5.0 (Windows NT 10.0; Win64; x64) AppleWebKit/537.36 (KHTML, like Gecko) Chrome/118.0.0.0 Safari/537.36","WebKit","Chrome","118.0.0.0","Windows","10.0","null","es-ES,es;q=0.9,en;q=0.8","true","null","tones/880hz_short.mp3","null","","","empty_block","","56","","","","0","28",""
"","","","","","html-keyboard-response","150","259505","0.0-197.0-1.0","11","1","2023-10-27 17:03:59","a725c3012b74bf33a1020a98cb69c237","152.168.59.172","Mozilla/5.0 (Windows NT 10.0; Win64; x64) AppleWebKit/537.36 (KHTML, like Gecko) Chrome/118.0.0.0 Safari/537.36","WebKit","Chrome","118.0.0.0","Windows","10.0","null","es-ES,es;q=0.9,en;q=0.8","true","443","tones/880hz_short.mp3","s","","","empty_block","","56","","","","0","28",""
"","","","","","html-keyboard-response","151","262192","0.0-199.0","11","1","2023-10-27 17:03:59","a725c3012b74bf33a1020a98cb69c237","152.168.59.172","Mozilla/5.0 (Windows NT 10.0; Win64; x64) AppleWebKit/537.36 (KHTML, like Gecko) Chrome/118.0.0.0 Safari/537.36","WebKit","Chrome","118.0.0.0","Windows","10.0","null","es-ES,es;q=0.9,en;q=0.8","true","null","<div style=""font-size:100px;"">X</div>","null","","","fixation","","","","","","","",""
"","","","","","audio-keyboard-response","152","263370","0.0-200.0","11","1","2023-10-27 17:03:59","a725c3012b74bf33a1020a98cb69c237","152.168.59.172","Mozilla/5.0 (Windows NT 10.0; Win64; x64) AppleWebKit/537.36 (KHTML, like Gecko) Chrome/118.0.0.0 Safari/537.36","WebKit","Chrome","118.0.0.0","Windows","10.0","null","es-ES,es;q=0.9,en;q=0.8","true","null","tones/880hz_short.mp3","null","","","tone_number_task","1025","26","tones/880hz_short.mp3","1175","100","0","29",""
"","","","","","html-keyboard-response","153","264177","0.0-203.0-0.0","11","1","2023-10-27 17:03:59","a725c3012b74bf33a1020a98cb69c237","152.168.59.172","Mozilla/5.0 (Windows NT 10.0; Win64; x64) AppleWebKit/537.36 (KHTML, like Gecko) Chrome/118.0.0.0 Safari/537.36","WebKit","Chrome","118.0.0.0","Windows","10.0","null","es-ES,es;q=0.9,en;q=0.8","true","805","tones/880hz_short.mp3","a","","","empty_block","","26","","","","0","29",""
"","","","","","html-keyboard-response","154","265381","0.0-203.0-1.0","11","1","2023-10-27 17:03:59","a725c3012b74bf33a1020a98cb69c237","152.168.59.172","Mozilla/5.0 (Windows NT 10.0; Win64; x64) AppleWebKit/537.36 (KHTML, like Gecko) Chrome/118.0.0.0 Safari/537.36","WebKit","Chrome","118.0.0.0","Windows","10.0","null","es-ES,es;q=0.9,en;q=0.8","true","null","tones/880hz_short.mp3","null","","","empty_block","","26","","","","0","29",""
"","","","","","html-keyboard-response","155","268068","0.0-205.0","11","1","2023-10-27 17:03:59","a725c3012b74bf33a1020a98cb69c237","152.168.59.172","Mozilla/5.0 (Windows NT 10.0; Win64; x64) AppleWebKit/537.36 (KHTML, like Gecko) Chrome/118.0.0.0 Safari/537.36","WebKit","Chrome","118.0.0.0","Windows","10.0","null","es-ES,es;q=0.9,en;q=0.8","true","null","<div style=""font-size:100px;"">X</div>","null","","","fixation","","","","","","","",""
"","","","","","audio-keyboard-response","156","269247","0.0-206.0","11","1","2023-10-27 17:03:59","a725c3012b74bf33a1020a98cb69c237","152.168.59.172","Mozilla/5.0 (Windows NT 10.0; Win64; x64) AppleWebKit/537.36 (KHTML, like Gecko) Chrome/118.0.0.0 Safari/537.36","WebKit","Chrome","118.0.0.0","Windows","10.0","null","es-ES,es;q=0.9,en;q=0.8","true","null","tones/880hz_short.mp3","null","","","tone_number_task","1025","55","tones/880hz_short.mp3","1175","100","0","30",""
"","","","","","html-keyboard-response","157","270001","0.0-209.0-0.0","11","1","2023-10-27 17:03:59","a725c3012b74bf33a1020a98cb69c237","152.168.59.172","Mozilla/5.0 (Windows NT 10.0; Win64; x64) AppleWebKit/537.36 (KHTML, like Gecko) Chrome/118.0.0.0 Safari/537.36","WebKit","Chrome","118.0.0.0","Windows","10.0","null","es-ES,es;q=0.9,en;q=0.8","true","751","tones/880hz_short.mp3","s","","","empty_block","","55","","","","0","30",""
"","","","","","html-keyboard-response","158","270137","0.0-209.0-1.0","11","1","2023-10-27 17:03:59","a725c3012b74bf33a1020a98cb69c237","152.168.59.172","Mozilla/5.0 (Windows NT 10.0; Win64; x64) AppleWebKit/537.36 (KHTML, like Gecko) Chrome/118.0.0.0 Safari/537.36","WebKit","Chrome","118.0.0.0","Windows","10.0","null","es-ES,es;q=0.9,en;q=0.8","true","134","tones/880hz_short.mp3","k","","","empty_block","","55","","","","0","30",""
"","","","","","html-keyboard-response","159","272823","0.0-211.0","11","1","2023-10-27 17:03:59","a725c3012b74bf33a1020a98cb69c237","152.168.59.172","Mozilla/5.0 (Windows NT 10.0; Win64; x64) AppleWebKit/537.36 (KHTML, like Gecko) Chrome/118.0.0.0 Safari/537.36","WebKit","Chrome","118.0.0.0","Windows","10.0","null","es-ES,es;q=0.9,en;q=0.8","true","null","<div style=""font-size:100px;"">X</div>","null","","","fixation","","","","","","","",""
"","","","","","audio-keyboard-response","160","273968","0.0-212.0","11","1","2023-10-27 17:03:59","a725c3012b74bf33a1020a98cb69c237","152.168.59.172","Mozilla/5.0 (Windows NT 10.0; Win64; x64) AppleWebKit/537.36 (KHTML, like Gecko) Chrome/118.0.0.0 Safari/537.36","WebKit","Chrome","118.0.0.0","Windows","10.0","null","es-ES,es;q=0.9,en;q=0.8","true","null","tones/440hz_short.mp3","null","","","tone_number_task","992.5","23","tones/440hz_short.mp3","1142.5","100","0","31",""
"","","","","","html-keyboard-response","161","274473","0.0-215.0-0.0","11","1","2023-10-27 17:03:59","a725c3012b74bf33a1020a98cb69c237","152.168.59.172","Mozilla/5.0 (Windows NT 10.0; Win64; x64) AppleWebKit/537.36 (KHTML, like Gecko) Chrome/118.0.0.0 Safari/537.36","WebKit","Chrome","118.0.0.0","Windows","10.0","null","es-ES,es;q=0.9,en;q=0.8","true","502","tones/440hz_short.mp3","a","","","empty_block","","23","","","","0","31",""
"","","","","","html-keyboard-response","162","274592","0.0-215.0-1.0","11","1","2023-10-27 17:03:59","a725c3012b74bf33a1020a98cb69c237","152.168.59.172","Mozilla/5.0 (Windows NT 10.0; Win64; x64) AppleWebKit/537.36 (KHTML, like Gecko) Chrome/118.0.0.0 Safari/537.36","WebKit","Chrome","118.0.0.0","Windows","10.0","null","es-ES,es;q=0.9,en;q=0.8","true","118","tones/440hz_short.mp3","j","","","empty_block","","23","","","","0","31",""
"","","","","","html-keyboard-response","163","277279","0.0-217.0","11","1","2023-10-27 17:03:59","a725c3012b74bf33a1020a98cb69c237","152.168.59.172","Mozilla/5.0 (Windows NT 10.0; Win64; x64) AppleWebKit/537.36 (KHTML, like Gecko) Chrome/118.0.0.0 Safari/537.36","WebKit","Chrome","118.0.0.0","Windows","10.0","null","es-ES,es;q=0.9,en;q=0.8","true","null","<div style=""font-size:100px;"">X</div>","null","","","fixation","","","","","","","",""
"","","","","","audio-keyboard-response","164","278457","0.0-218.0","11","1","2023-10-27 17:03:59","a725c3012b74bf33a1020a98cb69c237","152.168.59.172","Mozilla/5.0 (Windows NT 10.0; Win64; x64) AppleWebKit/537.36 (KHTML, like Gecko) Chrome/118.0.0.0 Safari/537.36","WebKit","Chrome","118.0.0.0","Windows","10.0","null","es-ES,es;q=0.9,en;q=0.8","true","null","tones/880hz_short.mp3","null","","","tone_number_task","1025","36","tones/880hz_short.mp3","1175","100","0","32",""
"","","","","","html-keyboard-response","165","279659","0.0-221.0-0.0","11","1","2023-10-27 17:03:59","a725c3012b74bf33a1020a98cb69c237","152.168.59.172","Mozilla/5.0 (Windows NT 10.0; Win64; x64) AppleWebKit/537.36 (KHTML, like Gecko) Chrome/118.0.0.0 Safari/537.36","WebKit","Chrome","118.0.0.0","Windows","10.0","null","es-ES,es;q=0.9,en;q=0.8","true","null","tones/880hz_short.mp3","null","","","empty_block","","36","","","","0","32",""
"","","","","","html-keyboard-response","166","280440","0.0-221.0-1.0","11","1","2023-10-27 17:03:59","a725c3012b74bf33a1020a98cb69c237","152.168.59.172","Mozilla/5.0 (Windows NT 10.0; Win64; x64) AppleWebKit/537.36 (KHTML, like Gecko) Chrome/118.0.0.0 Safari/537.36","WebKit","Chrome","118.0.0.0","Windows","10.0","null","es-ES,es;q=0.9,en;q=0.8","true","779","tones/880hz_short.mp3","s","","","empty_block","","36","","","","0","32",""
"","","","","","html-keyboard-response","167","283128","0.0-223.0","11","1","2023-10-27 17:03:59","a725c3012b74bf33a1020a98cb69c237","152.168.59.172","Mozilla/5.0 (Windows NT 10.0; Win64; x64) AppleWebKit/537.36 (KHTML, like Gecko) Chrome/118.0.0.0 Safari/537.36","WebKit","Chrome","118.0.0.0","Windows","10.0","null","es-ES,es;q=0.9,en;q=0.8","true","null","<div style=""font-size:100px;"">X</div>","null","","","fixation","","","","","","","",""
"","","","","","audio-keyboard-response","168","284272","0.0-224.0","11","1","2023-10-27 17:03:59","a725c3012b74bf33a1020a98cb69c237","152.168.59.172","Mozilla/5.0 (Windows NT 10.0; Win64; x64) AppleWebKit/537.36 (KHTML, like Gecko) Chrome/118.0.0.0 Safari/537.36","WebKit","Chrome","118.0.0.0","Windows","10.0","null","es-ES,es;q=0.9,en;q=0.8","true","null","tones/880hz_short.mp3","null","","","tone_number_task","992.5","33","tones/880hz_short.mp3","1142.5","100","0","33",""
"","","","","","html-keyboard-response","169","285049","0.0-227.0-0.0","11","1","2023-10-27 17:03:59","a725c3012b74bf33a1020a98cb69c237","152.168.59.172","Mozilla/5.0 (Windows NT 10.0; Win64; x64) AppleWebKit/537.36 (KHTML, like Gecko) Chrome/118.0.0.0 Safari/537.36","WebKit","Chrome","118.0.0.0","Windows","10.0","null","es-ES,es;q=0.9,en;q=0.8","true","774","tones/880hz_short.mp3","s","","","empty_block","","33","","","","0","33",""
"","","","","","html-keyboard-response","170","285728","0.0-227.0-1.0","11","1","2023-10-27 17:03:59","a725c3012b74bf33a1020a98cb69c237","152.168.59.172","Mozilla/5.0 (Windows NT 10.0; Win64; x64) AppleWebKit/537.36 (KHTML, like Gecko) Chrome/118.0.0.0 Safari/537.36","WebKit","Chrome","118.0.0.0","Windows","10.0","null","es-ES,es;q=0.9,en;q=0.8","true","678","tones/880hz_short.mp3","j","","","empty_block","","33","","","","0","33",""
"","","","","","html-keyboard-response","171","288415","0.0-229.0","11","1","2023-10-27 17:03:59","a725c3012b74bf33a1020a98cb69c237","152.168.59.172","Mozilla/5.0 (Windows NT 10.0; Win64; x64) AppleWebKit/537.36 (KHTML, like Gecko) Chrome/118.0.0.0 Safari/537.36","WebKit","Chrome","118.0.0.0","Windows","10.0","null","es-ES,es;q=0.9,en;q=0.8","true","null","<div style=""font-size:100px;"">X</div>","null","","","fixation","","","","","","","",""
"","","","","","audio-keyboard-response","172","289561","0.0-230.0","11","1","2023-10-27 17:03:59","a725c3012b74bf33a1020a98cb69c237","152.168.59.172","Mozilla/5.0 (Windows NT 10.0; Win64; x64) AppleWebKit/537.36 (KHTML, like Gecko) Chrome/118.0.0.0 Safari/537.36","WebKit","Chrome","118.0.0.0","Windows","10.0","null","es-ES,es;q=0.9,en;q=0.8","true","null","tones/880hz_short.mp3","null","","","tone_number_task","992.5","26","tones/880hz_short.mp3","1142.5","100","0","34",""
"","","","","","html-keyboard-response","173","290417","0.0-233.0-0.0","11","1","2023-10-27 17:03:59","a725c3012b74bf33a1020a98cb69c237","152.168.59.172","Mozilla/5.0 (Windows NT 10.0; Win64; x64) AppleWebKit/537.36 (KHTML, like Gecko) Chrome/118.0.0.0 Safari/537.36","WebKit","Chrome","118.0.0.0","Windows","10.0","null","es-ES,es;q=0.9,en;q=0.8","true","854","tones/880hz_short.mp3","s","","","empty_block","","26","","","","0","34",""
"","","","","","html-keyboard-response","174","291620","0.0-233.0-1.0","11","1","2023-10-27 17:03:59","a725c3012b74bf33a1020a98cb69c237","152.168.59.172","Mozilla/5.0 (Windows NT 10.0; Win64; x64) AppleWebKit/537.36 (KHTML, like Gecko) Chrome/118.0.0.0 Safari/537.36","WebKit","Chrome","118.0.0.0","Windows","10.0","null","es-ES,es;q=0.9,en;q=0.8","true","null","tones/880hz_short.mp3","null","","","empty_block","","26","","","","0","34",""
"","","","","","html-keyboard-response","175","294307","0.0-235.0","11","1","2023-10-27 17:03:59","a725c3012b74bf33a1020a98cb69c237","152.168.59.172","Mozilla/5.0 (Windows NT 10.0; Win64; x64) AppleWebKit/537.36 (KHTML, like Gecko) Chrome/118.0.0.0 Safari/537.36","WebKit","Chrome","118.0.0.0","Windows","10.0","null","es-ES,es;q=0.9,en;q=0.8","true","null","<div style=""font-size:100px;"">X</div>","null","","","fixation","","","","","","","",""
"","","","","","audio-keyboard-response","176","295485","0.0-236.0","11","1","2023-10-27 17:03:59","a725c3012b74bf33a1020a98cb69c237","152.168.59.172","Mozilla/5.0 (Windows NT 10.0; Win64; x64) AppleWebKit/537.36 (KHTML, like Gecko) Chrome/118.0.0.0 Safari/537.36","WebKit","Chrome","118.0.0.0","Windows","10.0","null","es-ES,es;q=0.9,en;q=0.8","true","null","tones/440hz_short.mp3","null","","","tone_number_task","1025","60","tones/440hz_short.mp3","1175","100","0","35",""
"","","","","","html-keyboard-response","177","296521","0.0-239.0-0.0","11","1","2023-10-27 17:03:59","a725c3012b74bf33a1020a98cb69c237","152.168.59.172","Mozilla/5.0 (Windows NT 10.0; Win64; x64) AppleWebKit/537.36 (KHTML, like Gecko) Chrome/118.0.0.0 Safari/537.36","WebKit","Chrome","118.0.0.0","Windows","10.0","null","es-ES,es;q=0.9,en;q=0.8","true","1033","tones/440hz_short.mp3","a","","","empty_block","","60","","","","0","35",""
"","","","","","html-keyboard-response","178","296865","0.0-239.0-1.0","11","1","2023-10-27 17:03:59","a725c3012b74bf33a1020a98cb69c237","152.168.59.172","Mozilla/5.0 (Windows NT 10.0; Win64; x64) AppleWebKit/537.36 (KHTML, like Gecko) Chrome/118.0.0.0 Safari/537.36","WebKit","Chrome","118.0.0.0","Windows","10.0","null","es-ES,es;q=0.9,en;q=0.8","true","342","tones/440hz_short.mp3","k","","","empty_block","","60","","","","0","35",""
"","","","","","html-keyboard-response","179","299552","0.0-241.0","11","1","2023-10-27 17:03:59","a725c3012b74bf33a1020a98cb69c237","152.168.59.172","Mozilla/5.0 (Windows NT 10.0; Win64; x64) AppleWebKit/537.36 (KHTML, like Gecko) Chrome/118.0.0.0 Safari/537.36","WebKit","Chrome","118.0.0.0","Windows","10.0","null","es-ES,es;q=0.9,en;q=0.8","true","null","<div style=""font-size:100px;"">X</div>","null","","","fixation","","","","","","","",""
"","","","","","audio-keyboard-response","180","299807","0.0-242.0","11","1","2023-10-27 17:03:59","a725c3012b74bf33a1020a98cb69c237","152.168.59.172","Mozilla/5.0 (Windows NT 10.0; Win64; x64) AppleWebKit/537.36 (KHTML, like Gecko) Chrome/118.0.0.0 Safari/537.36","WebKit","Chrome","118.0.0.0","Windows","10.0","null","es-ES,es;q=0.9,en;q=0.8","true","null","tones/440hz_short.mp3","null","","","tone_number_task","102.5","40","tones/440hz_short.mp3","252.5","100","0","36",""
"","","","","","html-keyboard-response","181","301010","0.0-245.0-0.0","11","1","2023-10-27 17:03:59","a725c3012b74bf33a1020a98cb69c237","152.168.59.172","Mozilla/5.0 (Windows NT 10.0; Win64; x64) AppleWebKit/537.36 (KHTML, like Gecko) Chrome/118.0.0.0 Safari/537.36","WebKit","Chrome","118.0.0.0","Windows","10.0","null","es-ES,es;q=0.9,en;q=0.8","true","null","tones/440hz_short.mp3","null","","","empty_block","","40","","","","0","36",""
"","","","","","html-keyboard-response","182","301553","0.0-245.0-1.0","11","1","2023-10-27 17:03:59","a725c3012b74bf33a1020a98cb69c237","152.168.59.172","Mozilla/5.0 (Windows NT 10.0; Win64; x64) AppleWebKit/537.36 (KHTML, like Gecko) Chrome/118.0.0.0 Safari/537.36","WebKit","Chrome","118.0.0.0","Windows","10.0","null","es-ES,es;q=0.9,en;q=0.8","true","540","tones/440hz_short.mp3","a","","","empty_block","","40","","","","0","36",""
"","","","","","html-keyboard-response","183","304239","0.0-247.0","11","1","2023-10-27 17:03:59","a725c3012b74bf33a1020a98cb69c237","152.168.59.172","Mozilla/5.0 (Windows NT 10.0; Win64; x64) AppleWebKit/537.36 (KHTML, like Gecko) Chrome/118.0.0.0 Safari/537.36","WebKit","Chrome","118.0.0.0","Windows","10.0","null","es-ES,es;q=0.9,en;q=0.8","true","null","<div style=""font-size:100px;"">X</div>","null","","","fixation","","","","","","","",""
"","","","","","audio-keyboard-response","184","305384","0.0-248.0","11","1","2023-10-27 17:03:59","a725c3012b74bf33a1020a98cb69c237","152.168.59.172","Mozilla/5.0 (Windows NT 10.0; Win64; x64) AppleWebKit/537.36 (KHTML, like Gecko) Chrome/118.0.0.0 Safari/537.36","WebKit","Chrome","118.0.0.0","Windows","10.0","null","es-ES,es;q=0.9,en;q=0.8","true","null","tones/440hz_short.mp3","null","","","tone_number_task","992.5","22","tones/440hz_short.mp3","1142.5","100","0","37",""
"","","","","","html-keyboard-response","185","305985","0.0-251.0-0.0","11","1","2023-10-27 17:03:59","a725c3012b74bf33a1020a98cb69c237","152.168.59.172","Mozilla/5.0 (Windows NT 10.0; Win64; x64) AppleWebKit/537.36 (KHTML, like Gecko) Chrome/118.0.0.0 Safari/537.36","WebKit","Chrome","118.0.0.0","Windows","10.0","null","es-ES,es;q=0.9,en;q=0.8","true","598","tones/440hz_short.mp3","a","","","empty_block","","22","","","","0","37",""
"","","","","","html-keyboard-response","186","306233","0.0-251.0-1.0","11","1","2023-10-27 17:03:59","a725c3012b74bf33a1020a98cb69c237","152.168.59.172","Mozilla/5.0 (Windows NT 10.0; Win64; x64) AppleWebKit/537.36 (KHTML, like Gecko) Chrome/118.0.0.0 Safari/537.36","WebKit","Chrome","118.0.0.0","Windows","10.0","null","es-ES,es;q=0.9,en;q=0.8","true","246","tones/440hz_short.mp3","j","","","empty_block","","22","","","","0","37",""
"","","","","","html-keyboard-response","187","308921","0.0-253.0","11","1","2023-10-27 17:03:59","a725c3012b74bf33a1020a98cb69c237","152.168.59.172","Mozilla/5.0 (Windows NT 10.0; Win64; x64) AppleWebKit/537.36 (KHTML, like Gecko) Chrome/118.0.0.0 Safari/537.36","WebKit","Chrome","118.0.0.0","Windows","10.0","null","es-ES,es;q=0.9,en;q=0.8","true","null","<div style=""font-size:100px;"">X</div>","null","","","fixation","","","","","","","",""
"","","","","","audio-keyboard-response","188","310067","0.0-254.0","11","1","2023-10-27 17:03:59","a725c3012b74bf33a1020a98cb69c237","152.168.59.172","Mozilla/5.0 (Windows NT 10.0; Win64; x64) AppleWebKit/537.36 (KHTML, like Gecko) Chrome/118.0.0.0 Safari/537.36","WebKit","Chrome","118.0.0.0","Windows","10.0","null","es-ES,es;q=0.9,en;q=0.8","true","null","tones/440hz_short.mp3","null","","","tone_number_task","992.5","53","tones/440hz_short.mp3","1142.5","100","0","38",""
"","","","","","html-keyboard-response","189","310657","0.0-257.0-0.0","11","1","2023-10-27 17:03:59","a725c3012b74bf33a1020a98cb69c237","152.168.59.172","Mozilla/5.0 (Windows NT 10.0; Win64; x64) AppleWebKit/537.36 (KHTML, like Gecko) Chrome/118.0.0.0 Safari/537.36","WebKit","Chrome","118.0.0.0","Windows","10.0","null","es-ES,es;q=0.9,en;q=0.8","true","587","tones/440hz_short.mp3","a","","","empty_block","","53","","","","0","38",""
"","","","","","html-keyboard-response","190","311329","0.0-257.0-1.0","11","1","2023-10-27 17:03:59","a725c3012b74bf33a1020a98cb69c237","152.168.59.172","Mozilla/5.0 (Windows NT 10.0; Win64; x64) AppleWebKit/537.36 (KHTML, like Gecko) Chrome/118.0.0.0 Safari/537.36","WebKit","Chrome","118.0.0.0","Windows","10.0","null","es-ES,es;q=0.9,en;q=0.8","true","670","tones/440hz_short.mp3","k","","","empty_block","","53","","","","0","38",""
"","","","","","html-keyboard-response","191","314016","0.0-259.0","11","1","2023-10-27 17:03:59","a725c3012b74bf33a1020a98cb69c237","152.168.59.172","Mozilla/5.0 (Windows NT 10.0; Win64; x64) AppleWebKit/537.36 (KHTML, like Gecko) Chrome/118.0.0.0 Safari/537.36","WebKit","Chrome","118.0.0.0","Windows","10.0","null","es-ES,es;q=0.9,en;q=0.8","true","null","<div style=""font-size:100px;"">X</div>","null","","","fixation","","","","","","","",""
"","","","","","audio-keyboard-response","192","314170","0.0-260.0","11","1","2023-10-27 17:03:59","a725c3012b74bf33a1020a98cb69c237","152.168.59.172","Mozilla/5.0 (Windows NT 10.0; Win64; x64) AppleWebKit/537.36 (KHTML, like Gecko) Chrome/118.0.0.0 Safari/537.36","WebKit","Chrome","118.0.0.0","Windows","10.0","null","es-ES,es;q=0.9,en;q=0.8","true","null","tones/880hz_short.mp3","null","","","tone_number_task","0","23","tones/880hz_short.mp3","150","100","0","39",""
"","","","","","html-keyboard-response","193","315373","0.0-263.0-0.0","11","1","2023-10-27 17:03:59","a725c3012b74bf33a1020a98cb69c237","152.168.59.172","Mozilla/5.0 (Windows NT 10.0; Win64; x64) AppleWebKit/537.36 (KHTML, like Gecko) Chrome/118.0.0.0 Safari/537.36","WebKit","Chrome","118.0.0.0","Windows","10.0","null","es-ES,es;q=0.9,en;q=0.8","true","null","tones/880hz_short.mp3","null","","","empty_block","","23","","","","0","39",""
"","","","","","html-keyboard-response","194","316433","0.0-263.0-1.0","11","1","2023-10-27 17:03:59","a725c3012b74bf33a1020a98cb69c237","152.168.59.172","Mozilla/5.0 (Windows NT 10.0; Win64; x64) AppleWebKit/537.36 (KHTML, like Gecko) Chrome/118.0.0.0 Safari/537.36","WebKit","Chrome","118.0.0.0","Windows","10.0","null","es-ES,es;q=0.9,en;q=0.8","true","1057","tones/880hz_short.mp3","s","","","empty_block","","23","","","","0","39",""
"","","","","","call-function","195","316435","0.0-265.0","11","1","2023-10-27 17:03:59","a725c3012b74bf33a1020a98cb69c237","152.168.59.172","Mozilla/5.0 (Windows NT 10.0; Win64; x64) AppleWebKit/537.36 (KHTML, like Gecko) Chrome/118.0.0.0 Safari/537.36","WebKit","Chrome","118.0.0.0","Windows","10.0","null","es-ES,es;q=0.9,en;q=0.8","true","","","","","","","","","","","","","",""
"","","","","","external-html","196","320441","0.0-266.0","11","1","2023-10-27 17:03:59","a725c3012b74bf33a1020a98cb69c237","152.168.59.172","Mozilla/5.0 (Windows NT 10.0; Win64; x64) AppleWebKit/537.36 (KHTML, like Gecko) Chrome/118.0.0.0 Safari/537.36","WebKit","Chrome","118.0.0.0","Windows","10.0","null","es-ES,es;q=0.9,en;q=0.8","true","3717","","","","instructions/instructions_digits_last.html","","","","","","","","",""
"","","","","","call-function","197","320445","0.0-267.0","11","1","2023-10-27 17:03:59","a725c3012b74bf33a1020a98cb69c237","152.168.59.172","Mozilla/5.0 (Windows NT 10.0; Win64; x64) AppleWebKit/537.36 (KHTML, like Gecko) Chrome/118.0.0.0 Safari/537.36","WebKit","Chrome","118.0.0.0","Windows","10.0","null","es-ES,es;q=0.9,en;q=0.8","true","","","","","","","","","","","","","",""
"","","","","","html-keyboard-response","198","323132","0.0-268.0","11","1","2023-10-27 17:03:59","a725c3012b74bf33a1020a98cb69c237","152.168.59.172","Mozilla/5.0 (Windows NT 10.0; Win64; x64) AppleWebKit/537.36 (KHTML, like Gecko) Chrome/118.0.0.0 Safari/537.36","WebKit","Chrome","118.0.0.0","Windows","10.0","null","es-ES,es;q=0.9,en;q=0.8","true","null","<div style=""font-size:100px;"">X</div>","null","","","fixation","","","","","","","",""
"","","","","","audio-keyboard-response","199","323387","0.0-269.0","11","1","2023-10-27 17:03:59","a725c3012b74bf33a1020a98cb69c237","152.168.59.172","Mozilla/5.0 (Windows NT 10.0; Win64; x64) AppleWebKit/537.36 (KHTML, like Gecko) Chrome/118.0.0.0 Safari/537.36","WebKit","Chrome","118.0.0.0","Windows","10.0","null","es-ES,es;q=0.9,en;q=0.8","true","null","tones/440hz_short.mp3","null","","","tone_number_task","102.5","65","tones/440hz_short.mp3","252.5","100","1","0",""
"","","","","","html-keyboard-response","200","324528","0.0-272.0-0.0","11","1","2023-10-27 17:03:59","a725c3012b74bf33a1020a98cb69c237","152.168.59.172","Mozilla/5.0 (Windows NT 10.0; Win64; x64) AppleWebKit/537.36 (KHTML, like Gecko) Chrome/118.0.0.0 Safari/537.36","WebKit","Chrome","118.0.0.0","Windows","10.0","null","es-ES,es;q=0.9,en;q=0.8","true","1139","tones/440hz_short.mp3","a","","","empty_block","","65","","","","1","0",""
"","","","","","html-keyboard-response","201","325384","0.0-272.0-1.0","11","1","2023-10-27 17:03:59","a725c3012b74bf33a1020a98cb69c237","152.168.59.172","Mozilla/5.0 (Windows NT 10.0; Win64; x64) AppleWebKit/537.36 (KHTML, like Gecko) Chrome/118.0.0.0 Safari/537.36","WebKit","Chrome","118.0.0.0","Windows","10.0","null","es-ES,es;q=0.9,en;q=0.8","true","853","tones/440hz_short.mp3","k","","","empty_block","","65","","","","1","0",""
"","","","","","html-keyboard-response","202","328071","0.0-274.0","11","1","2023-10-27 17:03:59","a725c3012b74bf33a1020a98cb69c237","152.168.59.172","Mozilla/5.0 (Windows NT 10.0; Win64; x64) AppleWebKit/537.36 (KHTML, like Gecko) Chrome/118.0.0.0 Safari/537.36","WebKit","Chrome","118.0.0.0","Windows","10.0","null","es-ES,es;q=0.9,en;q=0.8","true","null","<div style=""font-size:100px;"">X</div>","null","","","fixation","","","","","","","",""
"","","","","","audio-keyboard-response","203","328936","0.0-275.0","11","1","2023-10-27 17:03:59","a725c3012b74bf33a1020a98cb69c237","152.168.59.172","Mozilla/5.0 (Windows NT 10.0; Win64; x64) AppleWebKit/537.36 (KHTML, like Gecko) Chrome/118.0.0.0 Safari/537.36","WebKit","Chrome","118.0.0.0","Windows","10.0","null","es-ES,es;q=0.9,en;q=0.8","true","869","tones/880hz_short.mp3","s","","","tone_number_task","1025","37","tones/880hz_short.mp3","1175","100","1","1",""
"","","","","","html-keyboard-response","204","329095","0.0-276.0-0.0","11","1","2023-10-27 17:03:59","a725c3012b74bf33a1020a98cb69c237","152.168.59.172","Mozilla/5.0 (Windows NT 10.0; Win64; x64) AppleWebKit/537.36 (KHTML, like Gecko) Chrome/118.0.0.0 Safari/537.36","WebKit","Chrome","118.0.0.0","Windows","10.0","null","es-ES,es;q=0.9,en;q=0.8","true","null","","null","","","delay_block","","","","","","1","1",""
"","","","","","html-keyboard-response","205","329248","0.0-276.0-1.0","11","1","2023-10-27 17:03:59","a725c3012b74bf33a1020a98cb69c237","152.168.59.172","Mozilla/5.0 (Windows NT 10.0; Win64; x64) AppleWebKit/537.36 (KHTML, like Gecko) Chrome/118.0.0.0 Safari/537.36","WebKit","Chrome","118.0.0.0","Windows","10.0","null","es-ES,es;q=0.9,en;q=0.8","true","null","<p id=""stimulus"" style=""font-size:100px;"">37</p>","null","","","tone_number_task_remaining_before_delay","","37","","306","100","1","1",""
"","","","","","html-keyboard-response","206","329912","0.0-279.0-0.0","11","1","2023-10-27 17:03:59","a725c3012b74bf33a1020a98cb69c237","152.168.59.172","Mozilla/5.0 (Windows NT 10.0; Win64; x64) AppleWebKit/537.36 (KHTML, like Gecko) Chrome/118.0.0.0 Safari/537.36","WebKit","Chrome","118.0.0.0","Windows","10.0","null","es-ES,es;q=0.9,en;q=0.8","true","661","<p id=""stimulus"" style=""font-size:100px;"">37</p>","j","","","empty_block","","37","","","","1","1",""
"","","","","","html-keyboard-response","207","332600","0.0-280.0","11","1","2023-10-27 17:03:59","a725c3012b74bf33a1020a98cb69c237","152.168.59.172","Mozilla/5.0 (Windows NT 10.0; Win64; x64) AppleWebKit/537.36 (KHTML, like Gecko) Chrome/118.0.0.0 Safari/537.36","WebKit","Chrome","118.0.0.0","Windows","10.0","null","es-ES,es;q=0.9,en;q=0.8","true","null","<div style=""font-size:100px;"">X</div>","null","","","fixation","","","","","","","",""
"","","","","","audio-keyboard-response","208","333745","0.0-281.0","11","1","2023-10-27 17:03:59","a725c3012b74bf33a1020a98cb69c237","152.168.59.172","Mozilla/5.0 (Windows NT 10.0; Win64; x64) AppleWebKit/537.36 (KHTML, like Gecko) Chrome/118.0.0.0 Safari/537.36","WebKit","Chrome","118.0.0.0","Windows","10.0","null","es-ES,es;q=0.9,en;q=0.8","true","null","tones/880hz_short.mp3","null","","","tone_number_task","992.5","39","tones/880hz_short.mp3","1142.5","100","1","2",""
"","","","","","html-keyboard-response","209","334949","0.0-284.0-0.0","11","1","2023-10-27 17:03:59","a725c3012b74bf33a1020a98cb69c237","152.168.59.172","Mozilla/5.0 (Windows NT 10.0; Win64; x64) AppleWebKit/537.36 (KHTML, like Gecko) Chrome/118.0.0.0 Safari/537.36","WebKit","Chrome","118.0.0.0","Windows","10.0","null","es-ES,es;q=0.9,en;q=0.8","true","null","tones/880hz_short.mp3","null","","","empty_block","","39","","","","1","2",""
"","","","","","html-keyboard-response","210","336153","0.0-284.0-1.0","11","1","2023-10-27 17:03:59","a725c3012b74bf33a1020a98cb69c237","152.168.59.172","Mozilla/5.0 (Windows NT 10.0; Win64; x64) AppleWebKit/537.36 (KHTML, like Gecko) Chrome/118.0.0.0 Safari/537.36","WebKit","Chrome","118.0.0.0","Windows","10.0","null","es-ES,es;q=0.9,en;q=0.8","true","null","tones/880hz_short.mp3","null","","","empty_block","","39","","","","1","2",""
"","","","","","html-keyboard-response","211","338841","0.0-286.0","11","1","2023-10-27 17:03:59","a725c3012b74bf33a1020a98cb69c237","152.168.59.172","Mozilla/5.0 (Windows NT 10.0; Win64; x64) AppleWebKit/537.36 (KHTML, like Gecko) Chrome/118.0.0.0 Safari/537.36","WebKit","Chrome","118.0.0.0","Windows","10.0","null","es-ES,es;q=0.9,en;q=0.8","true","null","<div style=""font-size:100px;"">X</div>","null","","","fixation","","","","","","","",""
"","","","","","audio-keyboard-response","212","338994","0.0-287.0","11","1","2023-10-27 17:03:59","a725c3012b74bf33a1020a98cb69c237","152.168.59.172","Mozilla/5.0 (Windows NT 10.0; Win64; x64) AppleWebKit/537.36 (KHTML, like Gecko) Chrome/118.0.0.0 Safari/537.36","WebKit","Chrome","118.0.0.0","Windows","10.0","null","es-ES,es;q=0.9,en;q=0.8","true","null","tones/440hz_short.mp3","null","","","tone_number_task","0","30","tones/440hz_short.mp3","150","100","1","3",""
"","","","","","html-keyboard-response","213","340197","0.0-290.0-0.0","11","1","2023-10-27 17:03:59","a725c3012b74bf33a1020a98cb69c237","152.168.59.172","Mozilla/5.0 (Windows NT 10.0; Win64; x64) AppleWebKit/537.36 (KHTML, like Gecko) Chrome/118.0.0.0 Safari/537.36","WebKit","Chrome","118.0.0.0","Windows","10.0","null","es-ES,es;q=0.9,en;q=0.8","true","null","tones/440hz_short.mp3","null","","","empty_block","","30","","","","1","3",""
"","","","","","html-keyboard-response","214","340361","0.0-290.0-1.0","11","1","2023-10-27 17:03:59","a725c3012b74bf33a1020a98cb69c237","152.168.59.172","Mozilla/5.0 (Windows NT 10.0; Win64; x64) AppleWebKit/537.36 (KHTML, like Gecko) Chrome/118.0.0.0 Safari/537.36","WebKit","Chrome","118.0.0.0","Windows","10.0","null","es-ES,es;q=0.9,en;q=0.8","true","161","tones/440hz_short.mp3","a","","","empty_block","","30","","","","1","3",""
"","","","","","html-keyboard-response","215","343048","0.0-292.0","11","1","2023-10-27 17:03:59","a725c3012b74bf33a1020a98cb69c237","152.168.59.172","Mozilla/5.0 (Windows NT 10.0; Win64; x64) AppleWebKit/537.36 (KHTML, like Gecko) Chrome/118.0.0.0 Safari/537.36","WebKit","Chrome","118.0.0.0","Windows","10.0","null","es-ES,es;q=0.9,en;q=0.8","true","null","<div style=""font-size:100px;"">X</div>","null","","","fixation","","","","","","","",""
"","","","","","audio-keyboard-response","216","343302","0.0-293.0","11","1","2023-10-27 17:03:59","a725c3012b74bf33a1020a98cb69c237","152.168.59.172","Mozilla/5.0 (Windows NT 10.0; Win64; x64) AppleWebKit/537.36 (KHTML, like Gecko) Chrome/118.0.0.0 Safari/537.36","WebKit","Chrome","118.0.0.0","Windows","10.0","null","es-ES,es;q=0.9,en;q=0.8","true","null","tones/440hz_short.mp3","null","","","tone_number_task","102.5","27","tones/440hz_short.mp3","252.5","100","1","4",""
"","","","","","html-keyboard-response","217","344072","0.0-296.0-0.0","11","1","2023-10-27 17:03:59","a725c3012b74bf33a1020a98cb69c237","152.168.59.172","Mozilla/5.0 (Windows NT 10.0; Win64; x64) AppleWebKit/537.36 (KHTML, like Gecko) Chrome/118.0.0.0 Safari/537.36","WebKit","Chrome","118.0.0.0","Windows","10.0","null","es-ES,es;q=0.9,en;q=0.8","true","767","tones/440hz_short.mp3","a","","","empty_block","","27","","","","1","4",""
"","","","","","html-keyboard-response","218","344368","0.0-296.0-1.0","11","1","2023-10-27 17:03:59","a725c3012b74bf33a1020a98cb69c237","152.168.59.172","Mozilla/5.0 (Windows NT 10.0; Win64; x64) AppleWebKit/537.36 (KHTML, like Gecko) Chrome/118.0.0.0 Safari/537.36","WebKit","Chrome","118.0.0.0","Windows","10.0","null","es-ES,es;q=0.9,en;q=0.8","true","293","tones/440hz_short.mp3","j","","","empty_block","","27","","","","1","4",""
