"success","timeout","failed_images","failed_audio","failed_video","trial_type","trial_index","time_elapsed","internal_node_id","run_id","condition","recorded_at","source_code_version","ip","user_agent","device","browser","browser_version","platform","platform_version","referer","accept_language","check","rt","stimulus","response","question_order","url","task","delay","number","audioFile","trial_duration","font_size","block","round","value"
"true","false","[]","[]","[]","preload","0","635","0.0-0.0","77","1","2023-11-04 21:31:27","a725c3012b74bf33a1020a98cb69c237","181.80.3.161","Mozilla/5.0 (Windows NT 10.0; Win64; x64) AppleWebKit/537.36 (KHTML, like Gecko) Chrome/119.0.0.0 Safari/537.36","WebKit","Chrome","119.0.0.0","Windows","10.0","null","es-419,es;q=0.9","true","","","","","","","","","","","","","",""
"true","","","","","fullscreen","1","172879","0.0-1.0","77","1","2023-11-04 21:31:27","a725c3012b74bf33a1020a98cb69c237","181.80.3.161","Mozilla/5.0 (Windows NT 10.0; Win64; x64) AppleWebKit/537.36 (KHTML, like Gecko) Chrome/119.0.0.0 Safari/537.36","WebKit","Chrome","119.0.0.0","Windows","10.0","null","es-419,es;q=0.9","true","","","","","","","","","","","","","",""
"","","","","","html-button-response","2","174750","0.0-2.0","77","1","2023-11-04 21:31:27","a725c3012b74bf33a1020a98cb69c237","181.80.3.161","Mozilla/5.0 (Windows NT 10.0; Win64; x64) AppleWebKit/537.36 (KHTML, like Gecko) Chrome/119.0.0.0 Safari/537.36","WebKit","Chrome","119.0.0.0","Windows","10.0","null","es-419,es;q=0.9","true","1863","<p style=""font-size:24px; color:red;"">Cosas importantes a tener en cuenta antes de comenzar el experimento:</p>","0","","","","","","","","","","",""
"","","","","","html-button-response","3","183528","0.0-3.0","77","1","2023-11-04 21:31:27","a725c3012b74bf33a1020a98cb69c237","181.80.3.161","Mozilla/5.0 (Windows NT 10.0; Win64; x64) AppleWebKit/537.36 (KHTML, like Gecko) Chrome/119.0.0.0 Safari/537.36","WebKit","Chrome","119.0.0.0","Windows","10.0","null","es-419,es;q=0.9","true","8775","<p style=""font-size:24px;"">El experimento dura aproximadamente 15 minutos.</p><p style=""font-size:24px;"">Por favor, no cierres la ventana del navegador durante el experimento.</p><p style=""font-size:24px;"">Si se completa de forma parcial, no se guardará ningún resultado.</p>","0","","","","","","","","","","",""
"","","","","","html-button-response","4","186464","0.0-4.0","77","1","2023-11-04 21:31:27","a725c3012b74bf33a1020a98cb69c237","181.80.3.161","Mozilla/5.0 (Windows NT 10.0; Win64; x64) AppleWebKit/537.36 (KHTML, like Gecko) Chrome/119.0.0.0 Safari/537.36","WebKit","Chrome","119.0.0.0","Windows","10.0","null","es-419,es;q=0.9","true","2934","<p style=""font-size:24px;"">El experimento contiene estímulos sonoros.</p>","0","","","","","","","","","","",""
"","","","","","audio-button-response","5","188256","0.0-5.0-0.0","77","1","2023-11-04 21:31:27","a725c3012b74bf33a1020a98cb69c237","181.80.3.161","Mozilla/5.0 (Windows NT 10.0; Win64; x64) AppleWebKit/537.36 (KHTML, like Gecko) Chrome/119.0.0.0 Safari/537.36","WebKit","Chrome","119.0.0.0","Windows","10.0","null","es-419,es;q=0.9","true","1309","tones/440hz_short.mp3","1","","","","","","","","","","",""
"","","","","","audio-button-response","6","191628","0.0-6.0-0.0","77","1","2023-11-04 21:31:27","a725c3012b74bf33a1020a98cb69c237","181.80.3.161","Mozilla/5.0 (Windows NT 10.0; Win64; x64) AppleWebKit/537.36 (KHTML, like Gecko) Chrome/119.0.0.0 Safari/537.36","WebKit","Chrome","119.0.0.0","Windows","10.0","null","es-419,es;q=0.9","true","3360","tones/880hz_short.mp3","1","","","","","","","","","","",""
"","","","","","survey-html-form","7","193435","0.0-7.0","77","1","2023-11-04 21:31:27","a725c3012b74bf33a1020a98cb69c237","181.80.3.161","Mozilla/5.0 (Windows NT 10.0; Win64; x64) AppleWebKit/537.36 (KHTML, like Gecko) Chrome/119.0.0.0 Safari/537.36","WebKit","Chrome","119.0.0.0","Windows","10.0","null","es-419,es;q=0.9","true","1795","","{""response"":""23""}","","","","","","","","","","",""
"","","","","","survey-multi-choice","8","198317","0.0-8.0","77","1","2023-11-04 21:31:27","a725c3012b74bf33a1020a98cb69c237","181.80.3.161","Mozilla/5.0 (Windows NT 10.0; Win64; x64) AppleWebKit/537.36 (KHTML, like Gecko) Chrome/119.0.0.0 Safari/537.36","WebKit","Chrome","119.0.0.0","Windows","10.0","null","es-419,es;q=0.9","true","4878","","{""gender"":""Mujer"",""hand"":""Derecha""}","[0,1]","","","","","","","","","",""
"","","","","","external-html","9","279272","0.0-9.0","77","1","2023-11-04 21:31:27","a725c3012b74bf33a1020a98cb69c237","181.80.3.161","Mozilla/5.0 (Windows NT 10.0; Win64; x64) AppleWebKit/537.36 (KHTML, like Gecko) Chrome/119.0.0.0 Safari/537.36","WebKit","Chrome","119.0.0.0","Windows","10.0","null","es-419,es;q=0.9","true","80653","","","","instructions/instructions.html","","","","","","","","",""
"","","","","","external-html","10","311429","0.0-10.0","77","1","2023-11-04 21:31:27","a725c3012b74bf33a1020a98cb69c237","181.80.3.161","Mozilla/5.0 (Windows NT 10.0; Win64; x64) AppleWebKit/537.36 (KHTML, like Gecko) Chrome/119.0.0.0 Safari/537.36","WebKit","Chrome","119.0.0.0","Windows","10.0","null","es-419,es;q=0.9","true","31822","","","","instructions/animation.html","","","","","","","","",""
"","","","","","html-keyboard-response","11","314341","0.0-11.0-0.0","77","1","2023-11-04 21:31:27","a725c3012b74bf33a1020a98cb69c237","181.80.3.161","Mozilla/5.0 (Windows NT 10.0; Win64; x64) AppleWebKit/537.36 (KHTML, like Gecko) Chrome/119.0.0.0 Safari/537.36","WebKit","Chrome","119.0.0.0","Windows","10.0","null","es-419,es;q=0.9","true","null","<div style=""font-size:100px;"">X</div>","null","","","fixation","","","","","","","",""
"","","","","","audio-keyboard-response","12","315495","0.0-11.0-1.0","77","1","2023-11-04 21:31:27","a725c3012b74bf33a1020a98cb69c237","181.80.3.161","Mozilla/5.0 (Windows NT 10.0; Win64; x64) AppleWebKit/537.36 (KHTML, like Gecko) Chrome/119.0.0.0 Safari/537.36","WebKit","Chrome","119.0.0.0","Windows","10.0","null","es-419,es;q=0.9","true","null","tones/440hz_short.mp3","null","","","tone_number_task","1000","48","tones/440hz_short.mp3","1150","100","null","null",""
"","","","","","html-keyboard-response","13","315838","0.0-11.0-4.0-0.0","77","1","2023-11-04 21:31:27","a725c3012b74bf33a1020a98cb69c237","181.80.3.161","Mozilla/5.0 (Windows NT 10.0; Win64; x64) AppleWebKit/537.36 (KHTML, like Gecko) Chrome/119.0.0.0 Safari/537.36","WebKit","Chrome","119.0.0.0","Windows","10.0","null","es-419,es;q=0.9","true","341","tones/440hz_short.mp3","a","","","empty_block","","48","","","","null","null",""
"","","","","","html-keyboard-response","14","316166","0.0-11.0-4.0-1.0","77","1","2023-11-04 21:31:27","a725c3012b74bf33a1020a98cb69c237","181.80.3.161","Mozilla/5.0 (Windows NT 10.0; Win64; x64) AppleWebKit/537.36 (KHTML, like Gecko) Chrome/119.0.0.0 Safari/537.36","WebKit","Chrome","119.0.0.0","Windows","10.0","null","es-419,es;q=0.9","true","325","tones/440hz_short.mp3","k","","","empty_block","","48","","","","null","null",""
"","","","","","html-keyboard-response","15","319067","0.0-13.0-0.0","77","1","2023-11-04 21:31:27","a725c3012b74bf33a1020a98cb69c237","181.80.3.161","Mozilla/5.0 (Windows NT 10.0; Win64; x64) AppleWebKit/537.36 (KHTML, like Gecko) Chrome/119.0.0.0 Safari/537.36","WebKit","Chrome","119.0.0.0","Windows","10.0","null","es-419,es;q=0.9","true","null","<div style=""font-size:100px;"">X</div>","null","","","fixation","","","","","","","",""
"","","","","","audio-keyboard-response","16","319725","0.0-13.0-1.0","77","1","2023-11-04 21:31:27","a725c3012b74bf33a1020a98cb69c237","181.80.3.161","Mozilla/5.0 (Windows NT 10.0; Win64; x64) AppleWebKit/537.36 (KHTML, like Gecko) Chrome/119.0.0.0 Safari/537.36","WebKit","Chrome","119.0.0.0","Windows","10.0","null","es-419,es;q=0.9","true","null","tones/880hz_short.mp3","null","","","tone_number_task","500","51","tones/880hz_short.mp3","650","100","null","null",""
"","","","","","html-keyboard-response","17","320097","0.0-13.0-4.0-0.0","77","1","2023-11-04 21:31:27","a725c3012b74bf33a1020a98cb69c237","181.80.3.161","Mozilla/5.0 (Windows NT 10.0; Win64; x64) AppleWebKit/537.36 (KHTML, like Gecko) Chrome/119.0.0.0 Safari/537.36","WebKit","Chrome","119.0.0.0","Windows","10.0","null","es-419,es;q=0.9","true","370","tones/880hz_short.mp3","a","","","empty_block","","51","","","","null","null",""
"","","","","","html-keyboard-response","18","320670","0.0-13.0-4.0-1.0","77","1","2023-11-04 21:31:27","a725c3012b74bf33a1020a98cb69c237","181.80.3.161","Mozilla/5.0 (Windows NT 10.0; Win64; x64) AppleWebKit/537.36 (KHTML, like Gecko) Chrome/119.0.0.0 Safari/537.36","WebKit","Chrome","119.0.0.0","Windows","10.0","null","es-419,es;q=0.9","true","569","tones/880hz_short.mp3","k","","","empty_block","","51","","","","null","null",""
"","","","","","html-button-response","19","323868","0.0-13.0-6.0-0.0","77","1","2023-11-04 21:31:27","a725c3012b74bf33a1020a98cb69c237","181.80.3.161","Mozilla/5.0 (Windows NT 10.0; Win64; x64) AppleWebKit/537.36 (KHTML, like Gecko) Chrome/119.0.0.0 Safari/537.36","WebKit","Chrome","119.0.0.0","Windows","10.0","null","es-419,es;q=0.9","true","3194","
  '<p style=""font-size:24px; color:red;"">Incorrecto</p><p> Respondiste alguno de los estímulos de manera incorrecta.</p><p>Por favor, repasá las instrucciones y seguimos desde donde nos quedamos. </p>
  ","0","","","","","","","","","","",""
"","","","","","external-html","20","339375","0.0-13.0-6.0-1.0","77","1","2023-11-04 21:31:27","a725c3012b74bf33a1020a98cb69c237","181.80.3.161","Mozilla/5.0 (Windows NT 10.0; Win64; x64) AppleWebKit/537.36 (KHTML, like Gecko) Chrome/119.0.0.0 Safari/537.36","WebKit","Chrome","119.0.0.0","Windows","10.0","null","es-419,es;q=0.9","true","15215","","","","instructions/instructions_B.html","","","","","","","","",""
"","","","","","html-keyboard-response","21","342285","0.0-13.1-0.1","77","1","2023-11-04 21:31:27","a725c3012b74bf33a1020a98cb69c237","181.80.3.161","Mozilla/5.0 (Windows NT 10.0; Win64; x64) AppleWebKit/537.36 (KHTML, like Gecko) Chrome/119.0.0.0 Safari/537.36","WebKit","Chrome","119.0.0.0","Windows","10.0","null","es-419,es;q=0.9","true","null","<div style=""font-size:100px;"">X</div>","null","","","fixation","","","","","","","",""
"","","","","","audio-keyboard-response","22","342938","0.0-13.1-1.1","77","1","2023-11-04 21:31:27","a725c3012b74bf33a1020a98cb69c237","181.80.3.161","Mozilla/5.0 (Windows NT 10.0; Win64; x64) AppleWebKit/537.36 (KHTML, like Gecko) Chrome/119.0.0.0 Safari/537.36","WebKit","Chrome","119.0.0.0","Windows","10.0","null","es-419,es;q=0.9","true","null","tones/880hz_short.mp3","null","","","tone_number_task","500","51","tones/880hz_short.mp3","650","100","null","null",""
"","","","","","html-keyboard-response","23","343057","0.0-13.1-4.1-0.1","77","1","2023-11-04 21:31:27","a725c3012b74bf33a1020a98cb69c237","181.80.3.161","Mozilla/5.0 (Windows NT 10.0; Win64; x64) AppleWebKit/537.36 (KHTML, like Gecko) Chrome/119.0.0.0 Safari/537.36","WebKit","Chrome","119.0.0.0","Windows","10.0","null","es-419,es;q=0.9","true","117","tones/880hz_short.mp3","s","","","empty_block","","51","","","","null","null",""
"","","","","","html-keyboard-response","24","343234","0.0-13.1-4.1-1.1","77","1","2023-11-04 21:31:27","a725c3012b74bf33a1020a98cb69c237","181.80.3.161","Mozilla/5.0 (Windows NT 10.0; Win64; x64) AppleWebKit/537.36 (KHTML, like Gecko) Chrome/119.0.0.0 Safari/537.36","WebKit","Chrome","119.0.0.0","Windows","10.0","null","es-419,es;q=0.9","true","175","tones/880hz_short.mp3","k","","","empty_block","","51","","","","null","null",""
"","","","","","html-keyboard-response","25","346144","0.0-15.0-0.0","77","1","2023-11-04 21:31:27","a725c3012b74bf33a1020a98cb69c237","181.80.3.161","Mozilla/5.0 (Windows NT 10.0; Win64; x64) AppleWebKit/537.36 (KHTML, like Gecko) Chrome/119.0.0.0 Safari/537.36","WebKit","Chrome","119.0.0.0","Windows","10.0","null","es-419,es;q=0.9","true","null","<div style=""font-size:100px;"">X</div>","null","","","fixation","","","","","","","",""
"","","","","","audio-keyboard-response","26","346451","0.0-15.0-1.0","77","1","2023-11-04 21:31:27","a725c3012b74bf33a1020a98cb69c237","181.80.3.161","Mozilla/5.0 (Windows NT 10.0; Win64; x64) AppleWebKit/537.36 (KHTML, like Gecko) Chrome/119.0.0.0 Safari/537.36","WebKit","Chrome","119.0.0.0","Windows","10.0","null","es-419,es;q=0.9","true","null","tones/880hz_short.mp3","null","","","tone_number_task","150","53","tones/880hz_short.mp3","300","100","null","null",""
"","","","","","html-keyboard-response","27","347461","0.0-15.0-4.0-0.0","77","1","2023-11-04 21:31:27","a725c3012b74bf33a1020a98cb69c237","181.80.3.161","Mozilla/5.0 (Windows NT 10.0; Win64; x64) AppleWebKit/537.36 (KHTML, like Gecko) Chrome/119.0.0.0 Safari/537.36","WebKit","Chrome","119.0.0.0","Windows","10.0","null","es-419,es;q=0.9","true","1008","tones/880hz_short.mp3","a","","","empty_block","","53","","","","null","null",""
"","","","","","html-keyboard-response","28","347529","0.0-15.0-4.0-1.0","77","1","2023-11-04 21:31:27","a725c3012b74bf33a1020a98cb69c237","181.80.3.161","Mozilla/5.0 (Windows NT 10.0; Win64; x64) AppleWebKit/537.36 (KHTML, like Gecko) Chrome/119.0.0.0 Safari/537.36","WebKit","Chrome","119.0.0.0","Windows","10.0","null","es-419,es;q=0.9","true","65","tones/880hz_short.mp3","a","","","empty_block","","53","","","","null","null",""
"","","","","","html-button-response","29","350018","0.0-15.0-6.0-0.0","77","1","2023-11-04 21:31:27","a725c3012b74bf33a1020a98cb69c237","181.80.3.161","Mozilla/5.0 (Windows NT 10.0; Win64; x64) AppleWebKit/537.36 (KHTML, like Gecko) Chrome/119.0.0.0 Safari/537.36","WebKit","Chrome","119.0.0.0","Windows","10.0","null","es-419,es;q=0.9","true","2487","
  '<p style=""font-size:24px; color:red;"">Incorrecto</p><p> Respondiste alguno de los estímulos de manera incorrecta.</p><p>Por favor, repasá las instrucciones y seguimos desde donde nos quedamos. </p>
  ","0","","","","","","","","","","",""
"","","","","","external-html","30","356072","0.0-15.0-6.0-1.0","77","1","2023-11-04 21:31:27","a725c3012b74bf33a1020a98cb69c237","181.80.3.161","Mozilla/5.0 (Windows NT 10.0; Win64; x64) AppleWebKit/537.36 (KHTML, like Gecko) Chrome/119.0.0.0 Safari/537.36","WebKit","Chrome","119.0.0.0","Windows","10.0","null","es-419,es;q=0.9","true","5779","","","","instructions/instructions_B.html","","","","","","","","",""
"","","","","","html-keyboard-response","31","358994","0.0-15.1-0.1","77","1","2023-11-04 21:31:27","a725c3012b74bf33a1020a98cb69c237","181.80.3.161","Mozilla/5.0 (Windows NT 10.0; Win64; x64) AppleWebKit/537.36 (KHTML, like Gecko) Chrome/119.0.0.0 Safari/537.36","WebKit","Chrome","119.0.0.0","Windows","10.0","null","es-419,es;q=0.9","true","null","<div style=""font-size:100px;"">X</div>","null","","","fixation","","","","","","","",""
"","","","","","audio-keyboard-response","32","359299","0.0-15.1-1.1","77","1","2023-11-04 21:31:27","a725c3012b74bf33a1020a98cb69c237","181.80.3.161","Mozilla/5.0 (Windows NT 10.0; Win64; x64) AppleWebKit/537.36 (KHTML, like Gecko) Chrome/119.0.0.0 Safari/537.36","WebKit","Chrome","119.0.0.0","Windows","10.0","null","es-419,es;q=0.9","true","null","tones/880hz_short.mp3","null","","","tone_number_task","150","53","tones/880hz_short.mp3","300","100","null","null",""
"","","","","","html-keyboard-response","33","359627","0.0-15.1-4.1-0.1","77","1","2023-11-04 21:31:27","a725c3012b74bf33a1020a98cb69c237","181.80.3.161","Mozilla/5.0 (Windows NT 10.0; Win64; x64) AppleWebKit/537.36 (KHTML, like Gecko) Chrome/119.0.0.0 Safari/537.36","WebKit","Chrome","119.0.0.0","Windows","10.0","null","es-419,es;q=0.9","true","324","tones/880hz_short.mp3","s","","","empty_block","","53","","","","null","null",""
"","","","","","html-keyboard-response","34","359882","0.0-15.1-4.1-1.1","77","1","2023-11-04 21:31:27","a725c3012b74bf33a1020a98cb69c237","181.80.3.161","Mozilla/5.0 (Windows NT 10.0; Win64; x64) AppleWebKit/537.36 (KHTML, like Gecko) Chrome/119.0.0.0 Safari/537.36","WebKit","Chrome","119.0.0.0","Windows","10.0","null","es-419,es;q=0.9","true","251","tones/880hz_short.mp3","k","","","empty_block","","53","","","","null","null",""
"","","","","","html-keyboard-response","35","362787","0.0-17.0-0.0","77","1","2023-11-04 21:31:27","a725c3012b74bf33a1020a98cb69c237","181.80.3.161","Mozilla/5.0 (Windows NT 10.0; Win64; x64) AppleWebKit/537.36 (KHTML, like Gecko) Chrome/119.0.0.0 Safari/537.36","WebKit","Chrome","119.0.0.0","Windows","10.0","null","es-419,es;q=0.9","true","null","<div style=""font-size:100px;"">X</div>","null","","","fixation","","","","","","","",""
"","","","","","audio-keyboard-response","36","363005","0.0-17.0-1.0","77","1","2023-11-04 21:31:27","a725c3012b74bf33a1020a98cb69c237","181.80.3.161","Mozilla/5.0 (Windows NT 10.0; Win64; x64) AppleWebKit/537.36 (KHTML, like Gecko) Chrome/119.0.0.0 Safari/537.36","WebKit","Chrome","119.0.0.0","Windows","10.0","null","es-419,es;q=0.9","true","null","tones/440hz_short.mp3","null","","","tone_number_task","50","23","tones/440hz_short.mp3","200","100","null","null",""
"","","","","","html-keyboard-response","37","363587","0.0-17.0-4.0-0.0","77","1","2023-11-04 21:31:27","a725c3012b74bf33a1020a98cb69c237","181.80.3.161","Mozilla/5.0 (Windows NT 10.0; Win64; x64) AppleWebKit/537.36 (KHTML, like Gecko) Chrome/119.0.0.0 Safari/537.36","WebKit","Chrome","119.0.0.0","Windows","10.0","null","es-419,es;q=0.9","true","579","tones/440hz_short.mp3","a","","","empty_block","","23","","","","null","null",""
"","","","","","html-keyboard-response","38","363890","0.0-17.0-4.0-1.0","77","1","2023-11-04 21:31:27","a725c3012b74bf33a1020a98cb69c237","181.80.3.161","Mozilla/5.0 (Windows NT 10.0; Win64; x64) AppleWebKit/537.36 (KHTML, like Gecko) Chrome/119.0.0.0 Safari/537.36","WebKit","Chrome","119.0.0.0","Windows","10.0","null","es-419,es;q=0.9","true","300","tones/440hz_short.mp3","j","","","empty_block","","23","","","","null","null",""
"","","","","","html-button-response","39","370649","0.0-19.0","77","1","2023-11-04 21:31:27","a725c3012b74bf33a1020a98cb69c237","181.80.3.161","Mozilla/5.0 (Windows NT 10.0; Win64; x64) AppleWebKit/537.36 (KHTML, like Gecko) Chrome/119.0.0.0 Safari/537.36","WebKit","Chrome","119.0.0.0","Windows","10.0","null","es-419,es;q=0.9","true","6756","
  <h1> Muy bien </h1>
  <p> Ahora, en vez de ser presentados en dígitos, los números vendrán escritos en palabras. </p>
  <p> Por ejemplo, en vez de 44 te aparecerá ""cuarenta y cuatro"". </p>
  ","0","","","","","","","","","","",""
"","","","","","html-keyboard-response","40","373558","0.0-20.0-0.0","77","1","2023-11-04 21:31:27","a725c3012b74bf33a1020a98cb69c237","181.80.3.161","Mozilla/5.0 (Windows NT 10.0; Win64; x64) AppleWebKit/537.36 (KHTML, like Gecko) Chrome/119.0.0.0 Safari/537.36","WebKit","Chrome","119.0.0.0","Windows","10.0","null","es-419,es;q=0.9","true","null","<div style=""font-size:100px;"">X</div>","null","","","fixation","","","","","","","",""
"","","","","","audio-keyboard-response","41","374214","0.0-20.0-1.0","77","1","2023-11-04 21:31:27","a725c3012b74bf33a1020a98cb69c237","181.80.3.161","Mozilla/5.0 (Windows NT 10.0; Win64; x64) AppleWebKit/537.36 (KHTML, like Gecko) Chrome/119.0.0.0 Safari/537.36","WebKit","Chrome","119.0.0.0","Windows","10.0","null","es-419,es;q=0.9","true","659","tones/440hz_short.mp3","a","","","tone_number_task","1000","cincuenta y tres","tones/440hz_short.mp3","1150","60","null","null",""
"","","","","","html-keyboard-response","42","374560","0.0-20.0-2.0-0.0","77","1","2023-11-04 21:31:27","a725c3012b74bf33a1020a98cb69c237","181.80.3.161","Mozilla/5.0 (Windows NT 10.0; Win64; x64) AppleWebKit/537.36 (KHTML, like Gecko) Chrome/119.0.0.0 Safari/537.36","WebKit","Chrome","119.0.0.0","Windows","10.0","null","es-419,es;q=0.9","true","null","","null","","","delay_block","","","","","","null","null",""
"","","","","","html-keyboard-response","43","374727","0.0-20.0-2.0-1.0","77","1","2023-11-04 21:31:27","a725c3012b74bf33a1020a98cb69c237","181.80.3.161","Mozilla/5.0 (Windows NT 10.0; Win64; x64) AppleWebKit/537.36 (KHTML, like Gecko) Chrome/119.0.0.0 Safari/537.36","WebKit","Chrome","119.0.0.0","Windows","10.0","null","es-419,es;q=0.9","true","null","<p id=""stimulus"" style=""font-size:60px;"">cincuenta y tres</p>","null","","","tone_number_task_remaining_before_delay","","cincuenta y tres","","491","60","null","null",""
"","","","","","html-keyboard-response","44","375497","0.0-20.0-5.0-0.0","77","1","2023-11-04 21:31:27","a725c3012b74bf33a1020a98cb69c237","181.80.3.161","Mozilla/5.0 (Windows NT 10.0; Win64; x64) AppleWebKit/537.36 (KHTML, like Gecko) Chrome/119.0.0.0 Safari/537.36","WebKit","Chrome","119.0.0.0","Windows","10.0","null","es-419,es;q=0.9","true","769","<p id=""stimulus"" style=""font-size:60px;"">cincuenta y tres</p>","k","","","empty_block","","cincuenta y tres","","","","null","null",""
"","","","","","html-button-response","45","377609","0.0-22.0","77","1","2023-11-04 21:31:27","a725c3012b74bf33a1020a98cb69c237","181.80.3.161","Mozilla/5.0 (Windows NT 10.0; Win64; x64) AppleWebKit/537.36 (KHTML, like Gecko) Chrome/119.0.0.0 Safari/537.36","WebKit","Chrome","119.0.0.0","Windows","10.0","null","es-419,es;q=0.9","true","2110","
  <h1> Fin del Entrenamiento </h1>
  <p> ¡Felicitaciones, terminaste el entrenamiento! Ahora vamos a comenzar con el experimento. </p>
  <p> Es importante tener en cuenta que consta de cuatro bloques.</p>
  <p> Podés aprovechar los momentos entre bloques para tomar un breve descanso o tomar agua entre cada uno</p>
  <p> Recordá que tenés que responder lo más rápido que puedas, pero sin equivocarte. </p>
  ","0","","","","","","","","","","",""
"","","","","","external-html","46","382953","0.0-23.0","77","1","2023-11-04 21:31:27","a725c3012b74bf33a1020a98cb69c237","181.80.3.161","Mozilla/5.0 (Windows NT 10.0; Win64; x64) AppleWebKit/537.36 (KHTML, like Gecko) Chrome/119.0.0.0 Safari/537.36","WebKit","Chrome","119.0.0.0","Windows","10.0","null","es-419,es;q=0.9","true","5069","","","","instructions/instructions_digits_first.html","","","","","","","","",""
"","","","","","call-function","47","382965","0.0-24.0","77","1","2023-11-04 21:31:27","a725c3012b74bf33a1020a98cb69c237","181.80.3.161","Mozilla/5.0 (Windows NT 10.0; Win64; x64) AppleWebKit/537.36 (KHTML, like Gecko) Chrome/119.0.0.0 Safari/537.36","WebKit","Chrome","119.0.0.0","Windows","10.0","null","es-419,es;q=0.9","true","","","","","","","","","","","","","",""
"","","","","","html-keyboard-response","48","385875","0.0-25.0","77","1","2023-11-04 21:31:27","a725c3012b74bf33a1020a98cb69c237","181.80.3.161","Mozilla/5.0 (Windows NT 10.0; Win64; x64) AppleWebKit/537.36 (KHTML, like Gecko) Chrome/119.0.0.0 Safari/537.36","WebKit","Chrome","119.0.0.0","Windows","10.0","null","es-419,es;q=0.9","true","null","<div style=""font-size:100px;"">X</div>","null","","","fixation","","","","","","","",""
"","","","","","audio-keyboard-response","49","386383","0.0-26.0","77","1","2023-11-04 21:31:27","a725c3012b74bf33a1020a98cb69c237","181.80.3.161","Mozilla/5.0 (Windows NT 10.0; Win64; x64) AppleWebKit/537.36 (KHTML, like Gecko) Chrome/119.0.0.0 Safari/537.36","WebKit","Chrome","119.0.0.0","Windows","10.0","null","es-419,es;q=0.9","true","509","tones/440hz_short.mp3","a","","","tone_number_task","992.5","63","tones/440hz_short.mp3","1142.5","100","0","0",""
"","","","","","html-keyboard-response","50","386875","0.0-27.0-0.0","77","1","2023-11-04 21:31:27","a725c3012b74bf33a1020a98cb69c237","181.80.3.161","Mozilla/5.0 (Windows NT 10.0; Win64; x64) AppleWebKit/537.36 (KHTML, like Gecko) Chrome/119.0.0.0 Safari/537.36","WebKit","Chrome","119.0.0.0","Windows","10.0","null","es-419,es;q=0.9","true","null","","null","","","delay_block","","","","","","0","0",""
"","","","","","html-keyboard-response","51","387033","0.0-27.0-1.0","77","1","2023-11-04 21:31:27","a725c3012b74bf33a1020a98cb69c237","181.80.3.161","Mozilla/5.0 (Windows NT 10.0; Win64; x64) AppleWebKit/537.36 (KHTML, like Gecko) Chrome/119.0.0.0 Safari/537.36","WebKit","Chrome","119.0.0.0","Windows","10.0","null","es-419,es;q=0.9","true","null","<p id=""stimulus"" style=""font-size:100px;"">63</p>","null","","","tone_number_task_remaining_before_delay","","63","","633.5","100","0","0",""
"","","","","","html-keyboard-response","52","387541","0.0-30.0-0.0","77","1","2023-11-04 21:31:27","a725c3012b74bf33a1020a98cb69c237","181.80.3.161","Mozilla/5.0 (Windows NT 10.0; Win64; x64) AppleWebKit/537.36 (KHTML, like Gecko) Chrome/119.0.0.0 Safari/537.36","WebKit","Chrome","119.0.0.0","Windows","10.0","null","es-419,es;q=0.9","true","503","<p id=""stimulus"" style=""font-size:100px;"">63</p>","k","","","empty_block","","63","","","","0","0",""
"","","","","","html-keyboard-response","53","390450","0.0-31.0","77","1","2023-11-04 21:31:27","a725c3012b74bf33a1020a98cb69c237","181.80.3.161","Mozilla/5.0 (Windows NT 10.0; Win64; x64) AppleWebKit/537.36 (KHTML, like Gecko) Chrome/119.0.0.0 Safari/537.36","WebKit","Chrome","119.0.0.0","Windows","10.0","null","es-419,es;q=0.9","true","null","<div style=""font-size:100px;"">X</div>","null","","","fixation","","","","","","","",""
"","","","","","audio-keyboard-response","54","390607","0.0-32.0","77","1","2023-11-04 21:31:27","a725c3012b74bf33a1020a98cb69c237","181.80.3.161","Mozilla/5.0 (Windows NT 10.0; Win64; x64) AppleWebKit/537.36 (KHTML, like Gecko) Chrome/119.0.0.0 Safari/537.36","WebKit","Chrome","119.0.0.0","Windows","10.0","null","es-419,es;q=0.9","true","null","tones/880hz_short.mp3","null","","","tone_number_task","0","54","tones/880hz_short.mp3","150","100","0","1",""
"","","","","","html-keyboard-response","55","391384","0.0-35.0-0.0","77","1","2023-11-04 21:31:27","a725c3012b74bf33a1020a98cb69c237","181.80.3.161","Mozilla/5.0 (Windows NT 10.0; Win64; x64) AppleWebKit/537.36 (KHTML, like Gecko) Chrome/119.0.0.0 Safari/537.36","WebKit","Chrome","119.0.0.0","Windows","10.0","null","es-419,es;q=0.9","true","773","tones/880hz_short.mp3","s","","","empty_block","","54","","","","0","1",""
"","","","","","html-keyboard-response","56","391881","0.0-35.0-1.0","77","1","2023-11-04 21:31:27","a725c3012b74bf33a1020a98cb69c237","181.80.3.161","Mozilla/5.0 (Windows NT 10.0; Win64; x64) AppleWebKit/537.36 (KHTML, like Gecko) Chrome/119.0.0.0 Safari/537.36","WebKit","Chrome","119.0.0.0","Windows","10.0","null","es-419,es;q=0.9","true","492","tones/880hz_short.mp3","j","","","empty_block","","54","","","","0","1",""
"","","","","","html-keyboard-response","57","394793","0.0-37.0","77","1","2023-11-04 21:31:27","a725c3012b74bf33a1020a98cb69c237","181.80.3.161","Mozilla/5.0 (Windows NT 10.0; Win64; x64) AppleWebKit/537.36 (KHTML, like Gecko) Chrome/119.0.0.0 Safari/537.36","WebKit","Chrome","119.0.0.0","Windows","10.0","null","es-419,es;q=0.9","true","null","<div style=""font-size:100px;"">X</div>","null","","","fixation","","","","","","","",""
"","","","","","audio-keyboard-response","58","395494","0.0-38.0","77","1","2023-11-04 21:31:27","a725c3012b74bf33a1020a98cb69c237","181.80.3.161","Mozilla/5.0 (Windows NT 10.0; Win64; x64) AppleWebKit/537.36 (KHTML, like Gecko) Chrome/119.0.0.0 Safari/537.36","WebKit","Chrome","119.0.0.0","Windows","10.0","null","es-419,es;q=0.9","true","699","tones/440hz_short.mp3","a","","","tone_number_task","1025","36","tones/440hz_short.mp3","1175","100","0","2",""
"","","","","","html-keyboard-response","59","395829","0.0-39.0-0.0","77","1","2023-11-04 21:31:27","a725c3012b74bf33a1020a98cb69c237","181.80.3.161","Mozilla/5.0 (Windows NT 10.0; Win64; x64) AppleWebKit/537.36 (KHTML, like Gecko) Chrome/119.0.0.0 Safari/537.36","WebKit","Chrome","119.0.0.0","Windows","10.0","null","es-419,es;q=0.9","true","null","","null","","","delay_block","","","","","","0","2",""
"","","","","","html-keyboard-response","60","395986","0.0-39.0-1.0","77","1","2023-11-04 21:31:27","a725c3012b74bf33a1020a98cb69c237","181.80.3.161","Mozilla/5.0 (Windows NT 10.0; Win64; x64) AppleWebKit/537.36 (KHTML, like Gecko) Chrome/119.0.0.0 Safari/537.36","WebKit","Chrome","119.0.0.0","Windows","10.0","null","es-419,es;q=0.9","true","null","<p id=""stimulus"" style=""font-size:100px;"">36</p>","null","","","tone_number_task_remaining_before_delay","","36","","476","100","0","2",""
"","","","","","html-keyboard-response","61","396805","0.0-42.0-0.0","77","1","2023-11-04 21:31:27","a725c3012b74bf33a1020a98cb69c237","181.80.3.161","Mozilla/5.0 (Windows NT 10.0; Win64; x64) AppleWebKit/537.36 (KHTML, like Gecko) Chrome/119.0.0.0 Safari/537.36","WebKit","Chrome","119.0.0.0","Windows","10.0","null","es-419,es;q=0.9","true","815","<p id=""stimulus"" style=""font-size:100px;"">36</p>","j","","","empty_block","","36","","","","0","2",""
"","","","","","html-keyboard-response","62","399712","0.0-43.0","77","1","2023-11-04 21:31:27","a725c3012b74bf33a1020a98cb69c237","181.80.3.161","Mozilla/5.0 (Windows NT 10.0; Win64; x64) AppleWebKit/537.36 (KHTML, like Gecko) Chrome/119.0.0.0 Safari/537.36","WebKit","Chrome","119.0.0.0","Windows","10.0","null","es-419,es;q=0.9","true","null","<div style=""font-size:100px;"">X</div>","null","","","fixation","","","","","","","",""
"","","","","","audio-keyboard-response","63","399871","0.0-44.0","77","1","2023-11-04 21:31:27","a725c3012b74bf33a1020a98cb69c237","181.80.3.161","Mozilla/5.0 (Windows NT 10.0; Win64; x64) AppleWebKit/537.36 (KHTML, like Gecko) Chrome/119.0.0.0 Safari/537.36","WebKit","Chrome","119.0.0.0","Windows","10.0","null","es-419,es;q=0.9","true","null","tones/440hz_short.mp3","null","","","tone_number_task","0","66","tones/440hz_short.mp3","150","100","0","3",""
"","","","","","html-keyboard-response","64","400589","0.0-47.0-0.0","77","1","2023-11-04 21:31:27","a725c3012b74bf33a1020a98cb69c237","181.80.3.161","Mozilla/5.0 (Windows NT 10.0; Win64; x64) AppleWebKit/537.36 (KHTML, like Gecko) Chrome/119.0.0.0 Safari/537.36","WebKit","Chrome","119.0.0.0","Windows","10.0","null","es-419,es;q=0.9","true","713","tones/440hz_short.mp3","a","","","empty_block","","66","","","","0","3",""
"","","","","","html-keyboard-response","65","401030","0.0-47.0-1.0","77","1","2023-11-04 21:31:27","a725c3012b74bf33a1020a98cb69c237","181.80.3.161","Mozilla/5.0 (Windows NT 10.0; Win64; x64) AppleWebKit/537.36 (KHTML, like Gecko) Chrome/119.0.0.0 Safari/537.36","WebKit","Chrome","119.0.0.0","Windows","10.0","null","es-419,es;q=0.9","true","435","tones/440hz_short.mp3","k","","","empty_block","","66","","","","0","3",""
"","","","","","html-keyboard-response","66","403938","0.0-49.0","77","1","2023-11-04 21:31:27","a725c3012b74bf33a1020a98cb69c237","181.80.3.161","Mozilla/5.0 (Windows NT 10.0; Win64; x64) AppleWebKit/537.36 (KHTML, like Gecko) Chrome/119.0.0.0 Safari/537.36","WebKit","Chrome","119.0.0.0","Windows","10.0","null","es-419,es;q=0.9","true","null","<div style=""font-size:100px;"">X</div>","null","","","fixation","","","","","","","",""
"","","","","","audio-keyboard-response","67","404197","0.0-50.0","77","1","2023-11-04 21:31:27","a725c3012b74bf33a1020a98cb69c237","181.80.3.161","Mozilla/5.0 (Windows NT 10.0; Win64; x64) AppleWebKit/537.36 (KHTML, like Gecko) Chrome/119.0.0.0 Safari/537.36","WebKit","Chrome","119.0.0.0","Windows","10.0","null","es-419,es;q=0.9","true","null","tones/440hz_short.mp3","null","","","tone_number_task","102.5","62","tones/440hz_short.mp3","252.5","100","0","4",""
"","","","","","html-keyboard-response","68","404529","0.0-53.0-0.0","77","1","2023-11-04 21:31:27","a725c3012b74bf33a1020a98cb69c237","181.80.3.161","Mozilla/5.0 (Windows NT 10.0; Win64; x64) AppleWebKit/537.36 (KHTML, like Gecko) Chrome/119.0.0.0 Safari/537.36","WebKit","Chrome","119.0.0.0","Windows","10.0","null","es-419,es;q=0.9","true","326","tones/440hz_short.mp3","a","","","empty_block","","62","","","","0","4",""
"","","","","","html-keyboard-response","69","404943","0.0-53.0-1.0","77","1","2023-11-04 21:31:27","a725c3012b74bf33a1020a98cb69c237","181.80.3.161","Mozilla/5.0 (Windows NT 10.0; Win64; x64) AppleWebKit/537.36 (KHTML, like Gecko) Chrome/119.0.0.0 Safari/537.36","WebKit","Chrome","119.0.0.0","Windows","10.0","null","es-419,es;q=0.9","true","410","tones/440hz_short.mp3","k","","","empty_block","","62","","","","0","4",""
"","","","","","html-keyboard-response","70","407853","0.0-55.0","77","1","2023-11-04 21:31:27","a725c3012b74bf33a1020a98cb69c237","181.80.3.161","Mozilla/5.0 (Windows NT 10.0; Win64; x64) AppleWebKit/537.36 (KHTML, like Gecko) Chrome/119.0.0.0 Safari/537.36","WebKit","Chrome","119.0.0.0","Windows","10.0","null","es-419,es;q=0.9","true","null","<div style=""font-size:100px;"">X</div>","null","","","fixation","","","","","","","",""
"","","","","","audio-keyboard-response","71","408111","0.0-56.0","77","1","2023-11-04 21:31:27","a725c3012b74bf33a1020a98cb69c237","181.80.3.161","Mozilla/5.0 (Windows NT 10.0; Win64; x64) AppleWebKit/537.36 (KHTML, like Gecko) Chrome/119.0.0.0 Safari/537.36","WebKit","Chrome","119.0.0.0","Windows","10.0","null","es-419,es;q=0.9","true","null","tones/440hz_short.mp3","null","","","tone_number_task","102.5","47","tones/440hz_short.mp3","252.5","100","0","5",""
"","","","","","html-keyboard-response","72","408700","0.0-59.0-0.0","77","1","2023-11-04 21:31:27","a725c3012b74bf33a1020a98cb69c237","181.80.3.161","Mozilla/5.0 (Windows NT 10.0; Win64; x64) AppleWebKit/537.36 (KHTML, like Gecko) Chrome/119.0.0.0 Safari/537.36","WebKit","Chrome","119.0.0.0","Windows","10.0","null","es-419,es;q=0.9","true","583","tones/440hz_short.mp3","a","","","empty_block","","47","","","","0","5",""
"","","","","","html-keyboard-response","73","408760","0.0-59.0-1.0","77","1","2023-11-04 21:31:27","a725c3012b74bf33a1020a98cb69c237","181.80.3.161","Mozilla/5.0 (Windows NT 10.0; Win64; x64) AppleWebKit/537.36 (KHTML, like Gecko) Chrome/119.0.0.0 Safari/537.36","WebKit","Chrome","119.0.0.0","Windows","10.0","null","es-419,es;q=0.9","true","55","tones/440hz_short.mp3","a","","","empty_block","","47","","","","0","5",""
"","","","","","html-keyboard-response","74","411665","0.0-61.0","77","1","2023-11-04 21:31:27","a725c3012b74bf33a1020a98cb69c237","181.80.3.161","Mozilla/5.0 (Windows NT 10.0; Win64; x64) AppleWebKit/537.36 (KHTML, like Gecko) Chrome/119.0.0.0 Safari/537.36","WebKit","Chrome","119.0.0.0","Windows","10.0","null","es-419,es;q=0.9","true","null","<div style=""font-size:100px;"">X</div>","null","","","fixation","","","","","","","",""
"","","","","","audio-keyboard-response","75","412610","0.0-62.0","77","1","2023-11-04 21:31:27","a725c3012b74bf33a1020a98cb69c237","181.80.3.161","Mozilla/5.0 (Windows NT 10.0; Win64; x64) AppleWebKit/537.36 (KHTML, like Gecko) Chrome/119.0.0.0 Safari/537.36","WebKit","Chrome","119.0.0.0","Windows","10.0","null","es-419,es;q=0.9","true","928","tones/880hz_short.mp3","s","","","tone_number_task","992.5","30","tones/880hz_short.mp3","1142.5","100","0","6",""
"","","","","","html-keyboard-response","76","412685","0.0-63.0-0.0","77","1","2023-11-04 21:31:27","a725c3012b74bf33a1020a98cb69c237","181.80.3.161","Mozilla/5.0 (Windows NT 10.0; Win64; x64) AppleWebKit/537.36 (KHTML, like Gecko) Chrome/119.0.0.0 Safari/537.36","WebKit","Chrome","119.0.0.0","Windows","10.0","null","es-419,es;q=0.9","true","null","","null","","","delay_block","","","","","","0","6",""
"","","","","","html-keyboard-response","77","412843","0.0-63.0-1.0","77","1","2023-11-04 21:31:27","a725c3012b74bf33a1020a98cb69c237","181.80.3.161","Mozilla/5.0 (Windows NT 10.0; Win64; x64) AppleWebKit/537.36 (KHTML, like Gecko) Chrome/119.0.0.0 Safari/537.36","WebKit","Chrome","119.0.0.0","Windows","10.0","null","es-419,es;q=0.9","true","null","<p id=""stimulus"" style=""font-size:100px;"">30</p>","null","","","tone_number_task_remaining_before_delay","","30","","214.5","100","0","6",""
"","","","","","html-keyboard-response","78","413534","0.0-66.0-0.0","77","1","2023-11-04 21:31:27","a725c3012b74bf33a1020a98cb69c237","181.80.3.161","Mozilla/5.0 (Windows NT 10.0; Win64; x64) AppleWebKit/537.36 (KHTML, like Gecko) Chrome/119.0.0.0 Safari/537.36","WebKit","Chrome","119.0.0.0","Windows","10.0","null","es-419,es;q=0.9","true","685","<p id=""stimulus"" style=""font-size:100px;"">30</p>","j","","","empty_block","","30","","","","0","6",""
"","","","","","html-keyboard-response","79","416443","0.0-67.0","77","1","2023-11-04 21:31:27","a725c3012b74bf33a1020a98cb69c237","181.80.3.161","Mozilla/5.0 (Windows NT 10.0; Win64; x64) AppleWebKit/537.36 (KHTML, like Gecko) Chrome/119.0.0.0 Safari/537.36","WebKit","Chrome","119.0.0.0","Windows","10.0","null","es-419,es;q=0.9","true","null","<div style=""font-size:100px;"">X</div>","null","","","fixation","","","","","","","",""
"","","","","","audio-keyboard-response","80","417380","0.0-68.0","77","1","2023-11-04 21:31:27","a725c3012b74bf33a1020a98cb69c237","181.80.3.161","Mozilla/5.0 (Windows NT 10.0; Win64; x64) AppleWebKit/537.36 (KHTML, like Gecko) Chrome/119.0.0.0 Safari/537.36","WebKit","Chrome","119.0.0.0","Windows","10.0","null","es-419,es;q=0.9","true","931","tones/880hz_short.mp3","s","","","tone_number_task","992.5","61","tones/880hz_short.mp3","1142.5","100","0","7",""
"","","","","","html-keyboard-response","81","417459","0.0-69.0-0.0","77","1","2023-11-04 21:31:27","a725c3012b74bf33a1020a98cb69c237","181.80.3.161","Mozilla/5.0 (Windows NT 10.0; Win64; x64) AppleWebKit/537.36 (KHTML, like Gecko) Chrome/119.0.0.0 Safari/537.36","WebKit","Chrome","119.0.0.0","Windows","10.0","null","es-419,es;q=0.9","true","null","","null","","","delay_block","","","","","","0","7",""
"","","","","","html-keyboard-response","82","417618","0.0-69.0-1.0","77","1","2023-11-04 21:31:27","a725c3012b74bf33a1020a98cb69c237","181.80.3.161","Mozilla/5.0 (Windows NT 10.0; Win64; x64) AppleWebKit/537.36 (KHTML, like Gecko) Chrome/119.0.0.0 Safari/537.36","WebKit","Chrome","119.0.0.0","Windows","10.0","null","es-419,es;q=0.9","true","null","<p id=""stimulus"" style=""font-size:100px;"">61</p>","null","","","tone_number_task_remaining_before_delay","","61","","211.5","100","0","7",""
"","","","","","html-keyboard-response","83","418197","0.0-72.0-0.0","77","1","2023-11-04 21:31:27","a725c3012b74bf33a1020a98cb69c237","181.80.3.161","Mozilla/5.0 (Windows NT 10.0; Win64; x64) AppleWebKit/537.36 (KHTML, like Gecko) Chrome/119.0.0.0 Safari/537.36","WebKit","Chrome","119.0.0.0","Windows","10.0","null","es-419,es;q=0.9","true","575","<p id=""stimulus"" style=""font-size:100px;"">61</p>","k","","","empty_block","","61","","","","0","7",""
"","","","","","html-keyboard-response","84","421115","0.0-73.0","77","1","2023-11-04 21:31:27","a725c3012b74bf33a1020a98cb69c237","181.80.3.161","Mozilla/5.0 (Windows NT 10.0; Win64; x64) AppleWebKit/537.36 (KHTML, like Gecko) Chrome/119.0.0.0 Safari/537.36","WebKit","Chrome","119.0.0.0","Windows","10.0","null","es-419,es;q=0.9","true","null","<div style=""font-size:100px;"">X</div>","null","","","fixation","","","","","","","",""
"","","","","","audio-keyboard-response","85","421371","0.0-74.0","77","1","2023-11-04 21:31:27","a725c3012b74bf33a1020a98cb69c237","181.80.3.161","Mozilla/5.0 (Windows NT 10.0; Win64; x64) AppleWebKit/537.36 (KHTML, like Gecko) Chrome/119.0.0.0 Safari/537.36","WebKit","Chrome","119.0.0.0","Windows","10.0","null","es-419,es;q=0.9","true","null","tones/440hz_short.mp3","null","","","tone_number_task","102.5","24","tones/440hz_short.mp3","252.5","100","0","8",""
"","","","","","html-keyboard-response","86","422584","0.0-77.0-0.0","77","1","2023-11-04 21:31:27","a725c3012b74bf33a1020a98cb69c237","181.80.3.161","Mozilla/5.0 (Windows NT 10.0; Win64; x64) AppleWebKit/537.36 (KHTML, like Gecko) Chrome/119.0.0.0 Safari/537.36","WebKit","Chrome","119.0.0.0","Windows","10.0","null","es-419,es;q=0.9","true","null","tones/440hz_short.mp3","null","","","empty_block","","24","","","","0","8",""
"","","","","","html-keyboard-response","87","422654","0.0-77.0-1.0","77","1","2023-11-04 21:31:27","a725c3012b74bf33a1020a98cb69c237","181.80.3.161","Mozilla/5.0 (Windows NT 10.0; Win64; x64) AppleWebKit/537.36 (KHTML, like Gecko) Chrome/119.0.0.0 Safari/537.36","WebKit","Chrome","119.0.0.0","Windows","10.0","null","es-419,es;q=0.9","true","66","tones/440hz_short.mp3","a","","","empty_block","","24","","","","0","8",""
"","","","","","html-keyboard-response","88","425557","0.0-79.0","77","1","2023-11-04 21:31:27","a725c3012b74bf33a1020a98cb69c237","181.80.3.161","Mozilla/5.0 (Windows NT 10.0; Win64; x64) AppleWebKit/537.36 (KHTML, like Gecko) Chrome/119.0.0.0 Safari/537.36","WebKit","Chrome","119.0.0.0","Windows","10.0","null","es-419,es;q=0.9","true","null","<div style=""font-size:100px;"">X</div>","null","","","fixation","","","","","","","",""
"","","","","","audio-keyboard-response","89","425714","0.0-80.0","77","1","2023-11-04 21:31:27","a725c3012b74bf33a1020a98cb69c237","181.80.3.161","Mozilla/5.0 (Windows NT 10.0; Win64; x64) AppleWebKit/537.36 (KHTML, like Gecko) Chrome/119.0.0.0 Safari/537.36","WebKit","Chrome","119.0.0.0","Windows","10.0","null","es-419,es;q=0.9","true","null","tones/440hz_short.mp3","null","","","tone_number_task","0","29","tones/440hz_short.mp3","150","100","0","9",""
"","","","","","html-keyboard-response","90","426647","0.0-83.0-0.0","77","1","2023-11-04 21:31:27","a725c3012b74bf33a1020a98cb69c237","181.80.3.161","Mozilla/5.0 (Windows NT 10.0; Win64; x64) AppleWebKit/537.36 (KHTML, like Gecko) Chrome/119.0.0.0 Safari/537.36","WebKit","Chrome","119.0.0.0","Windows","10.0","null","es-419,es;q=0.9","true","929","tones/440hz_short.mp3","a","","","empty_block","","29","","","","0","9",""
"","","","","","html-keyboard-response","91","426917","0.0-83.0-1.0","77","1","2023-11-04 21:31:27","a725c3012b74bf33a1020a98cb69c237","181.80.3.161","Mozilla/5.0 (Windows NT 10.0; Win64; x64) AppleWebKit/537.36 (KHTML, like Gecko) Chrome/119.0.0.0 Safari/537.36","WebKit","Chrome","119.0.0.0","Windows","10.0","null","es-419,es;q=0.9","true","266","tones/440hz_short.mp3","j","","","empty_block","","29","","","","0","9",""
"","","","","","html-keyboard-response","92","429823","0.0-85.0","77","1","2023-11-04 21:31:27","a725c3012b74bf33a1020a98cb69c237","181.80.3.161","Mozilla/5.0 (Windows NT 10.0; Win64; x64) AppleWebKit/537.36 (KHTML, like Gecko) Chrome/119.0.0.0 Safari/537.36","WebKit","Chrome","119.0.0.0","Windows","10.0","null","es-419,es;q=0.9","true","null","<div style=""font-size:100px;"">X</div>","null","","","fixation","","","","","","","",""
"","","","","","audio-keyboard-response","93","430596","0.0-86.0","77","1","2023-11-04 21:31:27","a725c3012b74bf33a1020a98cb69c237","181.80.3.161","Mozilla/5.0 (Windows NT 10.0; Win64; x64) AppleWebKit/537.36 (KHTML, like Gecko) Chrome/119.0.0.0 Safari/537.36","WebKit","Chrome","119.0.0.0","Windows","10.0","null","es-419,es;q=0.9","true","771","tones/440hz_short.mp3","a","","","tone_number_task","1025","30","tones/440hz_short.mp3","1175","100","0","10",""
"","","","","","html-keyboard-response","94","430861","0.0-87.0-0.0","77","1","2023-11-04 21:31:27","a725c3012b74bf33a1020a98cb69c237","181.80.3.161","Mozilla/5.0 (Windows NT 10.0; Win64; x64) AppleWebKit/537.36 (KHTML, like Gecko) Chrome/119.0.0.0 Safari/537.36","WebKit","Chrome","119.0.0.0","Windows","10.0","null","es-419,es;q=0.9","true","null","","null","","","delay_block","","","","","","0","10",""
"","","","","","html-keyboard-response","95","431016","0.0-87.0-1.0","77","1","2023-11-04 21:31:27","a725c3012b74bf33a1020a98cb69c237","181.80.3.161","Mozilla/5.0 (Windows NT 10.0; Win64; x64) AppleWebKit/537.36 (KHTML, like Gecko) Chrome/119.0.0.0 Safari/537.36","WebKit","Chrome","119.0.0.0","Windows","10.0","null","es-419,es;q=0.9","true","null","<p id=""stimulus"" style=""font-size:100px;"">30</p>","null","","","tone_number_task_remaining_before_delay","","30","","404","100","0","10",""
"","","","","","html-keyboard-response","96","431584","0.0-90.0-0.0","77","1","2023-11-04 21:31:27","a725c3012b74bf33a1020a98cb69c237","181.80.3.161","Mozilla/5.0 (Windows NT 10.0; Win64; x64) AppleWebKit/537.36 (KHTML, like Gecko) Chrome/119.0.0.0 Safari/537.36","WebKit","Chrome","119.0.0.0","Windows","10.0","null","es-419,es;q=0.9","true","565","<p id=""stimulus"" style=""font-size:100px;"">30</p>","j","","","empty_block","","30","","","","0","10",""
"","","","","","html-keyboard-response","97","434490","0.0-91.0","77","1","2023-11-04 21:31:27","a725c3012b74bf33a1020a98cb69c237","181.80.3.161","Mozilla/5.0 (Windows NT 10.0; Win64; x64) AppleWebKit/537.36 (KHTML, like Gecko) Chrome/119.0.0.0 Safari/537.36","WebKit","Chrome","119.0.0.0","Windows","10.0","null","es-419,es;q=0.9","true","null","<div style=""font-size:100px;"">X</div>","null","","","fixation","","","","","","","",""
"","","","","","audio-keyboard-response","98","434756","0.0-92.0","77","1","2023-11-04 21:31:27","a725c3012b74bf33a1020a98cb69c237","181.80.3.161","Mozilla/5.0 (Windows NT 10.0; Win64; x64) AppleWebKit/537.36 (KHTML, like Gecko) Chrome/119.0.0.0 Safari/537.36","WebKit","Chrome","119.0.0.0","Windows","10.0","null","es-419,es;q=0.9","true","null","tones/880hz_short.mp3","null","","","tone_number_task","102.5","24","tones/880hz_short.mp3","252.5","100","0","11",""
"","","","","","html-keyboard-response","99","435621","0.0-95.0-0.0","77","1","2023-11-04 21:31:27","a725c3012b74bf33a1020a98cb69c237","181.80.3.161","Mozilla/5.0 (Windows NT 10.0; Win64; x64) AppleWebKit/537.36 (KHTML, like Gecko) Chrome/119.0.0.0 Safari/537.36","WebKit","Chrome","119.0.0.0","Windows","10.0","null","es-419,es;q=0.9","true","861","tones/880hz_short.mp3","s","","","empty_block","","24","","","","0","11",""
"","","","","","html-keyboard-response","100","436050","0.0-95.0-1.0","77","1","2023-11-04 21:31:27","a725c3012b74bf33a1020a98cb69c237","181.80.3.161","Mozilla/5.0 (Windows NT 10.0; Win64; x64) AppleWebKit/537.36 (KHTML, like Gecko) Chrome/119.0.0.0 Safari/537.36","WebKit","Chrome","119.0.0.0","Windows","10.0","null","es-419,es;q=0.9","true","422","tones/880hz_short.mp3","j","","","empty_block","","24","","","","0","11",""
"","","","","","html-keyboard-response","101","438961","0.0-97.0","77","1","2023-11-04 21:31:27","a725c3012b74bf33a1020a98cb69c237","181.80.3.161","Mozilla/5.0 (Windows NT 10.0; Win64; x64) AppleWebKit/537.36 (KHTML, like Gecko) Chrome/119.0.0.0 Safari/537.36","WebKit","Chrome","119.0.0.0","Windows","10.0","null","es-419,es;q=0.9","true","null","<div style=""font-size:100px;"">X</div>","null","","","fixation","","","","","","","",""
"","","","","","audio-keyboard-response","102","440051","0.0-98.0","77","1","2023-11-04 21:31:27","a725c3012b74bf33a1020a98cb69c237","181.80.3.161","Mozilla/5.0 (Windows NT 10.0; Win64; x64) AppleWebKit/537.36 (KHTML, like Gecko) Chrome/119.0.0.0 Safari/537.36","WebKit","Chrome","119.0.0.0","Windows","10.0","null","es-419,es;q=0.9","true","1080","tones/880hz_short.mp3","s","","","tone_number_task","992.5","56","tones/880hz_short.mp3","1142.5","100","0","12",""
"","","","","","html-keyboard-response","103","440125","0.0-100.0-0.0","77","1","2023-11-04 21:31:27","a725c3012b74bf33a1020a98cb69c237","181.80.3.161","Mozilla/5.0 (Windows NT 10.0; Win64; x64) AppleWebKit/537.36 (KHTML, like Gecko) Chrome/119.0.0.0 Safari/537.36","WebKit","Chrome","119.0.0.0","Windows","10.0","null","es-419,es;q=0.9","true","null","<p id=""stimulus"" style=""font-size:100px;"">56</p>","null","","","tone_number_task_remaining_after_delay","","56","","","100","0","12",""
"","","","","","html-keyboard-response","104","441198","0.0-102.0-0.0","77","1","2023-11-04 21:31:27","a725c3012b74bf33a1020a98cb69c237","181.80.3.161","Mozilla/5.0 (Windows NT 10.0; Win64; x64) AppleWebKit/537.36 (KHTML, like Gecko) Chrome/119.0.0.0 Safari/537.36","WebKit","Chrome","119.0.0.0","Windows","10.0","null","es-419,es;q=0.9","true","1065","<p id=""stimulus"" style=""font-size:100px;"">56</p>","j","","","empty_block","","56","","","","0","12",""
"","","","","","html-keyboard-response","105","444104","0.0-103.0","77","1","2023-11-04 21:31:27","a725c3012b74bf33a1020a98cb69c237","181.80.3.161","Mozilla/5.0 (Windows NT 10.0; Win64; x64) AppleWebKit/537.36 (KHTML, like Gecko) Chrome/119.0.0.0 Safari/537.36","WebKit","Chrome","119.0.0.0","Windows","10.0","null","es-419,es;q=0.9","true","null","<div style=""font-size:100px;"">X</div>","null","","","fixation","","","","","","","",""
"","","","","","audio-keyboard-response","106","444961","0.0-104.0","77","1","2023-11-04 21:31:27","a725c3012b74bf33a1020a98cb69c237","181.80.3.161","Mozilla/5.0 (Windows NT 10.0; Win64; x64) AppleWebKit/537.36 (KHTML, like Gecko) Chrome/119.0.0.0 Safari/537.36","WebKit","Chrome","119.0.0.0","Windows","10.0","null","es-419,es;q=0.9","true","851","tones/880hz_short.mp3","s","","","tone_number_task","992.5","43","tones/880hz_short.mp3","1142.5","100","0","13",""
"","","","","","html-keyboard-response","107","445114","0.0-105.0-0.0","77","1","2023-11-04 21:31:27","a725c3012b74bf33a1020a98cb69c237","181.80.3.161","Mozilla/5.0 (Windows NT 10.0; Win64; x64) AppleWebKit/537.36 (KHTML, like Gecko) Chrome/119.0.0.0 Safari/537.36","WebKit","Chrome","119.0.0.0","Windows","10.0","null","es-419,es;q=0.9","true","null","","null","","","delay_block","","","","","","0","13",""
"","","","","","html-keyboard-response","108","445272","0.0-105.0-1.0","77","1","2023-11-04 21:31:27","a725c3012b74bf33a1020a98cb69c237","181.80.3.161","Mozilla/5.0 (Windows NT 10.0; Win64; x64) AppleWebKit/537.36 (KHTML, like Gecko) Chrome/119.0.0.0 Safari/537.36","WebKit","Chrome","119.0.0.0","Windows","10.0","null","es-419,es;q=0.9","true","null","<p id=""stimulus"" style=""font-size:100px;"">43</p>","null","","","tone_number_task_remaining_before_delay","","43","","291.5","100","0","13",""
"","","","","","html-keyboard-response","109","445970","0.0-108.0-0.0","77","1","2023-11-04 21:31:27","a725c3012b74bf33a1020a98cb69c237","181.80.3.161","Mozilla/5.0 (Windows NT 10.0; Win64; x64) AppleWebKit/537.36 (KHTML, like Gecko) Chrome/119.0.0.0 Safari/537.36","WebKit","Chrome","119.0.0.0","Windows","10.0","null","es-419,es;q=0.9","true","694","<p id=""stimulus"" style=""font-size:100px;"">43</p>","j","","","empty_block","","43","","","","0","13",""
"","","","","","html-keyboard-response","110","448890","0.0-109.0","77","1","2023-11-04 21:31:27","a725c3012b74bf33a1020a98cb69c237","181.80.3.161","Mozilla/5.0 (Windows NT 10.0; Win64; x64) AppleWebKit/537.36 (KHTML, like Gecko) Chrome/119.0.0.0 Safari/537.36","WebKit","Chrome","119.0.0.0","Windows","10.0","null","es-419,es;q=0.9","true","null","<div style=""font-size:100px;"">X</div>","null","","","fixation","","","","","","","",""
"","","","","","audio-keyboard-response","111","449054","0.0-110.0","77","1","2023-11-04 21:31:27","a725c3012b74bf33a1020a98cb69c237","181.80.3.161","Mozilla/5.0 (Windows NT 10.0; Win64; x64) AppleWebKit/537.36 (KHTML, like Gecko) Chrome/119.0.0.0 Safari/537.36","WebKit","Chrome","119.0.0.0","Windows","10.0","null","es-419,es;q=0.9","true","null","tones/880hz_short.mp3","null","","","tone_number_task","0","50","tones/880hz_short.mp3","150","100","0","14",""
"","","","","","html-keyboard-response","112","449623","0.0-113.0-0.0","77","1","2023-11-04 21:31:27","a725c3012b74bf33a1020a98cb69c237","181.80.3.161","Mozilla/5.0 (Windows NT 10.0; Win64; x64) AppleWebKit/537.36 (KHTML, like Gecko) Chrome/119.0.0.0 Safari/537.36","WebKit","Chrome","119.0.0.0","Windows","10.0","null","es-419,es;q=0.9","true","562","tones/880hz_short.mp3","s","","","empty_block","","50","","","","0","14",""
"","","","","","html-keyboard-response","113","450010","0.0-113.0-1.0","77","1","2023-11-04 21:31:27","a725c3012b74bf33a1020a98cb69c237","181.80.3.161","Mozilla/5.0 (Windows NT 10.0; Win64; x64) AppleWebKit/537.36 (KHTML, like Gecko) Chrome/119.0.0.0 Safari/537.36","WebKit","Chrome","119.0.0.0","Windows","10.0","null","es-419,es;q=0.9","true","380","tones/880hz_short.mp3","k","","","empty_block","","50","","","","0","14",""
"","","","","","html-keyboard-response","114","452918","0.0-115.0","77","1","2023-11-04 21:31:27","a725c3012b74bf33a1020a98cb69c237","181.80.3.161","Mozilla/5.0 (Windows NT 10.0; Win64; x64) AppleWebKit/537.36 (KHTML, like Gecko) Chrome/119.0.0.0 Safari/537.36","WebKit","Chrome","119.0.0.0","Windows","10.0","null","es-419,es;q=0.9","true","null","<div style=""font-size:100px;"">X</div>","null","","","fixation","","","","","","","",""
"","","","","","audio-keyboard-response","115","453093","0.0-116.0","77","1","2023-11-04 21:31:27","a725c3012b74bf33a1020a98cb69c237","181.80.3.161","Mozilla/5.0 (Windows NT 10.0; Win64; x64) AppleWebKit/537.36 (KHTML, like Gecko) Chrome/119.0.0.0 Safari/537.36","WebKit","Chrome","119.0.0.0","Windows","10.0","null","es-419,es;q=0.9","true","null","tones/440hz_short.mp3","null","","","tone_number_task","0","65","tones/440hz_short.mp3","150","100","0","15",""
"","","","","","html-keyboard-response","116","453941","0.0-119.0-0.0","77","1","2023-11-04 21:31:27","a725c3012b74bf33a1020a98cb69c237","181.80.3.161","Mozilla/5.0 (Windows NT 10.0; Win64; x64) AppleWebKit/537.36 (KHTML, like Gecko) Chrome/119.0.0.0 Safari/537.36","WebKit","Chrome","119.0.0.0","Windows","10.0","null","es-419,es;q=0.9","true","839","tones/440hz_short.mp3","a","","","empty_block","","65","","","","0","15",""
"","","","","","html-keyboard-response","117","454470","0.0-119.0-1.0","77","1","2023-11-04 21:31:27","a725c3012b74bf33a1020a98cb69c237","181.80.3.161","Mozilla/5.0 (Windows NT 10.0; Win64; x64) AppleWebKit/537.36 (KHTML, like Gecko) Chrome/119.0.0.0 Safari/537.36","WebKit","Chrome","119.0.0.0","Windows","10.0","null","es-419,es;q=0.9","true","520","tones/440hz_short.mp3","k","","","empty_block","","65","","","","0","15",""
"","","","","","html-keyboard-response","118","457382","0.0-121.0","77","1","2023-11-04 21:31:27","a725c3012b74bf33a1020a98cb69c237","181.80.3.161","Mozilla/5.0 (Windows NT 10.0; Win64; x64) AppleWebKit/537.36 (KHTML, like Gecko) Chrome/119.0.0.0 Safari/537.36","WebKit","Chrome","119.0.0.0","Windows","10.0","null","es-419,es;q=0.9","true","null","<div style=""font-size:100px;"">X</div>","null","","","fixation","","","","","","","",""
"","","","","","audio-keyboard-response","119","458180","0.0-122.0","77","1","2023-11-04 21:31:27","a725c3012b74bf33a1020a98cb69c237","181.80.3.161","Mozilla/5.0 (Windows NT 10.0; Win64; x64) AppleWebKit/537.36 (KHTML, like Gecko) Chrome/119.0.0.0 Safari/537.36","WebKit","Chrome","119.0.0.0","Windows","10.0","null","es-419,es;q=0.9","true","789","tones/880hz_short.mp3","s","","","tone_number_task","1025","49","tones/880hz_short.mp3","1175","100","0","16",""
"","","","","","html-keyboard-response","120","458440","0.0-123.0-0.0","77","1","2023-11-04 21:31:27","a725c3012b74bf33a1020a98cb69c237","181.80.3.161","Mozilla/5.0 (Windows NT 10.0; Win64; x64) AppleWebKit/537.36 (KHTML, like Gecko) Chrome/119.0.0.0 Safari/537.36","WebKit","Chrome","119.0.0.0","Windows","10.0","null","es-419,es;q=0.9","true","null","","null","","","delay_block","","","","","","0","16",""
"","","","","","html-keyboard-response","121","458607","0.0-123.0-1.0","77","1","2023-11-04 21:31:27","a725c3012b74bf33a1020a98cb69c237","181.80.3.161","Mozilla/5.0 (Windows NT 10.0; Win64; x64) AppleWebKit/537.36 (KHTML, like Gecko) Chrome/119.0.0.0 Safari/537.36","WebKit","Chrome","119.0.0.0","Windows","10.0","null","es-419,es;q=0.9","true","null","<p id=""stimulus"" style=""font-size:100px;"">49</p>","null","","","tone_number_task_remaining_before_delay","","49","","386","100","0","16",""
"","","","","","html-keyboard-response","122","459613","0.0-126.0-0.0","77","1","2023-11-04 21:31:27","a725c3012b74bf33a1020a98cb69c237","181.80.3.161","Mozilla/5.0 (Windows NT 10.0; Win64; x64) AppleWebKit/537.36 (KHTML, like Gecko) Chrome/119.0.0.0 Safari/537.36","WebKit","Chrome","119.0.0.0","Windows","10.0","null","es-419,es;q=0.9","true","996","<p id=""stimulus"" style=""font-size:100px;"">49</p>","j","","","empty_block","","49","","","","0","16",""
"","","","","","html-keyboard-response","123","462533","0.0-127.0","77","1","2023-11-04 21:31:27","a725c3012b74bf33a1020a98cb69c237","181.80.3.161","Mozilla/5.0 (Windows NT 10.0; Win64; x64) AppleWebKit/537.36 (KHTML, like Gecko) Chrome/119.0.0.0 Safari/537.36","WebKit","Chrome","119.0.0.0","Windows","10.0","null","es-419,es;q=0.9","true","null","<div style=""font-size:100px;"">X</div>","null","","","fixation","","","","","","","",""
"","","","","","audio-keyboard-response","124","462796","0.0-128.0","77","1","2023-11-04 21:31:27","a725c3012b74bf33a1020a98cb69c237","181.80.3.161","Mozilla/5.0 (Windows NT 10.0; Win64; x64) AppleWebKit/537.36 (KHTML, like Gecko) Chrome/119.0.0.0 Safari/537.36","WebKit","Chrome","119.0.0.0","Windows","10.0","null","es-419,es;q=0.9","true","null","tones/440hz_short.mp3","null","","","tone_number_task","102.5","59","tones/440hz_short.mp3","252.5","100","0","17",""
"","","","","","html-keyboard-response","125","463538","0.0-131.0-0.0","77","1","2023-11-04 21:31:27","a725c3012b74bf33a1020a98cb69c237","181.80.3.161","Mozilla/5.0 (Windows NT 10.0; Win64; x64) AppleWebKit/537.36 (KHTML, like Gecko) Chrome/119.0.0.0 Safari/537.36","WebKit","Chrome","119.0.0.0","Windows","10.0","null","es-419,es;q=0.9","true","732","tones/440hz_short.mp3","a","","","empty_block","","59","","","","0","17",""
"","","","","","html-keyboard-response","126","463943","0.0-131.0-1.0","77","1","2023-11-04 21:31:27","a725c3012b74bf33a1020a98cb69c237","181.80.3.161","Mozilla/5.0 (Windows NT 10.0; Win64; x64) AppleWebKit/537.36 (KHTML, like Gecko) Chrome/119.0.0.0 Safari/537.36","WebKit","Chrome","119.0.0.0","Windows","10.0","null","es-419,es;q=0.9","true","395","tones/440hz_short.mp3","k","","","empty_block","","59","","","","0","17",""
"","","","","","html-keyboard-response","127","466857","0.0-133.0","77","1","2023-11-04 21:31:27","a725c3012b74bf33a1020a98cb69c237","181.80.3.161","Mozilla/5.0 (Windows NT 10.0; Win64; x64) AppleWebKit/537.36 (KHTML, like Gecko) Chrome/119.0.0.0 Safari/537.36","WebKit","Chrome","119.0.0.0","Windows","10.0","null","es-419,es;q=0.9","true","null","<div style=""font-size:100px;"">X</div>","null","","","fixation","","","","","","","",""
"","","","","","audio-keyboard-response","128","467834","0.0-134.0","77","1","2023-11-04 21:31:27","a725c3012b74bf33a1020a98cb69c237","181.80.3.161","Mozilla/5.0 (Windows NT 10.0; Win64; x64) AppleWebKit/537.36 (KHTML, like Gecko) Chrome/119.0.0.0 Safari/537.36","WebKit","Chrome","119.0.0.0","Windows","10.0","null","es-419,es;q=0.9","true","971","tones/880hz_short.mp3","s","","","tone_number_task","1025","65","tones/880hz_short.mp3","1175","100","0","18",""
"","","","","","html-keyboard-response","129","467903","0.0-135.0-0.0","77","1","2023-11-04 21:31:27","a725c3012b74bf33a1020a98cb69c237","181.80.3.161","Mozilla/5.0 (Windows NT 10.0; Win64; x64) AppleWebKit/537.36 (KHTML, like Gecko) Chrome/119.0.0.0 Safari/537.36","WebKit","Chrome","119.0.0.0","Windows","10.0","null","es-419,es;q=0.9","true","null","","null","","","delay_block","","","","","","0","18",""
"","","","","","html-keyboard-response","130","468070","0.0-135.0-1.0","77","1","2023-11-04 21:31:27","a725c3012b74bf33a1020a98cb69c237","181.80.3.161","Mozilla/5.0 (Windows NT 10.0; Win64; x64) AppleWebKit/537.36 (KHTML, like Gecko) Chrome/119.0.0.0 Safari/537.36","WebKit","Chrome","119.0.0.0","Windows","10.0","null","es-419,es;q=0.9","true","null","<p id=""stimulus"" style=""font-size:100px;"">65</p>","null","","","tone_number_task_remaining_before_delay","","65","","204","100","0","18",""
"","","","","","html-keyboard-response","131","468522","0.0-138.0-0.0","77","1","2023-11-04 21:31:27","a725c3012b74bf33a1020a98cb69c237","181.80.3.161","Mozilla/5.0 (Windows NT 10.0; Win64; x64) AppleWebKit/537.36 (KHTML, like Gecko) Chrome/119.0.0.0 Safari/537.36","WebKit","Chrome","119.0.0.0","Windows","10.0","null","es-419,es;q=0.9","true","443","<p id=""stimulus"" style=""font-size:100px;"">65</p>","k","","","empty_block","","65","","","","0","18",""
"","","","","","html-keyboard-response","132","471429","0.0-139.0","77","1","2023-11-04 21:31:27","a725c3012b74bf33a1020a98cb69c237","181.80.3.161","Mozilla/5.0 (Windows NT 10.0; Win64; x64) AppleWebKit/537.36 (KHTML, like Gecko) Chrome/119.0.0.0 Safari/537.36","WebKit","Chrome","119.0.0.0","Windows","10.0","null","es-419,es;q=0.9","true","null","<div style=""font-size:100px;"">X</div>","null","","","fixation","","","","","","","",""
"","","","","","audio-keyboard-response","133","472004","0.0-140.0","77","1","2023-11-04 21:31:27","a725c3012b74bf33a1020a98cb69c237","181.80.3.161","Mozilla/5.0 (Windows NT 10.0; Win64; x64) AppleWebKit/537.36 (KHTML, like Gecko) Chrome/119.0.0.0 Safari/537.36","WebKit","Chrome","119.0.0.0","Windows","10.0","null","es-419,es;q=0.9","true","568","tones/440hz_short.mp3","a","","","tone_number_task","1025","53","tones/440hz_short.mp3","1175","100","0","19",""
"","","","","","html-keyboard-response","134","472470","0.0-141.0-0.0","77","1","2023-11-04 21:31:27","a725c3012b74bf33a1020a98cb69c237","181.80.3.161","Mozilla/5.0 (Windows NT 10.0; Win64; x64) AppleWebKit/537.36 (KHTML, like Gecko) Chrome/119.0.0.0 Safari/537.36","WebKit","Chrome","119.0.0.0","Windows","10.0","null","es-419,es;q=0.9","true","null","","null","","","delay_block","","","","","","0","19",""
"","","","","","html-keyboard-response","135","472629","0.0-141.0-1.0","77","1","2023-11-04 21:31:27","a725c3012b74bf33a1020a98cb69c237","181.80.3.161","Mozilla/5.0 (Windows NT 10.0; Win64; x64) AppleWebKit/537.36 (KHTML, like Gecko) Chrome/119.0.0.0 Safari/537.36","WebKit","Chrome","119.0.0.0","Windows","10.0","null","es-419,es;q=0.9","true","null","<p id=""stimulus"" style=""font-size:100px;"">53</p>","null","","","tone_number_task_remaining_before_delay","","53","","607","100","0","19",""
"","","","","","html-keyboard-response","136","473177","0.0-144.0-0.0","77","1","2023-11-04 21:31:27","a725c3012b74bf33a1020a98cb69c237","181.80.3.161","Mozilla/5.0 (Windows NT 10.0; Win64; x64) AppleWebKit/537.36 (KHTML, like Gecko) Chrome/119.0.0.0 Safari/537.36","WebKit","Chrome","119.0.0.0","Windows","10.0","null","es-419,es;q=0.9","true","539","<p id=""stimulus"" style=""font-size:100px;"">53</p>","k","","","empty_block","","53","","","","0","19",""
"","","","","","html-keyboard-response","137","476089","0.0-145.0","77","1","2023-11-04 21:31:27","a725c3012b74bf33a1020a98cb69c237","181.80.3.161","Mozilla/5.0 (Windows NT 10.0; Win64; x64) AppleWebKit/537.36 (KHTML, like Gecko) Chrome/119.0.0.0 Safari/537.36","WebKit","Chrome","119.0.0.0","Windows","10.0","null","es-419,es;q=0.9","true","null","<div style=""font-size:100px;"">X</div>","null","","","fixation","","","","","","","",""
"","","","","","audio-keyboard-response","138","476254","0.0-146.0","77","1","2023-11-04 21:31:27","a725c3012b74bf33a1020a98cb69c237","181.80.3.161","Mozilla/5.0 (Windows NT 10.0; Win64; x64) AppleWebKit/537.36 (KHTML, like Gecko) Chrome/119.0.0.0 Safari/537.36","WebKit","Chrome","119.0.0.0","Windows","10.0","null","es-419,es;q=0.9","true","null","tones/440hz_short.mp3","null","","","tone_number_task","0","62","tones/440hz_short.mp3","150","100","0","20",""
"","","","","","html-keyboard-response","139","477100","0.0-149.0-0.0","77","1","2023-11-04 21:31:27","a725c3012b74bf33a1020a98cb69c237","181.80.3.161","Mozilla/5.0 (Windows NT 10.0; Win64; x64) AppleWebKit/537.36 (KHTML, like Gecko) Chrome/119.0.0.0 Safari/537.36","WebKit","Chrome","119.0.0.0","Windows","10.0","null","es-419,es;q=0.9","true","837","tones/440hz_short.mp3","a","","","empty_block","","62","","","","0","20",""
"","","","","","html-keyboard-response","140","478060","0.0-149.0-1.0","77","1","2023-11-04 21:31:27","a725c3012b74bf33a1020a98cb69c237","181.80.3.161","Mozilla/5.0 (Windows NT 10.0; Win64; x64) AppleWebKit/537.36 (KHTML, like Gecko) Chrome/119.0.0.0 Safari/537.36","WebKit","Chrome","119.0.0.0","Windows","10.0","null","es-419,es;q=0.9","true","950","tones/440hz_short.mp3","k","","","empty_block","","62","","","","0","20",""
"","","","","","html-keyboard-response","141","480970","0.0-151.0","77","1","2023-11-04 21:31:27","a725c3012b74bf33a1020a98cb69c237","181.80.3.161","Mozilla/5.0 (Windows NT 10.0; Win64; x64) AppleWebKit/537.36 (KHTML, like Gecko) Chrome/119.0.0.0 Safari/537.36","WebKit","Chrome","119.0.0.0","Windows","10.0","null","es-419,es;q=0.9","true","null","<div style=""font-size:100px;"">X</div>","null","","","fixation","","","","","","","",""
"","","","","","audio-keyboard-response","142","481578","0.0-152.0","77","1","2023-11-04 21:31:27","a725c3012b74bf33a1020a98cb69c237","181.80.3.161","Mozilla/5.0 (Windows NT 10.0; Win64; x64) AppleWebKit/537.36 (KHTML, like Gecko) Chrome/119.0.0.0 Safari/537.36","WebKit","Chrome","119.0.0.0","Windows","10.0","null","es-419,es;q=0.9","true","600","tones/880hz_short.mp3","s","","","tone_number_task","992.5","41","tones/880hz_short.mp3","1142.5","100","0","21",""
"","","","","","html-keyboard-response","143","481989","0.0-153.0-0.0","77","1","2023-11-04 21:31:27","a725c3012b74bf33a1020a98cb69c237","181.80.3.161","Mozilla/5.0 (Windows NT 10.0; Win64; x64) AppleWebKit/537.36 (KHTML, like Gecko) Chrome/119.0.0.0 Safari/537.36","WebKit","Chrome","119.0.0.0","Windows","10.0","null","es-419,es;q=0.9","true","null","","null","","","delay_block","","","","","","0","21",""
"","","","","","html-keyboard-response","144","482156","0.0-153.0-1.0","77","1","2023-11-04 21:31:27","a725c3012b74bf33a1020a98cb69c237","181.80.3.161","Mozilla/5.0 (Windows NT 10.0; Win64; x64) AppleWebKit/537.36 (KHTML, like Gecko) Chrome/119.0.0.0 Safari/537.36","WebKit","Chrome","119.0.0.0","Windows","10.0","null","es-419,es;q=0.9","true","null","<p id=""stimulus"" style=""font-size:100px;"">41</p>","null","","","tone_number_task_remaining_before_delay","","41","","542.5","100","0","21",""
"","","","","","html-keyboard-response","145","482919","0.0-156.0-0.0","77","1","2023-11-04 21:31:27","a725c3012b74bf33a1020a98cb69c237","181.80.3.161","Mozilla/5.0 (Windows NT 10.0; Win64; x64) AppleWebKit/537.36 (KHTML, like Gecko) Chrome/119.0.0.0 Safari/537.36","WebKit","Chrome","119.0.0.0","Windows","10.0","null","es-419,es;q=0.9","true","753","<p id=""stimulus"" style=""font-size:100px;"">41</p>","j","","","empty_block","","41","","","","0","21",""
"","","","","","html-keyboard-response","146","485826","0.0-157.0","77","1","2023-11-04 21:31:27","a725c3012b74bf33a1020a98cb69c237","181.80.3.161","Mozilla/5.0 (Windows NT 10.0; Win64; x64) AppleWebKit/537.36 (KHTML, like Gecko) Chrome/119.0.0.0 Safari/537.36","WebKit","Chrome","119.0.0.0","Windows","10.0","null","es-419,es;q=0.9","true","null","<div style=""font-size:100px;"">X</div>","null","","","fixation","","","","","","","",""
"","","","","","audio-keyboard-response","147","486653","0.0-158.0","77","1","2023-11-04 21:31:27","a725c3012b74bf33a1020a98cb69c237","181.80.3.161","Mozilla/5.0 (Windows NT 10.0; Win64; x64) AppleWebKit/537.36 (KHTML, like Gecko) Chrome/119.0.0.0 Safari/537.36","WebKit","Chrome","119.0.0.0","Windows","10.0","null","es-419,es;q=0.9","true","819","tones/880hz_short.mp3","s","","","tone_number_task","1025","25","tones/880hz_short.mp3","1175","100","0","22",""
"","","","","","html-keyboard-response","148","486870","0.0-159.0-0.0","77","1","2023-11-04 21:31:27","a725c3012b74bf33a1020a98cb69c237","181.80.3.161","Mozilla/5.0 (Windows NT 10.0; Win64; x64) AppleWebKit/537.36 (KHTML, like Gecko) Chrome/119.0.0.0 Safari/537.36","WebKit","Chrome","119.0.0.0","Windows","10.0","null","es-419,es;q=0.9","true","null","","null","","","delay_block","","","","","","0","22",""
"","","","","","html-keyboard-response","149","487031","0.0-159.0-1.0","77","1","2023-11-04 21:31:27","a725c3012b74bf33a1020a98cb69c237","181.80.3.161","Mozilla/5.0 (Windows NT 10.0; Win64; x64) AppleWebKit/537.36 (KHTML, like Gecko) Chrome/119.0.0.0 Safari/537.36","WebKit","Chrome","119.0.0.0","Windows","10.0","null","es-419,es;q=0.9","true","null","<p id=""stimulus"" style=""font-size:100px;"">25</p>","null","","","tone_number_task_remaining_before_delay","","25","","356","100","0","22",""
"","","","","","html-keyboard-response","150","487489","0.0-162.0-0.0","77","1","2023-11-04 21:31:27","a725c3012b74bf33a1020a98cb69c237","181.80.3.161","Mozilla/5.0 (Windows NT 10.0; Win64; x64) AppleWebKit/537.36 (KHTML, like Gecko) Chrome/119.0.0.0 Safari/537.36","WebKit","Chrome","119.0.0.0","Windows","10.0","null","es-419,es;q=0.9","true","450","<p id=""stimulus"" style=""font-size:100px;"">25</p>","j","","","empty_block","","25","","","","0","22",""
"","","","","","html-keyboard-response","151","490410","0.0-163.0","77","1","2023-11-04 21:31:27","a725c3012b74bf33a1020a98cb69c237","181.80.3.161","Mozilla/5.0 (Windows NT 10.0; Win64; x64) AppleWebKit/537.36 (KHTML, like Gecko) Chrome/119.0.0.0 Safari/537.36","WebKit","Chrome","119.0.0.0","Windows","10.0","null","es-419,es;q=0.9","true","null","<div style=""font-size:100px;"">X</div>","null","","","fixation","","","","","","","",""
"","","","","","audio-keyboard-response","152","490576","0.0-164.0","77","1","2023-11-04 21:31:27","a725c3012b74bf33a1020a98cb69c237","181.80.3.161","Mozilla/5.0 (Windows NT 10.0; Win64; x64) AppleWebKit/537.36 (KHTML, like Gecko) Chrome/119.0.0.0 Safari/537.36","WebKit","Chrome","119.0.0.0","Windows","10.0","null","es-419,es;q=0.9","true","null","tones/880hz_short.mp3","null","","","tone_number_task","0","32","tones/880hz_short.mp3","150","100","0","23",""
"","","","","","html-keyboard-response","153","491177","0.0-167.0-0.0","77","1","2023-11-04 21:31:27","a725c3012b74bf33a1020a98cb69c237","181.80.3.161","Mozilla/5.0 (Windows NT 10.0; Win64; x64) AppleWebKit/537.36 (KHTML, like Gecko) Chrome/119.0.0.0 Safari/537.36","WebKit","Chrome","119.0.0.0","Windows","10.0","null","es-419,es;q=0.9","true","590","tones/880hz_short.mp3","s","","","empty_block","","32","","","","0","23",""
"","","","","","html-keyboard-response","154","491910","0.0-167.0-1.0","77","1","2023-11-04 21:31:27","a725c3012b74bf33a1020a98cb69c237","181.80.3.161","Mozilla/5.0 (Windows NT 10.0; Win64; x64) AppleWebKit/537.36 (KHTML, like Gecko) Chrome/119.0.0.0 Safari/537.36","WebKit","Chrome","119.0.0.0","Windows","10.0","null","es-419,es;q=0.9","true","725","tones/880hz_short.mp3","j","","","empty_block","","32","","","","0","23",""
"","","","","","html-keyboard-response","155","494832","0.0-169.0","77","1","2023-11-04 21:31:27","a725c3012b74bf33a1020a98cb69c237","181.80.3.161","Mozilla/5.0 (Windows NT 10.0; Win64; x64) AppleWebKit/537.36 (KHTML, like Gecko) Chrome/119.0.0.0 Safari/537.36","WebKit","Chrome","119.0.0.0","Windows","10.0","null","es-419,es;q=0.9","true","null","<div style=""font-size:100px;"">X</div>","null","","","fixation","","","","","","","",""
"","","","","","audio-keyboard-response","156","494999","0.0-170.0","77","1","2023-11-04 21:31:27","a725c3012b74bf33a1020a98cb69c237","181.80.3.161","Mozilla/5.0 (Windows NT 10.0; Win64; x64) AppleWebKit/537.36 (KHTML, like Gecko) Chrome/119.0.0.0 Safari/537.36","WebKit","Chrome","119.0.0.0","Windows","10.0","null","es-419,es;q=0.9","true","null","tones/440hz_short.mp3","null","","","tone_number_task","0","35","tones/440hz_short.mp3","150","100","0","24",""
"","","","","","html-keyboard-response","157","495558","0.0-173.0-0.0","77","1","2023-11-04 21:31:27","a725c3012b74bf33a1020a98cb69c237","181.80.3.161","Mozilla/5.0 (Windows NT 10.0; Win64; x64) AppleWebKit/537.36 (KHTML, like Gecko) Chrome/119.0.0.0 Safari/537.36","WebKit","Chrome","119.0.0.0","Windows","10.0","null","es-419,es;q=0.9","true","547","tones/440hz_short.mp3","a","","","empty_block","","35","","","","0","24",""
"","","","","","html-keyboard-response","158","496733","0.0-173.0-1.0","77","1","2023-11-04 21:31:27","a725c3012b74bf33a1020a98cb69c237","181.80.3.161","Mozilla/5.0 (Windows NT 10.0; Win64; x64) AppleWebKit/537.36 (KHTML, like Gecko) Chrome/119.0.0.0 Safari/537.36","WebKit","Chrome","119.0.0.0","Windows","10.0","null","es-419,es;q=0.9","true","1165","tones/440hz_short.mp3","j","","","empty_block","","35","","","","0","24",""
"","","","","","html-keyboard-response","159","499650","0.0-175.0","77","1","2023-11-04 21:31:27","a725c3012b74bf33a1020a98cb69c237","181.80.3.161","Mozilla/5.0 (Windows NT 10.0; Win64; x64) AppleWebKit/537.36 (KHTML, like Gecko) Chrome/119.0.0.0 Safari/537.36","WebKit","Chrome","119.0.0.0","Windows","10.0","null","es-419,es;q=0.9","true","null","<div style=""font-size:100px;"">X</div>","null","","","fixation","","","","","","","",""
"","","","","","audio-keyboard-response","160","499817","0.0-176.0","77","1","2023-11-04 21:31:27","a725c3012b74bf33a1020a98cb69c237","181.80.3.161","Mozilla/5.0 (Windows NT 10.0; Win64; x64) AppleWebKit/537.36 (KHTML, like Gecko) Chrome/119.0.0.0 Safari/537.36","WebKit","Chrome","119.0.0.0","Windows","10.0","null","es-419,es;q=0.9","true","null","tones/440hz_short.mp3","null","","","tone_number_task","0","48","tones/440hz_short.mp3","150","100","0","25",""
"","","","","","html-keyboard-response","161","500503","0.0-179.0-0.0","77","1","2023-11-04 21:31:27","a725c3012b74bf33a1020a98cb69c237","181.80.3.161","Mozilla/5.0 (Windows NT 10.0; Win64; x64) AppleWebKit/537.36 (KHTML, like Gecko) Chrome/119.0.0.0 Safari/537.36","WebKit","Chrome","119.0.0.0","Windows","10.0","null","es-419,es;q=0.9","true","673","tones/440hz_short.mp3","a","","","empty_block","","48","","","","0","25",""
"","","","","","html-keyboard-response","162","501717","0.0-179.0-1.0","77","1","2023-11-04 21:31:27","a725c3012b74bf33a1020a98cb69c237","181.80.3.161","Mozilla/5.0 (Windows NT 10.0; Win64; x64) AppleWebKit/537.36 (KHTML, like Gecko) Chrome/119.0.0.0 Safari/537.36","WebKit","Chrome","119.0.0.0","Windows","10.0","null","es-419,es;q=0.9","true","null","tones/440hz_short.mp3","null","","","empty_block","","48","","","","0","25",""
"","","","","","html-keyboard-response","163","504626","0.0-181.0","77","1","2023-11-04 21:31:27","a725c3012b74bf33a1020a98cb69c237","181.80.3.161","Mozilla/5.0 (Windows NT 10.0; Win64; x64) AppleWebKit/537.36 (KHTML, like Gecko) Chrome/119.0.0.0 Safari/537.36","WebKit","Chrome","119.0.0.0","Windows","10.0","null","es-419,es;q=0.9","true","null","<div style=""font-size:100px;"">X</div>","null","","","fixation","","","","","","","",""
"","","","","","audio-keyboard-response","164","505332","0.0-182.0","77","1","2023-11-04 21:31:27","a725c3012b74bf33a1020a98cb69c237","181.80.3.161","Mozilla/5.0 (Windows NT 10.0; Win64; x64) AppleWebKit/537.36 (KHTML, like Gecko) Chrome/119.0.0.0 Safari/537.36","WebKit","Chrome","119.0.0.0","Windows","10.0","null","es-419,es;q=0.9","true","699","tones/440hz_short.mp3","a","","","tone_number_task","992.5","33","tones/440hz_short.mp3","1142.5","100","0","26",""
"","","","","","html-keyboard-response","165","505638","0.0-183.0-0.0","77","1","2023-11-04 21:31:27","a725c3012b74bf33a1020a98cb69c237","181.80.3.161","Mozilla/5.0 (Windows NT 10.0; Win64; x64) AppleWebKit/537.36 (KHTML, like Gecko) Chrome/119.0.0.0 Safari/537.36","WebKit","Chrome","119.0.0.0","Windows","10.0","null","es-419,es;q=0.9","true","null","","null","","","delay_block","","","","","","0","26",""
"","","","","","html-keyboard-response","166","505806","0.0-183.0-1.0","77","1","2023-11-04 21:31:27","a725c3012b74bf33a1020a98cb69c237","181.80.3.161","Mozilla/5.0 (Windows NT 10.0; Win64; x64) AppleWebKit/537.36 (KHTML, like Gecko) Chrome/119.0.0.0 Safari/537.36","WebKit","Chrome","119.0.0.0","Windows","10.0","null","es-419,es;q=0.9","true","null","<p id=""stimulus"" style=""font-size:100px;"">33</p>","null","","","tone_number_task_remaining_before_delay","","33","","443.5","100","0","26",""
"","","","","","html-keyboard-response","167","506179","0.0-186.0-0.0","77","1","2023-11-04 21:31:27","a725c3012b74bf33a1020a98cb69c237","181.80.3.161","Mozilla/5.0 (Windows NT 10.0; Win64; x64) AppleWebKit/537.36 (KHTML, like Gecko) Chrome/119.0.0.0 Safari/537.36","WebKit","Chrome","119.0.0.0","Windows","10.0","null","es-419,es;q=0.9","true","363","<p id=""stimulus"" style=""font-size:100px;"">33</p>","j","","","empty_block","","33","","","","0","26",""
"","","","","","html-keyboard-response","168","509096","0.0-187.0","77","1","2023-11-04 21:31:27","a725c3012b74bf33a1020a98cb69c237","181.80.3.161","Mozilla/5.0 (Windows NT 10.0; Win64; x64) AppleWebKit/537.36 (KHTML, like Gecko) Chrome/119.0.0.0 Safari/537.36","WebKit","Chrome","119.0.0.0","Windows","10.0","null","es-419,es;q=0.9","true","null","<div style=""font-size:100px;"">X</div>","null","","","fixation","","","","","","","",""
"","","","","","audio-keyboard-response","169","509261","0.0-188.0","77","1","2023-11-04 21:31:27","a725c3012b74bf33a1020a98cb69c237","181.80.3.161","Mozilla/5.0 (Windows NT 10.0; Win64; x64) AppleWebKit/537.36 (KHTML, like Gecko) Chrome/119.0.0.0 Safari/537.36","WebKit","Chrome","119.0.0.0","Windows","10.0","null","es-419,es;q=0.9","true","null","tones/880hz_short.mp3","null","","","tone_number_task","0","40","tones/880hz_short.mp3","150","100","0","27",""
"","","","","","html-keyboard-response","170","510479","0.0-191.0-0.0","77","1","2023-11-04 21:31:27","a725c3012b74bf33a1020a98cb69c237","181.80.3.161","Mozilla/5.0 (Windows NT 10.0; Win64; x64) AppleWebKit/537.36 (KHTML, like Gecko) Chrome/119.0.0.0 Safari/537.36","WebKit","Chrome","119.0.0.0","Windows","10.0","null","es-419,es;q=0.9","true","null","tones/880hz_short.mp3","null","","","empty_block","","40","","","","0","27",""
"","","","","","html-keyboard-response","171","511554","0.0-191.0-1.0","77","1","2023-11-04 21:31:27","a725c3012b74bf33a1020a98cb69c237","181.80.3.161","Mozilla/5.0 (Windows NT 10.0; Win64; x64) AppleWebKit/537.36 (KHTML, like Gecko) Chrome/119.0.0.0 Safari/537.36","WebKit","Chrome","119.0.0.0","Windows","10.0","null","es-419,es;q=0.9","true","1066","tones/880hz_short.mp3","s","","","empty_block","","40","","","","0","27",""
"","","","","","html-keyboard-response","172","514467","0.0-193.0","77","1","2023-11-04 21:31:27","a725c3012b74bf33a1020a98cb69c237","181.80.3.161","Mozilla/5.0 (Windows NT 10.0; Win64; x64) AppleWebKit/537.36 (KHTML, like Gecko) Chrome/119.0.0.0 Safari/537.36","WebKit","Chrome","119.0.0.0","Windows","10.0","null","es-419,es;q=0.9","true","null","<div style=""font-size:100px;"">X</div>","null","","","fixation","","","","","","","",""
"","","","","","audio-keyboard-response","173","515471","0.0-194.0","77","1","2023-11-04 21:31:27","a725c3012b74bf33a1020a98cb69c237","181.80.3.161","Mozilla/5.0 (Windows NT 10.0; Win64; x64) AppleWebKit/537.36 (KHTML, like Gecko) Chrome/119.0.0.0 Safari/537.36","WebKit","Chrome","119.0.0.0","Windows","10.0","null","es-419,es;q=0.9","true","989","tones/880hz_short.mp3","s","","","tone_number_task","1025","51","tones/880hz_short.mp3","1175","100","0","28",""
"","","","","","html-keyboard-response","174","515525","0.0-195.0-0.0","77","1","2023-11-04 21:31:27","a725c3012b74bf33a1020a98cb69c237","181.80.3.161","Mozilla/5.0 (Windows NT 10.0; Win64; x64) AppleWebKit/537.36 (KHTML, like Gecko) Chrome/119.0.0.0 Safari/537.36","WebKit","Chrome","119.0.0.0","Windows","10.0","null","es-419,es;q=0.9","true","null","","null","","","delay_block","","","","","","0","28",""
"","","","","","html-keyboard-response","175","515700","0.0-195.0-1.0","77","1","2023-11-04 21:31:27","a725c3012b74bf33a1020a98cb69c237","181.80.3.161","Mozilla/5.0 (Windows NT 10.0; Win64; x64) AppleWebKit/537.36 (KHTML, like Gecko) Chrome/119.0.0.0 Safari/537.36","WebKit","Chrome","119.0.0.0","Windows","10.0","null","es-419,es;q=0.9","true","null","<p id=""stimulus"" style=""font-size:100px;"">51</p>","null","","","tone_number_task_remaining_before_delay","","51","","186","100","0","28",""
"","","","","","html-keyboard-response","176","516448","0.0-198.0-0.0","77","1","2023-11-04 21:31:27","a725c3012b74bf33a1020a98cb69c237","181.80.3.161","Mozilla/5.0 (Windows NT 10.0; Win64; x64) AppleWebKit/537.36 (KHTML, like Gecko) Chrome/119.0.0.0 Safari/537.36","WebKit","Chrome","119.0.0.0","Windows","10.0","null","es-419,es;q=0.9","true","736","<p id=""stimulus"" style=""font-size:100px;"">51</p>","k","","","empty_block","","51","","","","0","28",""
"","","","","","html-keyboard-response","177","519359","0.0-199.0","77","1","2023-11-04 21:31:27","a725c3012b74bf33a1020a98cb69c237","181.80.3.161","Mozilla/5.0 (Windows NT 10.0; Win64; x64) AppleWebKit/537.36 (KHTML, like Gecko) Chrome/119.0.0.0 Safari/537.36","WebKit","Chrome","119.0.0.0","Windows","10.0","null","es-419,es;q=0.9","true","null","<div style=""font-size:100px;"">X</div>","null","","","fixation","","","","","","","",""
"","","","","","audio-keyboard-response","178","519629","0.0-200.0","77","1","2023-11-04 21:31:27","a725c3012b74bf33a1020a98cb69c237","181.80.3.161","Mozilla/5.0 (Windows NT 10.0; Win64; x64) AppleWebKit/537.36 (KHTML, like Gecko) Chrome/119.0.0.0 Safari/537.36","WebKit","Chrome","119.0.0.0","Windows","10.0","null","es-419,es;q=0.9","true","null","tones/440hz_short.mp3","null","","","tone_number_task","102.5","40","tones/440hz_short.mp3","252.5","100","0","29",""
"","","","","","html-keyboard-response","179","519885","0.0-203.0-0.0","77","1","2023-11-04 21:31:27","a725c3012b74bf33a1020a98cb69c237","181.80.3.161","Mozilla/5.0 (Windows NT 10.0; Win64; x64) AppleWebKit/537.36 (KHTML, like Gecko) Chrome/119.0.0.0 Safari/537.36","WebKit","Chrome","119.0.0.0","Windows","10.0","null","es-419,es;q=0.9","true","244","tones/440hz_short.mp3","a","","","empty_block","","40","","","","0","29",""
"","","","","","html-keyboard-response","180","520325","0.0-203.0-1.0","77","1","2023-11-04 21:31:27","a725c3012b74bf33a1020a98cb69c237","181.80.3.161","Mozilla/5.0 (Windows NT 10.0; Win64; x64) AppleWebKit/537.36 (KHTML, like Gecko) Chrome/119.0.0.0 Safari/537.36","WebKit","Chrome","119.0.0.0","Windows","10.0","null","es-419,es;q=0.9","true","429","tones/440hz_short.mp3","j","","","empty_block","","40","","","","0","29",""
"","","","","","html-keyboard-response","181","523237","0.0-205.0","77","1","2023-11-04 21:31:27","a725c3012b74bf33a1020a98cb69c237","181.80.3.161","Mozilla/5.0 (Windows NT 10.0; Win64; x64) AppleWebKit/537.36 (KHTML, like Gecko) Chrome/119.0.0.0 Safari/537.36","WebKit","Chrome","119.0.0.0","Windows","10.0","null","es-419,es;q=0.9","true","null","<div style=""font-size:100px;"">X</div>","null","","","fixation","","","","","","","",""
"","","","","","audio-keyboard-response","182","524434","0.0-206.0","77","1","2023-11-04 21:31:27","a725c3012b74bf33a1020a98cb69c237","181.80.3.161","Mozilla/5.0 (Windows NT 10.0; Win64; x64) AppleWebKit/537.36 (KHTML, like Gecko) Chrome/119.0.0.0 Safari/537.36","WebKit","Chrome","119.0.0.0","Windows","10.0","null","es-419,es;q=0.9","true","null","tones/880hz_short.mp3","null","","","tone_number_task","1025","35","tones/880hz_short.mp3","1175","100","0","30",""
"","","","","","html-keyboard-response","183","525647","0.0-209.0-0.0","77","1","2023-11-04 21:31:27","a725c3012b74bf33a1020a98cb69c237","181.80.3.161","Mozilla/5.0 (Windows NT 10.0; Win64; x64) AppleWebKit/537.36 (KHTML, like Gecko) Chrome/119.0.0.0 Safari/537.36","WebKit","Chrome","119.0.0.0","Windows","10.0","null","es-419,es;q=0.9","true","null","tones/880hz_short.mp3","null","","","empty_block","","35","","","","0","30",""
"","","","","","html-keyboard-response","184","525686","0.0-209.0-1.0","77","1","2023-11-04 21:31:27","a725c3012b74bf33a1020a98cb69c237","181.80.3.161","Mozilla/5.0 (Windows NT 10.0; Win64; x64) AppleWebKit/537.36 (KHTML, like Gecko) Chrome/119.0.0.0 Safari/537.36","WebKit","Chrome","119.0.0.0","Windows","10.0","null","es-419,es;q=0.9","true","27","tones/880hz_short.mp3","s","","","empty_block","","35","","","","0","30",""
"","","","","","html-keyboard-response","185","528599","0.0-211.0","77","1","2023-11-04 21:31:27","a725c3012b74bf33a1020a98cb69c237","181.80.3.161","Mozilla/5.0 (Windows NT 10.0; Win64; x64) AppleWebKit/537.36 (KHTML, like Gecko) Chrome/119.0.0.0 Safari/537.36","WebKit","Chrome","119.0.0.0","Windows","10.0","null","es-419,es;q=0.9","true","null","<div style=""font-size:100px;"">X</div>","null","","","fixation","","","","","","","",""
"","","","","","audio-keyboard-response","186","528867","0.0-212.0","77","1","2023-11-04 21:31:27","a725c3012b74bf33a1020a98cb69c237","181.80.3.161","Mozilla/5.0 (Windows NT 10.0; Win64; x64) AppleWebKit/537.36 (KHTML, like Gecko) Chrome/119.0.0.0 Safari/537.36","WebKit","Chrome","119.0.0.0","Windows","10.0","null","es-419,es;q=0.9","true","null","tones/880hz_short.mp3","null","","","tone_number_task","102.5","48","tones/880hz_short.mp3","252.5","100","0","31",""
"","","","","","html-keyboard-response","187","529420","0.0-215.0-0.0","77","1","2023-11-04 21:31:27","a725c3012b74bf33a1020a98cb69c237","181.80.3.161","Mozilla/5.0 (Windows NT 10.0; Win64; x64) AppleWebKit/537.36 (KHTML, like Gecko) Chrome/119.0.0.0 Safari/537.36","WebKit","Chrome","119.0.0.0","Windows","10.0","null","es-419,es;q=0.9","true","541","tones/880hz_short.mp3","s","","","empty_block","","48","","","","0","31",""
"","","","","","html-keyboard-response","188","529766","0.0-215.0-1.0","77","1","2023-11-04 21:31:27","a725c3012b74bf33a1020a98cb69c237","181.80.3.161","Mozilla/5.0 (Windows NT 10.0; Win64; x64) AppleWebKit/537.36 (KHTML, like Gecko) Chrome/119.0.0.0 Safari/537.36","WebKit","Chrome","119.0.0.0","Windows","10.0","null","es-419,es;q=0.9","true","335","tones/880hz_short.mp3","k","","","empty_block","","48","","","","0","31",""
"","","","","","html-keyboard-response","189","532679","0.0-217.0","77","1","2023-11-04 21:31:27","a725c3012b74bf33a1020a98cb69c237","181.80.3.161","Mozilla/5.0 (Windows NT 10.0; Win64; x64) AppleWebKit/537.36 (KHTML, like Gecko) Chrome/119.0.0.0 Safari/537.36","WebKit","Chrome","119.0.0.0","Windows","10.0","null","es-419,es;q=0.9","true","null","<div style=""font-size:100px;"">X</div>","null","","","fixation","","","","","","","",""
"","","","","","audio-keyboard-response","190","532945","0.0-218.0","77","1","2023-11-04 21:31:27","a725c3012b74bf33a1020a98cb69c237","181.80.3.161","Mozilla/5.0 (Windows NT 10.0; Win64; x64) AppleWebKit/537.36 (KHTML, like Gecko) Chrome/119.0.0.0 Safari/537.36","WebKit","Chrome","119.0.0.0","Windows","10.0","null","es-419,es;q=0.9","true","null","tones/440hz_short.mp3","null","","","tone_number_task","102.5","35","tones/440hz_short.mp3","252.5","100","0","32",""
"","","","","","html-keyboard-response","191","533303","0.0-221.0-0.0","77","1","2023-11-04 21:31:27","a725c3012b74bf33a1020a98cb69c237","181.80.3.161","Mozilla/5.0 (Windows NT 10.0; Win64; x64) AppleWebKit/537.36 (KHTML, like Gecko) Chrome/119.0.0.0 Safari/537.36","WebKit","Chrome","119.0.0.0","Windows","10.0","null","es-419,es;q=0.9","true","346","tones/440hz_short.mp3","a","","","empty_block","","35","","","","0","32",""
"","","","","","html-keyboard-response","192","533776","0.0-221.0-1.0","77","1","2023-11-04 21:31:27","a725c3012b74bf33a1020a98cb69c237","181.80.3.161","Mozilla/5.0 (Windows NT 10.0; Win64; x64) AppleWebKit/537.36 (KHTML, like Gecko) Chrome/119.0.0.0 Safari/537.36","WebKit","Chrome","119.0.0.0","Windows","10.0","null","es-419,es;q=0.9","true","461","tones/440hz_short.mp3","j","","","empty_block","","35","","","","0","32",""
"","","","","","html-keyboard-response","193","536688","0.0-223.0","77","1","2023-11-04 21:31:27","a725c3012b74bf33a1020a98cb69c237","181.80.3.161","Mozilla/5.0 (Windows NT 10.0; Win64; x64) AppleWebKit/537.36 (KHTML, like Gecko) Chrome/119.0.0.0 Safari/537.36","WebKit","Chrome","119.0.0.0","Windows","10.0","null","es-419,es;q=0.9","true","null","<div style=""font-size:100px;"">X</div>","null","","","fixation","","","","","","","",""
"","","","","","audio-keyboard-response","194","537278","0.0-224.0","77","1","2023-11-04 21:31:27","a725c3012b74bf33a1020a98cb69c237","181.80.3.161","Mozilla/5.0 (Windows NT 10.0; Win64; x64) AppleWebKit/537.36 (KHTML, like Gecko) Chrome/119.0.0.0 Safari/537.36","WebKit","Chrome","119.0.0.0","Windows","10.0","null","es-419,es;q=0.9","true","581","tones/440hz_short.mp3","a","","","tone_number_task","1025","52","tones/440hz_short.mp3","1175","100","0","33",""
"","","","","","html-keyboard-response","195","537742","0.0-225.0-0.0","77","1","2023-11-04 21:31:27","a725c3012b74bf33a1020a98cb69c237","181.80.3.161","Mozilla/5.0 (Windows NT 10.0; Win64; x64) AppleWebKit/537.36 (KHTML, like Gecko) Chrome/119.0.0.0 Safari/537.36","WebKit","Chrome","119.0.0.0","Windows","10.0","null","es-419,es;q=0.9","true","null","","null","","","delay_block","","","","","","0","33",""
"","","","","","html-keyboard-response","196","537911","0.0-225.0-1.0","77","1","2023-11-04 21:31:27","a725c3012b74bf33a1020a98cb69c237","181.80.3.161","Mozilla/5.0 (Windows NT 10.0; Win64; x64) AppleWebKit/537.36 (KHTML, like Gecko) Chrome/119.0.0.0 Safari/537.36","WebKit","Chrome","119.0.0.0","Windows","10.0","null","es-419,es;q=0.9","true","null","<p id=""stimulus"" style=""font-size:100px;"">52</p>","null","","","tone_number_task_remaining_before_delay","","52","","594","100","0","33",""
"","","","","","html-keyboard-response","197","538283","0.0-228.0-0.0","77","1","2023-11-04 21:31:27","a725c3012b74bf33a1020a98cb69c237","181.80.3.161","Mozilla/5.0 (Windows NT 10.0; Win64; x64) AppleWebKit/537.36 (KHTML, like Gecko) Chrome/119.0.0.0 Safari/537.36","WebKit","Chrome","119.0.0.0","Windows","10.0","null","es-419,es;q=0.9","true","360","<p id=""stimulus"" style=""font-size:100px;"">52</p>","k","","","empty_block","","52","","","","0","33",""
"","","","","","html-keyboard-response","198","541197","0.0-229.0","77","1","2023-11-04 21:31:27","a725c3012b74bf33a1020a98cb69c237","181.80.3.161","Mozilla/5.0 (Windows NT 10.0; Win64; x64) AppleWebKit/537.36 (KHTML, like Gecko) Chrome/119.0.0.0 Safari/537.36","WebKit","Chrome","119.0.0.0","Windows","10.0","null","es-419,es;q=0.9","true","null","<div style=""font-size:100px;"">X</div>","null","","","fixation","","","","","","","",""
"","","","","","audio-keyboard-response","199","541461","0.0-230.0","77","1","2023-11-04 21:31:27","a725c3012b74bf33a1020a98cb69c237","181.80.3.161","Mozilla/5.0 (Windows NT 10.0; Win64; x64) AppleWebKit/537.36 (KHTML, like Gecko) Chrome/119.0.0.0 Safari/537.36","WebKit","Chrome","119.0.0.0","Windows","10.0","null","es-419,es;q=0.9","true","null","tones/440hz_short.mp3","null","","","tone_number_task","102.5","69","tones/440hz_short.mp3","252.5","100","0","34",""
"","","","","","html-keyboard-response","200","542320","0.0-233.0-0.0","77","1","2023-11-04 21:31:27","a725c3012b74bf33a1020a98cb69c237","181.80.3.161","Mozilla/5.0 (Windows NT 10.0; Win64; x64) AppleWebKit/537.36 (KHTML, like Gecko) Chrome/119.0.0.0 Safari/537.36","WebKit","Chrome","119.0.0.0","Windows","10.0","null","es-419,es;q=0.9","true","847","tones/440hz_short.mp3","a","","","empty_block","","69","","","","0","34",""
"","","","","","html-keyboard-response","201","542701","0.0-233.0-1.0","77","1","2023-11-04 21:31:27","a725c3012b74bf33a1020a98cb69c237","181.80.3.161","Mozilla/5.0 (Windows NT 10.0; Win64; x64) AppleWebKit/537.36 (KHTML, like Gecko) Chrome/119.0.0.0 Safari/537.36","WebKit","Chrome","119.0.0.0","Windows","10.0","null","es-419,es;q=0.9","true","370","tones/440hz_short.mp3","k","","","empty_block","","69","","","","0","34",""
"","","","","","html-keyboard-response","202","545618","0.0-235.0","77","1","2023-11-04 21:31:27","a725c3012b74bf33a1020a98cb69c237","181.80.3.161","Mozilla/5.0 (Windows NT 10.0; Win64; x64) AppleWebKit/537.36 (KHTML, like Gecko) Chrome/119.0.0.0 Safari/537.36","WebKit","Chrome","119.0.0.0","Windows","10.0","null","es-419,es;q=0.9","true","null","<div style=""font-size:100px;"">X</div>","null","","","fixation","","","","","","","",""
"","","","","","audio-keyboard-response","203","546309","0.0-236.0","77","1","2023-11-04 21:31:27","a725c3012b74bf33a1020a98cb69c237","181.80.3.161","Mozilla/5.0 (Windows NT 10.0; Win64; x64) AppleWebKit/537.36 (KHTML, like Gecko) Chrome/119.0.0.0 Safari/537.36","WebKit","Chrome","119.0.0.0","Windows","10.0","null","es-419,es;q=0.9","true","680","tones/880hz_short.mp3","s","","","tone_number_task","992.5","68","tones/880hz_short.mp3","1142.5","100","0","35",""
"","","","","","html-keyboard-response","204","546645","0.0-237.0-0.0","77","1","2023-11-04 21:31:27","a725c3012b74bf33a1020a98cb69c237","181.80.3.161","Mozilla/5.0 (Windows NT 10.0; Win64; x64) AppleWebKit/537.36 (KHTML, like Gecko) Chrome/119.0.0.0 Safari/537.36","WebKit","Chrome","119.0.0.0","Windows","10.0","null","es-419,es;q=0.9","true","null","","null","","","delay_block","","","","","","0","35",""
"","","","","","html-keyboard-response","205","546814","0.0-237.0-1.0","77","1","2023-11-04 21:31:27","a725c3012b74bf33a1020a98cb69c237","181.80.3.161","Mozilla/5.0 (Windows NT 10.0; Win64; x64) AppleWebKit/537.36 (KHTML, like Gecko) Chrome/119.0.0.0 Safari/537.36","WebKit","Chrome","119.0.0.0","Windows","10.0","null","es-419,es;q=0.9","true","null","<p id=""stimulus"" style=""font-size:100px;"">68</p>","null","","","tone_number_task_remaining_before_delay","","68","","462.5","100","0","35",""
"","","","","","html-keyboard-response","206","547296","0.0-240.0-0.0","77","1","2023-11-04 21:31:27","a725c3012b74bf33a1020a98cb69c237","181.80.3.161","Mozilla/5.0 (Windows NT 10.0; Win64; x64) AppleWebKit/537.36 (KHTML, like Gecko) Chrome/119.0.0.0 Safari/537.36","WebKit","Chrome","119.0.0.0","Windows","10.0","null","es-419,es;q=0.9","true","471","<p id=""stimulus"" style=""font-size:100px;"">68</p>","k","","","empty_block","","68","","","","0","35",""
"","","","","","html-keyboard-response","207","550211","0.0-241.0","77","1","2023-11-04 21:31:27","a725c3012b74bf33a1020a98cb69c237","181.80.3.161","Mozilla/5.0 (Windows NT 10.0; Win64; x64) AppleWebKit/537.36 (KHTML, like Gecko) Chrome/119.0.0.0 Safari/537.36","WebKit","Chrome","119.0.0.0","Windows","10.0","null","es-419,es;q=0.9","true","null","<div style=""font-size:100px;"">X</div>","null","","","fixation","","","","","","","",""
"","","","","","audio-keyboard-response","208","550846","0.0-242.0","77","1","2023-11-04 21:31:27","a725c3012b74bf33a1020a98cb69c237","181.80.3.161","Mozilla/5.0 (Windows NT 10.0; Win64; x64) AppleWebKit/537.36 (KHTML, like Gecko) Chrome/119.0.0.0 Safari/537.36","WebKit","Chrome","119.0.0.0","Windows","10.0","null","es-419,es;q=0.9","true","619","tones/880hz_short.mp3","s","","","tone_number_task","992.5","52","tones/880hz_short.mp3","1142.5","100","0","36",""
"","","","","","html-keyboard-response","209","551238","0.0-243.0-0.0","77","1","2023-11-04 21:31:27","a725c3012b74bf33a1020a98cb69c237","181.80.3.161","Mozilla/5.0 (Windows NT 10.0; Win64; x64) AppleWebKit/537.36 (KHTML, like Gecko) Chrome/119.0.0.0 Safari/537.36","WebKit","Chrome","119.0.0.0","Windows","10.0","null","es-419,es;q=0.9","true","null","","null","","","delay_block","","","","","","0","36",""
"","","","","","html-keyboard-response","210","551405","0.0-243.0-1.0","77","1","2023-11-04 21:31:27","a725c3012b74bf33a1020a98cb69c237","181.80.3.161","Mozilla/5.0 (Windows NT 10.0; Win64; x64) AppleWebKit/537.36 (KHTML, like Gecko) Chrome/119.0.0.0 Safari/537.36","WebKit","Chrome","119.0.0.0","Windows","10.0","null","es-419,es;q=0.9","true","null","<p id=""stimulus"" style=""font-size:100px;"">52</p>","null","","","tone_number_task_remaining_before_delay","","52","","523.5","100","0","36",""
"","","","","","html-keyboard-response","211","551811","0.0-246.0-0.0","77","1","2023-11-04 21:31:27","a725c3012b74bf33a1020a98cb69c237","181.80.3.161","Mozilla/5.0 (Windows NT 10.0; Win64; x64) AppleWebKit/537.36 (KHTML, like Gecko) Chrome/119.0.0.0 Safari/537.36","WebKit","Chrome","119.0.0.0","Windows","10.0","null","es-419,es;q=0.9","true","394","<p id=""stimulus"" style=""font-size:100px;"">52</p>","k","","","empty_block","","52","","","","0","36",""
"","","","","","html-keyboard-response","212","554723","0.0-247.0","77","1","2023-11-04 21:31:27","a725c3012b74bf33a1020a98cb69c237","181.80.3.161","Mozilla/5.0 (Windows NT 10.0; Win64; x64) AppleWebKit/537.36 (KHTML, like Gecko) Chrome/119.0.0.0 Safari/537.36","WebKit","Chrome","119.0.0.0","Windows","10.0","null","es-419,es;q=0.9","true","null","<div style=""font-size:100px;"">X</div>","null","","","fixation","","","","","","","",""
"","","","","","audio-keyboard-response","213","554991","0.0-248.0","77","1","2023-11-04 21:31:27","a725c3012b74bf33a1020a98cb69c237","181.80.3.161","Mozilla/5.0 (Windows NT 10.0; Win64; x64) AppleWebKit/537.36 (KHTML, like Gecko) Chrome/119.0.0.0 Safari/537.36","WebKit","Chrome","119.0.0.0","Windows","10.0","null","es-419,es;q=0.9","true","null","tones/880hz_short.mp3","null","","","tone_number_task","102.5","46","tones/880hz_short.mp3","252.5","100","0","37",""
"","","","","","html-keyboard-response","214","555199","0.0-251.0-0.0","77","1","2023-11-04 21:31:27","a725c3012b74bf33a1020a98cb69c237","181.80.3.161","Mozilla/5.0 (Windows NT 10.0; Win64; x64) AppleWebKit/537.36 (KHTML, like Gecko) Chrome/119.0.0.0 Safari/537.36","WebKit","Chrome","119.0.0.0","Windows","10.0","null","es-419,es;q=0.9","true","194","tones/880hz_short.mp3","s","","","empty_block","","46","","","","0","37",""
"","","","","","html-keyboard-response","215","555704","0.0-251.0-1.0","77","1","2023-11-04 21:31:27","a725c3012b74bf33a1020a98cb69c237","181.80.3.161","Mozilla/5.0 (Windows NT 10.0; Win64; x64) AppleWebKit/537.36 (KHTML, like Gecko) Chrome/119.0.0.0 Safari/537.36","WebKit","Chrome","119.0.0.0","Windows","10.0","null","es-419,es;q=0.9","true","493","tones/880hz_short.mp3","j","","","empty_block","","46","","","","0","37",""
"","","","","","html-keyboard-response","216","558619","0.0-253.0","77","1","2023-11-04 21:31:27","a725c3012b74bf33a1020a98cb69c237","181.80.3.161","Mozilla/5.0 (Windows NT 10.0; Win64; x64) AppleWebKit/537.36 (KHTML, like Gecko) Chrome/119.0.0.0 Safari/537.36","WebKit","Chrome","119.0.0.0","Windows","10.0","null","es-419,es;q=0.9","true","null","<div style=""font-size:100px;"">X</div>","null","","","fixation","","","","","","","",""
"","","","","","audio-keyboard-response","217","559292","0.0-254.0","77","1","2023-11-04 21:31:27","a725c3012b74bf33a1020a98cb69c237","181.80.3.161","Mozilla/5.0 (Windows NT 10.0; Win64; x64) AppleWebKit/537.36 (KHTML, like Gecko) Chrome/119.0.0.0 Safari/537.36","WebKit","Chrome","119.0.0.0","Windows","10.0","null","es-419,es;q=0.9","true","659","tones/440hz_short.mp3","a","","","tone_number_task","1025","61","tones/440hz_short.mp3","1175","100","0","38",""
"","","","","","html-keyboard-response","218","559678","0.0-255.0-0.0","77","1","2023-11-04 21:31:27","a725c3012b74bf33a1020a98cb69c237","181.80.3.161","Mozilla/5.0 (Windows NT 10.0; Win64; x64) AppleWebKit/537.36 (KHTML, like Gecko) Chrome/119.0.0.0 Safari/537.36","WebKit","Chrome","119.0.0.0","Windows","10.0","null","es-419,es;q=0.9","true","null","","null","","","delay_block","","","","","","0","38",""
"","","","","","html-keyboard-response","219","559852","0.0-255.0-1.0","77","1","2023-11-04 21:31:27","a725c3012b74bf33a1020a98cb69c237","181.80.3.161","Mozilla/5.0 (Windows NT 10.0; Win64; x64) AppleWebKit/537.36 (KHTML, like Gecko) Chrome/119.0.0.0 Safari/537.36","WebKit","Chrome","119.0.0.0","Windows","10.0","null","es-419,es;q=0.9","true","null","<p id=""stimulus"" style=""font-size:100px;"">61</p>","null","","","tone_number_task_remaining_before_delay","","61","","516","100","0","38",""
"","","","","","html-keyboard-response","220","559972","0.0-258.0-0.0","77","1","2023-11-04 21:31:27","a725c3012b74bf33a1020a98cb69c237","181.80.3.161","Mozilla/5.0 (Windows NT 10.0; Win64; x64) AppleWebKit/537.36 (KHTML, like Gecko) Chrome/119.0.0.0 Safari/537.36","WebKit","Chrome","119.0.0.0","Windows","10.0","null","es-419,es;q=0.9","true","106","<p id=""stimulus"" style=""font-size:100px;"">61</p>","k","","","empty_block","","61","","","","0","38",""
