"success","timeout","failed_images","failed_audio","failed_video","trial_type","trial_index","time_elapsed","internal_node_id","run_id","condition","recorded_at","source_code_version","ip","user_agent","device","browser","browser_version","platform","platform_version","referer","accept_language","check","rt","stimulus","response","question_order","url","task","delay","number","audioFile","trial_duration","font_size","block","round","value"
"true","false","[]","[]","[]","preload","0","35","0.0-0.0","75","1","2023-11-02 01:07:07","a725c3012b74bf33a1020a98cb69c237","181.44.118.207","Mozilla/5.0 (Windows NT 10.0; Win64; x64) AppleWebKit/537.36 (KHTML, like Gecko) Chrome/118.0.0.0 Safari/537.36 Edg/118.0.2088.76","WebKit","Edge","118.0.2088.76","Windows","10.0","null","en-US,en;q=0.9","true","","","","","","","","","","","","","",""
"true","","","","","fullscreen","1","2539","0.0-1.0","75","1","2023-11-02 01:07:07","a725c3012b74bf33a1020a98cb69c237","181.44.118.207","Mozilla/5.0 (Windows NT 10.0; Win64; x64) AppleWebKit/537.36 (KHTML, like Gecko) Chrome/118.0.0.0 Safari/537.36 Edg/118.0.2088.76","WebKit","Edge","118.0.2088.76","Windows","10.0","null","en-US,en;q=0.9","true","","","","","","","","","","","","","",""
"","","","","","html-button-response","2","4196","0.0-2.0","75","1","2023-11-02 01:07:07","a725c3012b74bf33a1020a98cb69c237","181.44.118.207","Mozilla/5.0 (Windows NT 10.0; Win64; x64) AppleWebKit/537.36 (KHTML, like Gecko) Chrome/118.0.0.0 Safari/537.36 Edg/118.0.2088.76","WebKit","Edge","118.0.2088.76","Windows","10.0","null","en-US,en;q=0.9","true","1646","<p style=""font-size:24px; color:red;"">Cosas importantes a tener en cuenta antes de comenzar el experimento:</p>","0","","","","","","","","","","",""
"","","","","","html-button-response","3","5394","0.0-3.0","75","1","2023-11-02 01:07:07","a725c3012b74bf33a1020a98cb69c237","181.44.118.207","Mozilla/5.0 (Windows NT 10.0; Win64; x64) AppleWebKit/537.36 (KHTML, like Gecko) Chrome/118.0.0.0 Safari/537.36 Edg/118.0.2088.76","WebKit","Edge","118.0.2088.76","Windows","10.0","null","en-US,en;q=0.9","true","1189","<p style=""font-size:24px;"">El experimento dura aproximadamente 15 minutos.</p><p style=""font-size:24px;"">Por favor, no cierres la ventana del navegador durante el experimento.</p><p style=""font-size:24px;"">Si se completa de forma parcial, no se guardará ningún resultado.</p>","0","","","","","","","","","","",""
"","","","","","html-button-response","4","6639","0.0-4.0","75","1","2023-11-02 01:07:07","a725c3012b74bf33a1020a98cb69c237","181.44.118.207","Mozilla/5.0 (Windows NT 10.0; Win64; x64) AppleWebKit/537.36 (KHTML, like Gecko) Chrome/118.0.0.0 Safari/537.36 Edg/118.0.2088.76","WebKit","Edge","118.0.2088.76","Windows","10.0","null","en-US,en;q=0.9","true","1236","<p style=""font-size:24px;"">El experimento contiene estímulos sonoros.</p>","0","","","","","","","","","","",""
"","","","","","audio-button-response","5","8551","0.0-5.0-0.0","75","1","2023-11-02 01:07:07","a725c3012b74bf33a1020a98cb69c237","181.44.118.207","Mozilla/5.0 (Windows NT 10.0; Win64; x64) AppleWebKit/537.36 (KHTML, like Gecko) Chrome/118.0.0.0 Safari/537.36 Edg/118.0.2088.76","WebKit","Edge","118.0.2088.76","Windows","10.0","null","en-US,en;q=0.9","true","1771","tones/440hz_short.mp3","1","","","","","","","","","","",""
"","","","","","audio-button-response","6","9722","0.0-6.0-0.0","75","1","2023-11-02 01:07:07","a725c3012b74bf33a1020a98cb69c237","181.44.118.207","Mozilla/5.0 (Windows NT 10.0; Win64; x64) AppleWebKit/537.36 (KHTML, like Gecko) Chrome/118.0.0.0 Safari/537.36 Edg/118.0.2088.76","WebKit","Edge","118.0.2088.76","Windows","10.0","null","en-US,en;q=0.9","true","1171","tones/880hz_short.mp3","1","","","","","","","","","","",""
"","","","","","survey-html-form","7","13157","0.0-7.0","75","1","2023-11-02 01:07:07","a725c3012b74bf33a1020a98cb69c237","181.44.118.207","Mozilla/5.0 (Windows NT 10.0; Win64; x64) AppleWebKit/537.36 (KHTML, like Gecko) Chrome/118.0.0.0 Safari/537.36 Edg/118.0.2088.76","WebKit","Edge","118.0.2088.76","Windows","10.0","null","en-US,en;q=0.9","true","3413","","{""response"":""23""}","","","","","","","","","","",""
"","","","","","survey-multi-choice","8","19354","0.0-8.0","75","1","2023-11-02 01:07:07","a725c3012b74bf33a1020a98cb69c237","181.44.118.207","Mozilla/5.0 (Windows NT 10.0; Win64; x64) AppleWebKit/537.36 (KHTML, like Gecko) Chrome/118.0.0.0 Safari/537.36 Edg/118.0.2088.76","WebKit","Edge","118.0.2088.76","Windows","10.0","null","en-US,en;q=0.9","true","6184","","{""gender"":""Mujer"",""hand"":""Derecha""}","[0,1]","","","","","","","","","",""
"","","","","","external-html","9","77514","0.0-9.0","75","1","2023-11-02 01:07:07","a725c3012b74bf33a1020a98cb69c237","181.44.118.207","Mozilla/5.0 (Windows NT 10.0; Win64; x64) AppleWebKit/537.36 (KHTML, like Gecko) Chrome/118.0.0.0 Safari/537.36 Edg/118.0.2088.76","WebKit","Edge","118.0.2088.76","Windows","10.0","null","en-US,en;q=0.9","true","57745","","","","instructions/instructions.html","","","","","","","","",""
"","","","","","external-html","10","101004","0.0-10.0","75","1","2023-11-02 01:07:07","a725c3012b74bf33a1020a98cb69c237","181.44.118.207","Mozilla/5.0 (Windows NT 10.0; Win64; x64) AppleWebKit/537.36 (KHTML, like Gecko) Chrome/118.0.0.0 Safari/537.36 Edg/118.0.2088.76","WebKit","Edge","118.0.2088.76","Windows","10.0","null","en-US,en;q=0.9","true","22438","","","","instructions/animation.html","","","","","","","","",""
"","","","","","html-keyboard-response","11","103723","0.0-11.0-0.0","75","1","2023-11-02 01:07:07","a725c3012b74bf33a1020a98cb69c237","181.44.118.207","Mozilla/5.0 (Windows NT 10.0; Win64; x64) AppleWebKit/537.36 (KHTML, like Gecko) Chrome/118.0.0.0 Safari/537.36 Edg/118.0.2088.76","WebKit","Edge","118.0.2088.76","Windows","10.0","null","en-US,en;q=0.9","true","null","<div style=""font-size:100px;"">X</div>","null","","","fixation","","","","","","","",""
"","","","","","audio-keyboard-response","12","104820","0.0-11.0-1.0","75","1","2023-11-02 01:07:07","a725c3012b74bf33a1020a98cb69c237","181.44.118.207","Mozilla/5.0 (Windows NT 10.0; Win64; x64) AppleWebKit/537.36 (KHTML, like Gecko) Chrome/118.0.0.0 Safari/537.36 Edg/118.0.2088.76","WebKit","Edge","118.0.2088.76","Windows","10.0","null","en-US,en;q=0.9","true","1032","tones/440hz_short.mp3","s","","","tone_number_task","1000","21","tones/440hz_short.mp3","1150","100","null","null",""
"","","","","","html-keyboard-response","13","104951","0.0-11.0-3.0-0.0","75","1","2023-11-02 01:07:07","a725c3012b74bf33a1020a98cb69c237","181.44.118.207","Mozilla/5.0 (Windows NT 10.0; Win64; x64) AppleWebKit/537.36 (KHTML, like Gecko) Chrome/118.0.0.0 Safari/537.36 Edg/118.0.2088.76","WebKit","Edge","118.0.2088.76","Windows","10.0","null","en-US,en;q=0.9","true","null","<p id=""stimulus"" style=""font-size:100px;"">21</p>","null","","","tone_number_task_remaining_after_delay","","21","","","100","null","null",""
"","","","","","html-keyboard-response","14","114960","0.0-11.0-5.0-0.0","75","1","2023-11-02 01:07:07","a725c3012b74bf33a1020a98cb69c237","181.44.118.207","Mozilla/5.0 (Windows NT 10.0; Win64; x64) AppleWebKit/537.36 (KHTML, like Gecko) Chrome/118.0.0.0 Safari/537.36 Edg/118.0.2088.76","WebKit","Edge","118.0.2088.76","Windows","10.0","null","en-US,en;q=0.9","true","null","<p id=""stimulus"" style=""font-size:100px;"">21</p>","null","","","empty_block","","21","","","","null","null",""
"","","","","","html-button-response","15","118849","0.0-11.0-6.0-0.0","75","1","2023-11-02 01:07:07","a725c3012b74bf33a1020a98cb69c237","181.44.118.207","Mozilla/5.0 (Windows NT 10.0; Win64; x64) AppleWebKit/537.36 (KHTML, like Gecko) Chrome/118.0.0.0 Safari/537.36 Edg/118.0.2088.76","WebKit","Edge","118.0.2088.76","Windows","10.0","null","en-US,en;q=0.9","true","3882","
  '<p style=""font-size:24px; color:red;"">Incorrecto</p><p> Respondiste alguno de los estímulos de manera incorrecta.</p><p>Por favor, repasá las instrucciones y seguimos desde donde nos quedamos. </p>
  ","0","","","","","","","","","","",""
"","","","","","external-html","16","125945","0.0-11.0-6.0-1.0","75","1","2023-11-02 01:07:07","a725c3012b74bf33a1020a98cb69c237","181.44.118.207","Mozilla/5.0 (Windows NT 10.0; Win64; x64) AppleWebKit/537.36 (KHTML, like Gecko) Chrome/118.0.0.0 Safari/537.36 Edg/118.0.2088.76","WebKit","Edge","118.0.2088.76","Windows","10.0","null","en-US,en;q=0.9","true","6636","","","","instructions/instructions_B.html","","","","","","","","",""
"","","","","","html-keyboard-response","17","128671","0.0-11.1-0.1","75","1","2023-11-02 01:07:07","a725c3012b74bf33a1020a98cb69c237","181.44.118.207","Mozilla/5.0 (Windows NT 10.0; Win64; x64) AppleWebKit/537.36 (KHTML, like Gecko) Chrome/118.0.0.0 Safari/537.36 Edg/118.0.2088.76","WebKit","Edge","118.0.2088.76","Windows","10.0","null","en-US,en;q=0.9","true","null","<div style=""font-size:100px;"">X</div>","null","","","fixation","","","","","","","",""
"","","","","","audio-keyboard-response","18","129680","0.0-11.1-1.1","75","1","2023-11-02 01:07:07","a725c3012b74bf33a1020a98cb69c237","181.44.118.207","Mozilla/5.0 (Windows NT 10.0; Win64; x64) AppleWebKit/537.36 (KHTML, like Gecko) Chrome/118.0.0.0 Safari/537.36 Edg/118.0.2088.76","WebKit","Edge","118.0.2088.76","Windows","10.0","null","en-US,en;q=0.9","true","1000","tones/440hz_short.mp3","a","","","tone_number_task","1000","21","tones/440hz_short.mp3","1150","100","null","null",""
"","","","","","html-keyboard-response","19","129687","0.0-11.1-2.1-0.1","75","1","2023-11-02 01:07:07","a725c3012b74bf33a1020a98cb69c237","181.44.118.207","Mozilla/5.0 (Windows NT 10.0; Win64; x64) AppleWebKit/537.36 (KHTML, like Gecko) Chrome/118.0.0.0 Safari/537.36 Edg/118.0.2088.76","WebKit","Edge","118.0.2088.76","Windows","10.0","null","en-US,en;q=0.9","true","null","","null","","","delay_block","","","","","","null","null",""
"","","","","","html-keyboard-response","20","129845","0.0-11.1-2.1-1.1","75","1","2023-11-02 01:07:07","a725c3012b74bf33a1020a98cb69c237","181.44.118.207","Mozilla/5.0 (Windows NT 10.0; Win64; x64) AppleWebKit/537.36 (KHTML, like Gecko) Chrome/118.0.0.0 Safari/537.36 Edg/118.0.2088.76","WebKit","Edge","118.0.2088.76","Windows","10.0","null","en-US,en;q=0.9","true","null","<p id=""stimulus"" style=""font-size:100px;"">21</p>","null","","","tone_number_task_remaining_before_delay","","21","","150","100","null","null",""
"","","","","","html-keyboard-response","21","133095","0.0-11.1-5.1-0.1","75","1","2023-11-02 01:07:07","a725c3012b74bf33a1020a98cb69c237","181.44.118.207","Mozilla/5.0 (Windows NT 10.0; Win64; x64) AppleWebKit/537.36 (KHTML, like Gecko) Chrome/118.0.0.0 Safari/537.36 Edg/118.0.2088.76","WebKit","Edge","118.0.2088.76","Windows","10.0","null","en-US,en;q=0.9","true","3246","<p id=""stimulus"" style=""font-size:100px;"">21</p>","j","","","empty_block","","21","","","","null","null",""
"","","","","","html-keyboard-response","22","135801","0.0-13.0-0.0","75","1","2023-11-02 01:07:07","a725c3012b74bf33a1020a98cb69c237","181.44.118.207","Mozilla/5.0 (Windows NT 10.0; Win64; x64) AppleWebKit/537.36 (KHTML, like Gecko) Chrome/118.0.0.0 Safari/537.36 Edg/118.0.2088.76","WebKit","Edge","118.0.2088.76","Windows","10.0","null","en-US,en;q=0.9","true","null","<div style=""font-size:100px;"">X</div>","null","","","fixation","","","","","","","",""
"","","","","","audio-keyboard-response","23","136460","0.0-13.0-1.0","75","1","2023-11-02 01:07:07","a725c3012b74bf33a1020a98cb69c237","181.44.118.207","Mozilla/5.0 (Windows NT 10.0; Win64; x64) AppleWebKit/537.36 (KHTML, like Gecko) Chrome/118.0.0.0 Safari/537.36 Edg/118.0.2088.76","WebKit","Edge","118.0.2088.76","Windows","10.0","null","en-US,en;q=0.9","true","null","tones/440hz_short.mp3","null","","","tone_number_task","500","24","tones/440hz_short.mp3","650","100","null","null",""
"","","","","","html-keyboard-response","24","136542","0.0-13.0-4.0-0.0","75","1","2023-11-02 01:07:07","a725c3012b74bf33a1020a98cb69c237","181.44.118.207","Mozilla/5.0 (Windows NT 10.0; Win64; x64) AppleWebKit/537.36 (KHTML, like Gecko) Chrome/118.0.0.0 Safari/537.36 Edg/118.0.2088.76","WebKit","Edge","118.0.2088.76","Windows","10.0","null","en-US,en;q=0.9","true","79","tones/440hz_short.mp3","a","","","empty_block","","24","","","","null","null",""
"","","","","","html-keyboard-response","25","137597","0.0-13.0-4.0-1.0","75","1","2023-11-02 01:07:07","a725c3012b74bf33a1020a98cb69c237","181.44.118.207","Mozilla/5.0 (Windows NT 10.0; Win64; x64) AppleWebKit/537.36 (KHTML, like Gecko) Chrome/118.0.0.0 Safari/537.36 Edg/118.0.2088.76","WebKit","Edge","118.0.2088.76","Windows","10.0","null","en-US,en;q=0.9","true","1051","tones/440hz_short.mp3","j","","","empty_block","","24","","","","null","null",""
"","","","","","html-keyboard-response","26","140311","0.0-15.0-0.0","75","1","2023-11-02 01:07:07","a725c3012b74bf33a1020a98cb69c237","181.44.118.207","Mozilla/5.0 (Windows NT 10.0; Win64; x64) AppleWebKit/537.36 (KHTML, like Gecko) Chrome/118.0.0.0 Safari/537.36 Edg/118.0.2088.76","WebKit","Edge","118.0.2088.76","Windows","10.0","null","en-US,en;q=0.9","true","null","<div style=""font-size:100px;"">X</div>","null","","","fixation","","","","","","","",""
"","","","","","audio-keyboard-response","27","140621","0.0-15.0-1.0","75","1","2023-11-02 01:07:07","a725c3012b74bf33a1020a98cb69c237","181.44.118.207","Mozilla/5.0 (Windows NT 10.0; Win64; x64) AppleWebKit/537.36 (KHTML, like Gecko) Chrome/118.0.0.0 Safari/537.36 Edg/118.0.2088.76","WebKit","Edge","118.0.2088.76","Windows","10.0","null","en-US,en;q=0.9","true","null","tones/880hz_short.mp3","null","","","tone_number_task","150","48","tones/880hz_short.mp3","300","100","null","null",""
"","","","","","html-keyboard-response","28","141974","0.0-15.0-4.0-0.0","75","1","2023-11-02 01:07:07","a725c3012b74bf33a1020a98cb69c237","181.44.118.207","Mozilla/5.0 (Windows NT 10.0; Win64; x64) AppleWebKit/537.36 (KHTML, like Gecko) Chrome/118.0.0.0 Safari/537.36 Edg/118.0.2088.76","WebKit","Edge","118.0.2088.76","Windows","10.0","null","en-US,en;q=0.9","true","1347","tones/880hz_short.mp3","k","","","empty_block","","48","","","","null","null",""
"","","","","","html-keyboard-response","29","145168","0.0-15.0-4.0-1.0","75","1","2023-11-02 01:07:07","a725c3012b74bf33a1020a98cb69c237","181.44.118.207","Mozilla/5.0 (Windows NT 10.0; Win64; x64) AppleWebKit/537.36 (KHTML, like Gecko) Chrome/118.0.0.0 Safari/537.36 Edg/118.0.2088.76","WebKit","Edge","118.0.2088.76","Windows","10.0","null","en-US,en;q=0.9","true","3190","tones/880hz_short.mp3","s","","","empty_block","","48","","","","null","null",""
"","","","","","html-keyboard-response","30","147870","0.0-17.0-0.0","75","1","2023-11-02 01:07:07","a725c3012b74bf33a1020a98cb69c237","181.44.118.207","Mozilla/5.0 (Windows NT 10.0; Win64; x64) AppleWebKit/537.36 (KHTML, like Gecko) Chrome/118.0.0.0 Safari/537.36 Edg/118.0.2088.76","WebKit","Edge","118.0.2088.76","Windows","10.0","null","en-US,en;q=0.9","true","null","<div style=""font-size:100px;"">X</div>","null","","","fixation","","","","","","","",""
"","","","","","audio-keyboard-response","31","148091","0.0-17.0-1.0","75","1","2023-11-02 01:07:07","a725c3012b74bf33a1020a98cb69c237","181.44.118.207","Mozilla/5.0 (Windows NT 10.0; Win64; x64) AppleWebKit/537.36 (KHTML, like Gecko) Chrome/118.0.0.0 Safari/537.36 Edg/118.0.2088.76","WebKit","Edge","118.0.2088.76","Windows","10.0","null","en-US,en;q=0.9","true","null","tones/440hz_short.mp3","null","","","tone_number_task","50","29","tones/440hz_short.mp3","200","100","null","null",""
"","","","","","html-keyboard-response","32","149452","0.0-17.0-4.0-0.0","75","1","2023-11-02 01:07:07","a725c3012b74bf33a1020a98cb69c237","181.44.118.207","Mozilla/5.0 (Windows NT 10.0; Win64; x64) AppleWebKit/537.36 (KHTML, like Gecko) Chrome/118.0.0.0 Safari/537.36 Edg/118.0.2088.76","WebKit","Edge","118.0.2088.76","Windows","10.0","null","en-US,en;q=0.9","true","1357","tones/440hz_short.mp3","j","","","empty_block","","29","","","","null","null",""
"","","","","","html-keyboard-response","33","149978","0.0-17.0-4.0-1.0","75","1","2023-11-02 01:07:07","a725c3012b74bf33a1020a98cb69c237","181.44.118.207","Mozilla/5.0 (Windows NT 10.0; Win64; x64) AppleWebKit/537.36 (KHTML, like Gecko) Chrome/118.0.0.0 Safari/537.36 Edg/118.0.2088.76","WebKit","Edge","118.0.2088.76","Windows","10.0","null","en-US,en;q=0.9","true","522","tones/440hz_short.mp3","a","","","empty_block","","29","","","","null","null",""
"","","","","","html-button-response","34","156255","0.0-19.0","75","1","2023-11-02 01:07:07","a725c3012b74bf33a1020a98cb69c237","181.44.118.207","Mozilla/5.0 (Windows NT 10.0; Win64; x64) AppleWebKit/537.36 (KHTML, like Gecko) Chrome/118.0.0.0 Safari/537.36 Edg/118.0.2088.76","WebKit","Edge","118.0.2088.76","Windows","10.0","null","en-US,en;q=0.9","true","6271","
  <h1> Muy bien </h1>
  <p> Ahora, en vez de ser presentados en dígitos, los números vendrán escritos en palabras. </p>
  <p> Por ejemplo, en vez de 44 te aparecerá ""cuarenta y cuatro"". </p>
  ","0","","","","","","","","","","",""
"","","","","","html-keyboard-response","35","158957","0.0-20.0-0.0","75","1","2023-11-02 01:07:07","a725c3012b74bf33a1020a98cb69c237","181.44.118.207","Mozilla/5.0 (Windows NT 10.0; Win64; x64) AppleWebKit/537.36 (KHTML, like Gecko) Chrome/118.0.0.0 Safari/537.36 Edg/118.0.2088.76","WebKit","Edge","118.0.2088.76","Windows","10.0","null","en-US,en;q=0.9","true","null","<div style=""font-size:100px;"">X</div>","null","","","fixation","","","","","","","",""
"","","","","","audio-keyboard-response","36","160115","0.0-20.0-1.0","75","1","2023-11-02 01:07:07","a725c3012b74bf33a1020a98cb69c237","181.44.118.207","Mozilla/5.0 (Windows NT 10.0; Win64; x64) AppleWebKit/537.36 (KHTML, like Gecko) Chrome/118.0.0.0 Safari/537.36 Edg/118.0.2088.76","WebKit","Edge","118.0.2088.76","Windows","10.0","null","en-US,en;q=0.9","true","null","tones/440hz_short.mp3","null","","","tone_number_task","1000","treinta","tones/440hz_short.mp3","1150","60","null","null",""
"","","","","","html-keyboard-response","37","162607","0.0-20.0-4.0-0.0","75","1","2023-11-02 01:07:07","a725c3012b74bf33a1020a98cb69c237","181.44.118.207","Mozilla/5.0 (Windows NT 10.0; Win64; x64) AppleWebKit/537.36 (KHTML, like Gecko) Chrome/118.0.0.0 Safari/537.36 Edg/118.0.2088.76","WebKit","Edge","118.0.2088.76","Windows","10.0","null","en-US,en;q=0.9","true","2487","tones/440hz_short.mp3","a","","","empty_block","","treinta","","","","null","null",""
"","","","","","html-keyboard-response","38","162776","0.0-20.0-4.0-1.0","75","1","2023-11-02 01:07:07","a725c3012b74bf33a1020a98cb69c237","181.44.118.207","Mozilla/5.0 (Windows NT 10.0; Win64; x64) AppleWebKit/537.36 (KHTML, like Gecko) Chrome/118.0.0.0 Safari/537.36 Edg/118.0.2088.76","WebKit","Edge","118.0.2088.76","Windows","10.0","null","en-US,en;q=0.9","true","164","tones/440hz_short.mp3","j","","","empty_block","","treinta","","","","null","null",""
"","","","","","html-button-response","39","171301","0.0-22.0","75","1","2023-11-02 01:07:07","a725c3012b74bf33a1020a98cb69c237","181.44.118.207","Mozilla/5.0 (Windows NT 10.0; Win64; x64) AppleWebKit/537.36 (KHTML, like Gecko) Chrome/118.0.0.0 Safari/537.36 Edg/118.0.2088.76","WebKit","Edge","118.0.2088.76","Windows","10.0","null","en-US,en;q=0.9","true","8520","
  <h1> Fin del Entrenamiento </h1>
  <p> ¡Felicitaciones, terminaste el entrenamiento! Ahora vamos a comenzar con el experimento. </p>
  <p> Es importante tener en cuenta que consta de cuatro bloques.</p>
  <p> Podés aprovechar los momentos entre bloques para tomar un breve descanso o tomar agua entre cada uno</p>
  <p> Recordá que tenés que responder lo más rápido que puedas, pero sin equivocarte. </p>
  ","0","","","","","","","","","","",""
"","","","","","external-html","40","177545","0.0-23.0","75","1","2023-11-02 01:07:07","a725c3012b74bf33a1020a98cb69c237","181.44.118.207","Mozilla/5.0 (Windows NT 10.0; Win64; x64) AppleWebKit/537.36 (KHTML, like Gecko) Chrome/118.0.0.0 Safari/537.36 Edg/118.0.2088.76","WebKit","Edge","118.0.2088.76","Windows","10.0","null","en-US,en;q=0.9","true","5720","","","","instructions/instructions_words_first.html","","","","","","","","",""
"","","","","","call-function","41","177561","0.0-24.0","75","1","2023-11-02 01:07:07","a725c3012b74bf33a1020a98cb69c237","181.44.118.207","Mozilla/5.0 (Windows NT 10.0; Win64; x64) AppleWebKit/537.36 (KHTML, like Gecko) Chrome/118.0.0.0 Safari/537.36 Edg/118.0.2088.76","WebKit","Edge","118.0.2088.76","Windows","10.0","null","en-US,en;q=0.9","true","","","","","","","","","","","","","",""
"","","","","","html-keyboard-response","42","180270","0.0-25.0","75","1","2023-11-02 01:07:07","a725c3012b74bf33a1020a98cb69c237","181.44.118.207","Mozilla/5.0 (Windows NT 10.0; Win64; x64) AppleWebKit/537.36 (KHTML, like Gecko) Chrome/118.0.0.0 Safari/537.36 Edg/118.0.2088.76","WebKit","Edge","118.0.2088.76","Windows","10.0","null","en-US,en;q=0.9","true","null","<div style=""font-size:100px;"">X</div>","null","","","fixation","","","","","","","",""
"","","","","","audio-keyboard-response","43","181257","0.0-26.0","75","1","2023-11-02 01:07:07","a725c3012b74bf33a1020a98cb69c237","181.44.118.207","Mozilla/5.0 (Windows NT 10.0; Win64; x64) AppleWebKit/537.36 (KHTML, like Gecko) Chrome/118.0.0.0 Safari/537.36 Edg/118.0.2088.76","WebKit","Edge","118.0.2088.76","Windows","10.0","null","en-US,en;q=0.9","true","981","tones/880hz_short.mp3","s","","","tone_number_task","1025","veintidós","tones/880hz_short.mp3","1175","60","2","0",""
"","","","","","html-keyboard-response","44","181309","0.0-27.0-0.0","75","1","2023-11-02 01:07:07","a725c3012b74bf33a1020a98cb69c237","181.44.118.207","Mozilla/5.0 (Windows NT 10.0; Win64; x64) AppleWebKit/537.36 (KHTML, like Gecko) Chrome/118.0.0.0 Safari/537.36 Edg/118.0.2088.76","WebKit","Edge","118.0.2088.76","Windows","10.0","null","en-US,en;q=0.9","true","null","","null","","","delay_block","","","","","","2","0",""
"","","","","","html-keyboard-response","45","181466","0.0-27.0-1.0","75","1","2023-11-02 01:07:07","a725c3012b74bf33a1020a98cb69c237","181.44.118.207","Mozilla/5.0 (Windows NT 10.0; Win64; x64) AppleWebKit/537.36 (KHTML, like Gecko) Chrome/118.0.0.0 Safari/537.36 Edg/118.0.2088.76","WebKit","Edge","118.0.2088.76","Windows","10.0","null","en-US,en;q=0.9","true","null","<p id=""stimulus"" style=""font-size:60px;"">veintidós</p>","null","","","tone_number_task_remaining_before_delay","","veintidós","","194","60","2","0",""
"","","","","","html-keyboard-response","46","182277","0.0-30.0-0.0","75","1","2023-11-02 01:07:07","a725c3012b74bf33a1020a98cb69c237","181.44.118.207","Mozilla/5.0 (Windows NT 10.0; Win64; x64) AppleWebKit/537.36 (KHTML, like Gecko) Chrome/118.0.0.0 Safari/537.36 Edg/118.0.2088.76","WebKit","Edge","118.0.2088.76","Windows","10.0","null","en-US,en;q=0.9","true","807","<p id=""stimulus"" style=""font-size:60px;"">veintidós</p>","j","","","empty_block","","veintidós","","","","2","0",""
"","","","","","html-keyboard-response","47","184982","0.0-31.0","75","1","2023-11-02 01:07:07","a725c3012b74bf33a1020a98cb69c237","181.44.118.207","Mozilla/5.0 (Windows NT 10.0; Win64; x64) AppleWebKit/537.36 (KHTML, like Gecko) Chrome/118.0.0.0 Safari/537.36 Edg/118.0.2088.76","WebKit","Edge","118.0.2088.76","Windows","10.0","null","en-US,en;q=0.9","true","null","<div style=""font-size:100px;"">X</div>","null","","","fixation","","","","","","","",""
"","","","","","audio-keyboard-response","48","185241","0.0-32.0","75","1","2023-11-02 01:07:07","a725c3012b74bf33a1020a98cb69c237","181.44.118.207","Mozilla/5.0 (Windows NT 10.0; Win64; x64) AppleWebKit/537.36 (KHTML, like Gecko) Chrome/118.0.0.0 Safari/537.36 Edg/118.0.2088.76","WebKit","Edge","118.0.2088.76","Windows","10.0","null","en-US,en;q=0.9","true","null","tones/440hz_short.mp3","null","","","tone_number_task","102.5","treinta y cinco","tones/440hz_short.mp3","252.5","60","2","1",""
"","","","","","html-keyboard-response","49","186448","0.0-35.0-0.0","75","1","2023-11-02 01:07:07","a725c3012b74bf33a1020a98cb69c237","181.44.118.207","Mozilla/5.0 (Windows NT 10.0; Win64; x64) AppleWebKit/537.36 (KHTML, like Gecko) Chrome/118.0.0.0 Safari/537.36 Edg/118.0.2088.76","WebKit","Edge","118.0.2088.76","Windows","10.0","null","en-US,en;q=0.9","true","null","tones/440hz_short.mp3","null","","","empty_block","","treinta y cinco","","","","2","1",""
"","","","","","html-keyboard-response","50","187467","0.0-35.0-1.0","75","1","2023-11-02 01:07:07","a725c3012b74bf33a1020a98cb69c237","181.44.118.207","Mozilla/5.0 (Windows NT 10.0; Win64; x64) AppleWebKit/537.36 (KHTML, like Gecko) Chrome/118.0.0.0 Safari/537.36 Edg/118.0.2088.76","WebKit","Edge","118.0.2088.76","Windows","10.0","null","en-US,en;q=0.9","true","1015","tones/440hz_short.mp3","a","","","empty_block","","treinta y cinco","","","","2","1",""
"","","","","","html-keyboard-response","51","190171","0.0-37.0","75","1","2023-11-02 01:07:07","a725c3012b74bf33a1020a98cb69c237","181.44.118.207","Mozilla/5.0 (Windows NT 10.0; Win64; x64) AppleWebKit/537.36 (KHTML, like Gecko) Chrome/118.0.0.0 Safari/537.36 Edg/118.0.2088.76","WebKit","Edge","118.0.2088.76","Windows","10.0","null","en-US,en;q=0.9","true","null","<div style=""font-size:100px;"">X</div>","null","","","fixation","","","","","","","",""
"","","","","","audio-keyboard-response","52","190431","0.0-38.0","75","1","2023-11-02 01:07:07","a725c3012b74bf33a1020a98cb69c237","181.44.118.207","Mozilla/5.0 (Windows NT 10.0; Win64; x64) AppleWebKit/537.36 (KHTML, like Gecko) Chrome/118.0.0.0 Safari/537.36 Edg/118.0.2088.76","WebKit","Edge","118.0.2088.76","Windows","10.0","null","en-US,en;q=0.9","true","null","tones/880hz_short.mp3","null","","","tone_number_task","102.5","cuarenta","tones/880hz_short.mp3","252.5","60","2","2",""
"","","","","","html-keyboard-response","53","191641","0.0-41.0-0.0","75","1","2023-11-02 01:07:07","a725c3012b74bf33a1020a98cb69c237","181.44.118.207","Mozilla/5.0 (Windows NT 10.0; Win64; x64) AppleWebKit/537.36 (KHTML, like Gecko) Chrome/118.0.0.0 Safari/537.36 Edg/118.0.2088.76","WebKit","Edge","118.0.2088.76","Windows","10.0","null","en-US,en;q=0.9","true","null","tones/880hz_short.mp3","null","","","empty_block","","cuarenta","","","","2","2",""
"","","","","","html-keyboard-response","54","192851","0.0-41.0-1.0","75","1","2023-11-02 01:07:07","a725c3012b74bf33a1020a98cb69c237","181.44.118.207","Mozilla/5.0 (Windows NT 10.0; Win64; x64) AppleWebKit/537.36 (KHTML, like Gecko) Chrome/118.0.0.0 Safari/537.36 Edg/118.0.2088.76","WebKit","Edge","118.0.2088.76","Windows","10.0","null","en-US,en;q=0.9","true","null","tones/880hz_short.mp3","null","","","empty_block","","cuarenta","","","","2","2",""
"","","","","","html-keyboard-response","55","195559","0.0-43.0","75","1","2023-11-02 01:07:07","a725c3012b74bf33a1020a98cb69c237","181.44.118.207","Mozilla/5.0 (Windows NT 10.0; Win64; x64) AppleWebKit/537.36 (KHTML, like Gecko) Chrome/118.0.0.0 Safari/537.36 Edg/118.0.2088.76","WebKit","Edge","118.0.2088.76","Windows","10.0","null","en-US,en;q=0.9","true","null","<div style=""font-size:100px;"">X</div>","null","","","fixation","","","","","","","",""
"","","","","","audio-keyboard-response","56","195821","0.0-44.0","75","1","2023-11-02 01:07:07","a725c3012b74bf33a1020a98cb69c237","181.44.118.207","Mozilla/5.0 (Windows NT 10.0; Win64; x64) AppleWebKit/537.36 (KHTML, like Gecko) Chrome/118.0.0.0 Safari/537.36 Edg/118.0.2088.76","WebKit","Edge","118.0.2088.76","Windows","10.0","null","en-US,en;q=0.9","true","null","tones/880hz_short.mp3","null","","","tone_number_task","102.5","treinta y seis","tones/880hz_short.mp3","252.5","60","2","3",""
"","","","","","html-keyboard-response","57","197031","0.0-47.0-0.0","75","1","2023-11-02 01:07:07","a725c3012b74bf33a1020a98cb69c237","181.44.118.207","Mozilla/5.0 (Windows NT 10.0; Win64; x64) AppleWebKit/537.36 (KHTML, like Gecko) Chrome/118.0.0.0 Safari/537.36 Edg/118.0.2088.76","WebKit","Edge","118.0.2088.76","Windows","10.0","null","en-US,en;q=0.9","true","null","tones/880hz_short.mp3","null","","","empty_block","","treinta y seis","","","","2","3",""
"","","","","","html-keyboard-response","58","197658","0.0-47.0-1.0","75","1","2023-11-02 01:07:07","a725c3012b74bf33a1020a98cb69c237","181.44.118.207","Mozilla/5.0 (Windows NT 10.0; Win64; x64) AppleWebKit/537.36 (KHTML, like Gecko) Chrome/118.0.0.0 Safari/537.36 Edg/118.0.2088.76","WebKit","Edge","118.0.2088.76","Windows","10.0","null","en-US,en;q=0.9","true","620","tones/880hz_short.mp3","s","","","empty_block","","treinta y seis","","","","2","3",""
"","","","","","html-keyboard-response","59","200361","0.0-49.0","75","1","2023-11-02 01:07:07","a725c3012b74bf33a1020a98cb69c237","181.44.118.207","Mozilla/5.0 (Windows NT 10.0; Win64; x64) AppleWebKit/537.36 (KHTML, like Gecko) Chrome/118.0.0.0 Safari/537.36 Edg/118.0.2088.76","WebKit","Edge","118.0.2088.76","Windows","10.0","null","en-US,en;q=0.9","true","null","<div style=""font-size:100px;"">X</div>","null","","","fixation","","","","","","","",""
"","","","","","audio-keyboard-response","60","201511","0.0-50.0","75","1","2023-11-02 01:07:07","a725c3012b74bf33a1020a98cb69c237","181.44.118.207","Mozilla/5.0 (Windows NT 10.0; Win64; x64) AppleWebKit/537.36 (KHTML, like Gecko) Chrome/118.0.0.0 Safari/537.36 Edg/118.0.2088.76","WebKit","Edge","118.0.2088.76","Windows","10.0","null","en-US,en;q=0.9","true","null","tones/440hz_short.mp3","null","","","tone_number_task","992.5","cincuenta y cinco","tones/440hz_short.mp3","1142.5","60","2","4",""
"","","","","","html-keyboard-response","61","202118","0.0-53.0-0.0","75","1","2023-11-02 01:07:07","a725c3012b74bf33a1020a98cb69c237","181.44.118.207","Mozilla/5.0 (Windows NT 10.0; Win64; x64) AppleWebKit/537.36 (KHTML, like Gecko) Chrome/118.0.0.0 Safari/537.36 Edg/118.0.2088.76","WebKit","Edge","118.0.2088.76","Windows","10.0","null","en-US,en;q=0.9","true","601","tones/440hz_short.mp3","a","","","empty_block","","cincuenta y cinco","","","","2","4",""
"","","","","","html-keyboard-response","62","202411","0.0-53.0-1.0","75","1","2023-11-02 01:07:07","a725c3012b74bf33a1020a98cb69c237","181.44.118.207","Mozilla/5.0 (Windows NT 10.0; Win64; x64) AppleWebKit/537.36 (KHTML, like Gecko) Chrome/118.0.0.0 Safari/537.36 Edg/118.0.2088.76","WebKit","Edge","118.0.2088.76","Windows","10.0","null","en-US,en;q=0.9","true","287","tones/440hz_short.mp3","k","","","empty_block","","cincuenta y cinco","","","","2","4",""
"","","","","","html-keyboard-response","63","205120","0.0-55.0","75","1","2023-11-02 01:07:07","a725c3012b74bf33a1020a98cb69c237","181.44.118.207","Mozilla/5.0 (Windows NT 10.0; Win64; x64) AppleWebKit/537.36 (KHTML, like Gecko) Chrome/118.0.0.0 Safari/537.36 Edg/118.0.2088.76","WebKit","Edge","118.0.2088.76","Windows","10.0","null","en-US,en;q=0.9","true","null","<div style=""font-size:100px;"">X</div>","null","","","fixation","","","","","","","",""
"","","","","","audio-keyboard-response","64","206271","0.0-56.0","75","1","2023-11-02 01:07:07","a725c3012b74bf33a1020a98cb69c237","181.44.118.207","Mozilla/5.0 (Windows NT 10.0; Win64; x64) AppleWebKit/537.36 (KHTML, like Gecko) Chrome/118.0.0.0 Safari/537.36 Edg/118.0.2088.76","WebKit","Edge","118.0.2088.76","Windows","10.0","null","en-US,en;q=0.9","true","null","tones/880hz_short.mp3","null","","","tone_number_task","992.5","veintiseis","tones/880hz_short.mp3","1142.5","60","2","5",""
"","","","","","html-keyboard-response","65","206702","0.0-59.0-0.0","75","1","2023-11-02 01:07:07","a725c3012b74bf33a1020a98cb69c237","181.44.118.207","Mozilla/5.0 (Windows NT 10.0; Win64; x64) AppleWebKit/537.36 (KHTML, like Gecko) Chrome/118.0.0.0 Safari/537.36 Edg/118.0.2088.76","WebKit","Edge","118.0.2088.76","Windows","10.0","null","en-US,en;q=0.9","true","426","tones/880hz_short.mp3","s","","","empty_block","","veintiseis","","","","2","5",""
"","","","","","html-keyboard-response","66","206912","0.0-59.0-1.0","75","1","2023-11-02 01:07:07","a725c3012b74bf33a1020a98cb69c237","181.44.118.207","Mozilla/5.0 (Windows NT 10.0; Win64; x64) AppleWebKit/537.36 (KHTML, like Gecko) Chrome/118.0.0.0 Safari/537.36 Edg/118.0.2088.76","WebKit","Edge","118.0.2088.76","Windows","10.0","null","en-US,en;q=0.9","true","204","tones/880hz_short.mp3","j","","","empty_block","","veintiseis","","","","2","5",""
"","","","","","html-keyboard-response","67","209621","0.0-61.0","75","1","2023-11-02 01:07:07","a725c3012b74bf33a1020a98cb69c237","181.44.118.207","Mozilla/5.0 (Windows NT 10.0; Win64; x64) AppleWebKit/537.36 (KHTML, like Gecko) Chrome/118.0.0.0 Safari/537.36 Edg/118.0.2088.76","WebKit","Edge","118.0.2088.76","Windows","10.0","null","en-US,en;q=0.9","true","null","<div style=""font-size:100px;"">X</div>","null","","","fixation","","","","","","","",""
"","","","","","audio-keyboard-response","68","210811","0.0-62.0","75","1","2023-11-02 01:07:07","a725c3012b74bf33a1020a98cb69c237","181.44.118.207","Mozilla/5.0 (Windows NT 10.0; Win64; x64) AppleWebKit/537.36 (KHTML, like Gecko) Chrome/118.0.0.0 Safari/537.36 Edg/118.0.2088.76","WebKit","Edge","118.0.2088.76","Windows","10.0","null","en-US,en;q=0.9","true","null","tones/880hz_short.mp3","null","","","tone_number_task","1025","treinta y ocho","tones/880hz_short.mp3","1175","60","2","6",""
"","","","","","html-keyboard-response","69","211047","0.0-65.0-0.0","75","1","2023-11-02 01:07:07","a725c3012b74bf33a1020a98cb69c237","181.44.118.207","Mozilla/5.0 (Windows NT 10.0; Win64; x64) AppleWebKit/537.36 (KHTML, like Gecko) Chrome/118.0.0.0 Safari/537.36 Edg/118.0.2088.76","WebKit","Edge","118.0.2088.76","Windows","10.0","null","en-US,en;q=0.9","true","231","tones/880hz_short.mp3","s","","","empty_block","","treinta y ocho","","","","2","6",""
"","","","","","html-keyboard-response","70","211468","0.0-65.0-1.0","75","1","2023-11-02 01:07:07","a725c3012b74bf33a1020a98cb69c237","181.44.118.207","Mozilla/5.0 (Windows NT 10.0; Win64; x64) AppleWebKit/537.36 (KHTML, like Gecko) Chrome/118.0.0.0 Safari/537.36 Edg/118.0.2088.76","WebKit","Edge","118.0.2088.76","Windows","10.0","null","en-US,en;q=0.9","true","415","tones/880hz_short.mp3","j","","","empty_block","","treinta y ocho","","","","2","6",""
"","","","","","html-keyboard-response","71","214182","0.0-67.0","75","1","2023-11-02 01:07:07","a725c3012b74bf33a1020a98cb69c237","181.44.118.207","Mozilla/5.0 (Windows NT 10.0; Win64; x64) AppleWebKit/537.36 (KHTML, like Gecko) Chrome/118.0.0.0 Safari/537.36 Edg/118.0.2088.76","WebKit","Edge","118.0.2088.76","Windows","10.0","null","en-US,en;q=0.9","true","null","<div style=""font-size:100px;"">X</div>","null","","","fixation","","","","","","","",""
"","","","","","audio-keyboard-response","72","215331","0.0-68.0","75","1","2023-11-02 01:07:07","a725c3012b74bf33a1020a98cb69c237","181.44.118.207","Mozilla/5.0 (Windows NT 10.0; Win64; x64) AppleWebKit/537.36 (KHTML, like Gecko) Chrome/118.0.0.0 Safari/537.36 Edg/118.0.2088.76","WebKit","Edge","118.0.2088.76","Windows","10.0","null","en-US,en;q=0.9","true","null","tones/440hz_short.mp3","null","","","tone_number_task","992.5","treinta y uno","tones/440hz_short.mp3","1142.5","60","2","7",""
"","","","","","html-keyboard-response","73","216552","0.0-71.0-0.0","75","1","2023-11-02 01:07:07","a725c3012b74bf33a1020a98cb69c237","181.44.118.207","Mozilla/5.0 (Windows NT 10.0; Win64; x64) AppleWebKit/537.36 (KHTML, like Gecko) Chrome/118.0.0.0 Safari/537.36 Edg/118.0.2088.76","WebKit","Edge","118.0.2088.76","Windows","10.0","null","en-US,en;q=0.9","true","null","tones/440hz_short.mp3","null","","","empty_block","","treinta y uno","","","","2","7",""
"","","","","","html-keyboard-response","74","217761","0.0-71.0-1.0","75","1","2023-11-02 01:07:07","a725c3012b74bf33a1020a98cb69c237","181.44.118.207","Mozilla/5.0 (Windows NT 10.0; Win64; x64) AppleWebKit/537.36 (KHTML, like Gecko) Chrome/118.0.0.0 Safari/537.36 Edg/118.0.2088.76","WebKit","Edge","118.0.2088.76","Windows","10.0","null","en-US,en;q=0.9","true","null","tones/440hz_short.mp3","null","","","empty_block","","treinta y uno","","","","2","7",""
"","","","","","html-keyboard-response","75","220470","0.0-73.0","75","1","2023-11-02 01:07:07","a725c3012b74bf33a1020a98cb69c237","181.44.118.207","Mozilla/5.0 (Windows NT 10.0; Win64; x64) AppleWebKit/537.36 (KHTML, like Gecko) Chrome/118.0.0.0 Safari/537.36 Edg/118.0.2088.76","WebKit","Edge","118.0.2088.76","Windows","10.0","null","en-US,en;q=0.9","true","null","<div style=""font-size:100px;"">X</div>","null","","","fixation","","","","","","","",""
"","","","","","audio-keyboard-response","76","220631","0.0-74.0","75","1","2023-11-02 01:07:07","a725c3012b74bf33a1020a98cb69c237","181.44.118.207","Mozilla/5.0 (Windows NT 10.0; Win64; x64) AppleWebKit/537.36 (KHTML, like Gecko) Chrome/118.0.0.0 Safari/537.36 Edg/118.0.2088.76","WebKit","Edge","118.0.2088.76","Windows","10.0","null","en-US,en;q=0.9","true","null","tones/440hz_short.mp3","null","","","tone_number_task","0","veintinueve","tones/440hz_short.mp3","150","60","2","8",""
"","","","","","html-keyboard-response","77","221756","0.0-77.0-0.0","75","1","2023-11-02 01:07:07","a725c3012b74bf33a1020a98cb69c237","181.44.118.207","Mozilla/5.0 (Windows NT 10.0; Win64; x64) AppleWebKit/537.36 (KHTML, like Gecko) Chrome/118.0.0.0 Safari/537.36 Edg/118.0.2088.76","WebKit","Edge","118.0.2088.76","Windows","10.0","null","en-US,en;q=0.9","true","1117","tones/440hz_short.mp3","a","","","empty_block","","veintinueve","","","","2","8",""
"","","","","","html-keyboard-response","78","222316","0.0-77.0-1.0","75","1","2023-11-02 01:07:07","a725c3012b74bf33a1020a98cb69c237","181.44.118.207","Mozilla/5.0 (Windows NT 10.0; Win64; x64) AppleWebKit/537.36 (KHTML, like Gecko) Chrome/118.0.0.0 Safari/537.36 Edg/118.0.2088.76","WebKit","Edge","118.0.2088.76","Windows","10.0","null","en-US,en;q=0.9","true","554","tones/440hz_short.mp3","j","","","empty_block","","veintinueve","","","","2","8",""
"","","","","","html-keyboard-response","79","225021","0.0-79.0","75","1","2023-11-02 01:07:07","a725c3012b74bf33a1020a98cb69c237","181.44.118.207","Mozilla/5.0 (Windows NT 10.0; Win64; x64) AppleWebKit/537.36 (KHTML, like Gecko) Chrome/118.0.0.0 Safari/537.36 Edg/118.0.2088.76","WebKit","Edge","118.0.2088.76","Windows","10.0","null","en-US,en;q=0.9","true","null","<div style=""font-size:100px;"">X</div>","null","","","fixation","","","","","","","",""
"","","","","","audio-keyboard-response","80","226209","0.0-80.0","75","1","2023-11-02 01:07:07","a725c3012b74bf33a1020a98cb69c237","181.44.118.207","Mozilla/5.0 (Windows NT 10.0; Win64; x64) AppleWebKit/537.36 (KHTML, like Gecko) Chrome/118.0.0.0 Safari/537.36 Edg/118.0.2088.76","WebKit","Edge","118.0.2088.76","Windows","10.0","null","en-US,en;q=0.9","true","null","tones/880hz_short.mp3","null","","","tone_number_task","1025","treinta y seis","tones/880hz_short.mp3","1175","60","2","9",""
"","","","","","html-keyboard-response","81","227117","0.0-83.0-0.0","75","1","2023-11-02 01:07:07","a725c3012b74bf33a1020a98cb69c237","181.44.118.207","Mozilla/5.0 (Windows NT 10.0; Win64; x64) AppleWebKit/537.36 (KHTML, like Gecko) Chrome/118.0.0.0 Safari/537.36 Edg/118.0.2088.76","WebKit","Edge","118.0.2088.76","Windows","10.0","null","en-US,en;q=0.9","true","901","tones/880hz_short.mp3","s","","","empty_block","","treinta y seis","","","","2","9",""
"","","","","","html-keyboard-response","82","227891","0.0-83.0-1.0","75","1","2023-11-02 01:07:07","a725c3012b74bf33a1020a98cb69c237","181.44.118.207","Mozilla/5.0 (Windows NT 10.0; Win64; x64) AppleWebKit/537.36 (KHTML, like Gecko) Chrome/118.0.0.0 Safari/537.36 Edg/118.0.2088.76","WebKit","Edge","118.0.2088.76","Windows","10.0","null","en-US,en;q=0.9","true","766","tones/880hz_short.mp3","j","","","empty_block","","treinta y seis","","","","2","9",""
"","","","","","html-keyboard-response","83","230601","0.0-85.0","75","1","2023-11-02 01:07:07","a725c3012b74bf33a1020a98cb69c237","181.44.118.207","Mozilla/5.0 (Windows NT 10.0; Win64; x64) AppleWebKit/537.36 (KHTML, like Gecko) Chrome/118.0.0.0 Safari/537.36 Edg/118.0.2088.76","WebKit","Edge","118.0.2088.76","Windows","10.0","null","en-US,en;q=0.9","true","null","<div style=""font-size:100px;"">X</div>","null","","","fixation","","","","","","","",""
"","","","","","audio-keyboard-response","84","231800","0.0-86.0","75","1","2023-11-02 01:07:07","a725c3012b74bf33a1020a98cb69c237","181.44.118.207","Mozilla/5.0 (Windows NT 10.0; Win64; x64) AppleWebKit/537.36 (KHTML, like Gecko) Chrome/118.0.0.0 Safari/537.36 Edg/118.0.2088.76","WebKit","Edge","118.0.2088.76","Windows","10.0","null","en-US,en;q=0.9","true","null","tones/440hz_short.mp3","null","","","tone_number_task","1025","sesenta y cinco","tones/440hz_short.mp3","1175","60","2","10",""
"","","","","","html-keyboard-response","85","232269","0.0-89.0-0.0","75","1","2023-11-02 01:07:07","a725c3012b74bf33a1020a98cb69c237","181.44.118.207","Mozilla/5.0 (Windows NT 10.0; Win64; x64) AppleWebKit/537.36 (KHTML, like Gecko) Chrome/118.0.0.0 Safari/537.36 Edg/118.0.2088.76","WebKit","Edge","118.0.2088.76","Windows","10.0","null","en-US,en;q=0.9","true","461","tones/440hz_short.mp3","a","","","empty_block","","sesenta y cinco","","","","2","10",""
"","","","","","html-keyboard-response","86","232566","0.0-89.0-1.0","75","1","2023-11-02 01:07:07","a725c3012b74bf33a1020a98cb69c237","181.44.118.207","Mozilla/5.0 (Windows NT 10.0; Win64; x64) AppleWebKit/537.36 (KHTML, like Gecko) Chrome/118.0.0.0 Safari/537.36 Edg/118.0.2088.76","WebKit","Edge","118.0.2088.76","Windows","10.0","null","en-US,en;q=0.9","true","290","tones/440hz_short.mp3","k","","","empty_block","","sesenta y cinco","","","","2","10",""
"","","","","","html-keyboard-response","87","235281","0.0-91.0","75","1","2023-11-02 01:07:07","a725c3012b74bf33a1020a98cb69c237","181.44.118.207","Mozilla/5.0 (Windows NT 10.0; Win64; x64) AppleWebKit/537.36 (KHTML, like Gecko) Chrome/118.0.0.0 Safari/537.36 Edg/118.0.2088.76","WebKit","Edge","118.0.2088.76","Windows","10.0","null","en-US,en;q=0.9","true","null","<div style=""font-size:100px;"">X</div>","null","","","fixation","","","","","","","",""
"","","","","","audio-keyboard-response","88","236467","0.0-92.0","75","1","2023-11-02 01:07:07","a725c3012b74bf33a1020a98cb69c237","181.44.118.207","Mozilla/5.0 (Windows NT 10.0; Win64; x64) AppleWebKit/537.36 (KHTML, like Gecko) Chrome/118.0.0.0 Safari/537.36 Edg/118.0.2088.76","WebKit","Edge","118.0.2088.76","Windows","10.0","null","en-US,en;q=0.9","true","null","tones/880hz_short.mp3","null","","","tone_number_task","1025","veintidós","tones/880hz_short.mp3","1175","60","2","11",""
"","","","","","html-keyboard-response","89","237563","0.0-95.0-0.0","75","1","2023-11-02 01:07:07","a725c3012b74bf33a1020a98cb69c237","181.44.118.207","Mozilla/5.0 (Windows NT 10.0; Win64; x64) AppleWebKit/537.36 (KHTML, like Gecko) Chrome/118.0.0.0 Safari/537.36 Edg/118.0.2088.76","WebKit","Edge","118.0.2088.76","Windows","10.0","null","en-US,en;q=0.9","true","1088","tones/880hz_short.mp3","s","","","empty_block","","veintidós","","","","2","11",""
"","","","","","html-keyboard-response","90","238055","0.0-95.0-1.0","75","1","2023-11-02 01:07:07","a725c3012b74bf33a1020a98cb69c237","181.44.118.207","Mozilla/5.0 (Windows NT 10.0; Win64; x64) AppleWebKit/537.36 (KHTML, like Gecko) Chrome/118.0.0.0 Safari/537.36 Edg/118.0.2088.76","WebKit","Edge","118.0.2088.76","Windows","10.0","null","en-US,en;q=0.9","true","486","tones/880hz_short.mp3","j","","","empty_block","","veintidós","","","","2","11",""
"","","","","","html-keyboard-response","91","240761","0.0-97.0","75","1","2023-11-02 01:07:07","a725c3012b74bf33a1020a98cb69c237","181.44.118.207","Mozilla/5.0 (Windows NT 10.0; Win64; x64) AppleWebKit/537.36 (KHTML, like Gecko) Chrome/118.0.0.0 Safari/537.36 Edg/118.0.2088.76","WebKit","Edge","118.0.2088.76","Windows","10.0","null","en-US,en;q=0.9","true","null","<div style=""font-size:100px;"">X</div>","null","","","fixation","","","","","","","",""
"","","","","","audio-keyboard-response","92","241030","0.0-98.0","75","1","2023-11-02 01:07:07","a725c3012b74bf33a1020a98cb69c237","181.44.118.207","Mozilla/5.0 (Windows NT 10.0; Win64; x64) AppleWebKit/537.36 (KHTML, like Gecko) Chrome/118.0.0.0 Safari/537.36 Edg/118.0.2088.76","WebKit","Edge","118.0.2088.76","Windows","10.0","null","en-US,en;q=0.9","true","null","tones/880hz_short.mp3","null","","","tone_number_task","102.5","sesenta y dos","tones/880hz_short.mp3","252.5","60","2","12",""
"","","","","","html-keyboard-response","93","242240","0.0-101.0-0.0","75","1","2023-11-02 01:07:07","a725c3012b74bf33a1020a98cb69c237","181.44.118.207","Mozilla/5.0 (Windows NT 10.0; Win64; x64) AppleWebKit/537.36 (KHTML, like Gecko) Chrome/118.0.0.0 Safari/537.36 Edg/118.0.2088.76","WebKit","Edge","118.0.2088.76","Windows","10.0","null","en-US,en;q=0.9","true","null","tones/880hz_short.mp3","null","","","empty_block","","sesenta y dos","","","","2","12",""
"","","","","","html-keyboard-response","94","242777","0.0-101.0-1.0","75","1","2023-11-02 01:07:07","a725c3012b74bf33a1020a98cb69c237","181.44.118.207","Mozilla/5.0 (Windows NT 10.0; Win64; x64) AppleWebKit/537.36 (KHTML, like Gecko) Chrome/118.0.0.0 Safari/537.36 Edg/118.0.2088.76","WebKit","Edge","118.0.2088.76","Windows","10.0","null","en-US,en;q=0.9","true","528","tones/880hz_short.mp3","s","","","empty_block","","sesenta y dos","","","","2","12",""
"","","","","","html-keyboard-response","95","245489","0.0-103.0","75","1","2023-11-02 01:07:07","a725c3012b74bf33a1020a98cb69c237","181.44.118.207","Mozilla/5.0 (Windows NT 10.0; Win64; x64) AppleWebKit/537.36 (KHTML, like Gecko) Chrome/118.0.0.0 Safari/537.36 Edg/118.0.2088.76","WebKit","Edge","118.0.2088.76","Windows","10.0","null","en-US,en;q=0.9","true","null","<div style=""font-size:100px;"">X</div>","null","","","fixation","","","","","","","",""
"","","","","","audio-keyboard-response","96","245751","0.0-104.0","75","1","2023-11-02 01:07:07","a725c3012b74bf33a1020a98cb69c237","181.44.118.207","Mozilla/5.0 (Windows NT 10.0; Win64; x64) AppleWebKit/537.36 (KHTML, like Gecko) Chrome/118.0.0.0 Safari/537.36 Edg/118.0.2088.76","WebKit","Edge","118.0.2088.76","Windows","10.0","null","en-US,en;q=0.9","true","null","tones/440hz_short.mp3","null","","","tone_number_task","102.5","sesenta y uno","tones/440hz_short.mp3","252.5","60","2","13",""
"","","","","","html-keyboard-response","97","246959","0.0-107.0-0.0","75","1","2023-11-02 01:07:07","a725c3012b74bf33a1020a98cb69c237","181.44.118.207","Mozilla/5.0 (Windows NT 10.0; Win64; x64) AppleWebKit/537.36 (KHTML, like Gecko) Chrome/118.0.0.0 Safari/537.36 Edg/118.0.2088.76","WebKit","Edge","118.0.2088.76","Windows","10.0","null","en-US,en;q=0.9","true","null","tones/440hz_short.mp3","null","","","empty_block","","sesenta y uno","","","","2","13",""
"","","","","","html-keyboard-response","98","247590","0.0-107.0-1.0","75","1","2023-11-02 01:07:07","a725c3012b74bf33a1020a98cb69c237","181.44.118.207","Mozilla/5.0 (Windows NT 10.0; Win64; x64) AppleWebKit/537.36 (KHTML, like Gecko) Chrome/118.0.0.0 Safari/537.36 Edg/118.0.2088.76","WebKit","Edge","118.0.2088.76","Windows","10.0","null","en-US,en;q=0.9","true","623","tones/440hz_short.mp3","a","","","empty_block","","sesenta y uno","","","","2","13",""
"","","","","","html-keyboard-response","99","250299","0.0-109.0","75","1","2023-11-02 01:07:07","a725c3012b74bf33a1020a98cb69c237","181.44.118.207","Mozilla/5.0 (Windows NT 10.0; Win64; x64) AppleWebKit/537.36 (KHTML, like Gecko) Chrome/118.0.0.0 Safari/537.36 Edg/118.0.2088.76","WebKit","Edge","118.0.2088.76","Windows","10.0","null","en-US,en;q=0.9","true","null","<div style=""font-size:100px;"">X</div>","null","","","fixation","","","","","","","",""
"","","","","","audio-keyboard-response","100","250561","0.0-110.0","75","1","2023-11-02 01:07:07","a725c3012b74bf33a1020a98cb69c237","181.44.118.207","Mozilla/5.0 (Windows NT 10.0; Win64; x64) AppleWebKit/537.36 (KHTML, like Gecko) Chrome/118.0.0.0 Safari/537.36 Edg/118.0.2088.76","WebKit","Edge","118.0.2088.76","Windows","10.0","null","en-US,en;q=0.9","true","null","tones/880hz_short.mp3","null","","","tone_number_task","102.5","treinta y ocho","tones/880hz_short.mp3","252.5","60","2","14",""
"","","","","","html-keyboard-response","101","251781","0.0-113.0-0.0","75","1","2023-11-02 01:07:07","a725c3012b74bf33a1020a98cb69c237","181.44.118.207","Mozilla/5.0 (Windows NT 10.0; Win64; x64) AppleWebKit/537.36 (KHTML, like Gecko) Chrome/118.0.0.0 Safari/537.36 Edg/118.0.2088.76","WebKit","Edge","118.0.2088.76","Windows","10.0","null","en-US,en;q=0.9","true","null","tones/880hz_short.mp3","null","","","empty_block","","treinta y ocho","","","","2","14",""
"","","","","","html-keyboard-response","102","251967","0.0-113.0-1.0","75","1","2023-11-02 01:07:07","a725c3012b74bf33a1020a98cb69c237","181.44.118.207","Mozilla/5.0 (Windows NT 10.0; Win64; x64) AppleWebKit/537.36 (KHTML, like Gecko) Chrome/118.0.0.0 Safari/537.36 Edg/118.0.2088.76","WebKit","Edge","118.0.2088.76","Windows","10.0","null","en-US,en;q=0.9","true","178","tones/880hz_short.mp3","s","","","empty_block","","treinta y ocho","","","","2","14",""
"","","","","","html-keyboard-response","103","254681","0.0-115.0","75","1","2023-11-02 01:07:07","a725c3012b74bf33a1020a98cb69c237","181.44.118.207","Mozilla/5.0 (Windows NT 10.0; Win64; x64) AppleWebKit/537.36 (KHTML, like Gecko) Chrome/118.0.0.0 Safari/537.36 Edg/118.0.2088.76","WebKit","Edge","118.0.2088.76","Windows","10.0","null","en-US,en;q=0.9","true","null","<div style=""font-size:100px;"">X</div>","null","","","fixation","","","","","","","",""
"","","","","","audio-keyboard-response","104","254850","0.0-116.0","75","1","2023-11-02 01:07:07","a725c3012b74bf33a1020a98cb69c237","181.44.118.207","Mozilla/5.0 (Windows NT 10.0; Win64; x64) AppleWebKit/537.36 (KHTML, like Gecko) Chrome/118.0.0.0 Safari/537.36 Edg/118.0.2088.76","WebKit","Edge","118.0.2088.76","Windows","10.0","null","en-US,en;q=0.9","true","null","tones/880hz_short.mp3","null","","","tone_number_task","0","cuarenta y tres","tones/880hz_short.mp3","150","60","2","15",""
"","","","","","html-keyboard-response","105","256062","0.0-119.0-0.0","75","1","2023-11-02 01:07:07","a725c3012b74bf33a1020a98cb69c237","181.44.118.207","Mozilla/5.0 (Windows NT 10.0; Win64; x64) AppleWebKit/537.36 (KHTML, like Gecko) Chrome/118.0.0.0 Safari/537.36 Edg/118.0.2088.76","WebKit","Edge","118.0.2088.76","Windows","10.0","null","en-US,en;q=0.9","true","null","tones/880hz_short.mp3","null","","","empty_block","","cuarenta y tres","","","","2","15",""
"","","","","","html-keyboard-response","106","256538","0.0-119.0-1.0","75","1","2023-11-02 01:07:07","a725c3012b74bf33a1020a98cb69c237","181.44.118.207","Mozilla/5.0 (Windows NT 10.0; Win64; x64) AppleWebKit/537.36 (KHTML, like Gecko) Chrome/118.0.0.0 Safari/537.36 Edg/118.0.2088.76","WebKit","Edge","118.0.2088.76","Windows","10.0","null","en-US,en;q=0.9","true","468","tones/880hz_short.mp3","s","","","empty_block","","cuarenta y tres","","","","2","15",""
"","","","","","html-keyboard-response","107","259251","0.0-121.0","75","1","2023-11-02 01:07:07","a725c3012b74bf33a1020a98cb69c237","181.44.118.207","Mozilla/5.0 (Windows NT 10.0; Win64; x64) AppleWebKit/537.36 (KHTML, like Gecko) Chrome/118.0.0.0 Safari/537.36 Edg/118.0.2088.76","WebKit","Edge","118.0.2088.76","Windows","10.0","null","en-US,en;q=0.9","true","null","<div style=""font-size:100px;"">X</div>","null","","","fixation","","","","","","","",""
"","","","","","audio-keyboard-response","108","260439","0.0-122.0","75","1","2023-11-02 01:07:07","a725c3012b74bf33a1020a98cb69c237","181.44.118.207","Mozilla/5.0 (Windows NT 10.0; Win64; x64) AppleWebKit/537.36 (KHTML, like Gecko) Chrome/118.0.0.0 Safari/537.36 Edg/118.0.2088.76","WebKit","Edge","118.0.2088.76","Windows","10.0","null","en-US,en;q=0.9","true","null","tones/880hz_short.mp3","null","","","tone_number_task","1025","cuarenta y ocho","tones/880hz_short.mp3","1175","60","2","16",""
"","","","","","html-keyboard-response","109","261087","0.0-125.0-0.0","75","1","2023-11-02 01:07:07","a725c3012b74bf33a1020a98cb69c237","181.44.118.207","Mozilla/5.0 (Windows NT 10.0; Win64; x64) AppleWebKit/537.36 (KHTML, like Gecko) Chrome/118.0.0.0 Safari/537.36 Edg/118.0.2088.76","WebKit","Edge","118.0.2088.76","Windows","10.0","null","en-US,en;q=0.9","true","639","tones/880hz_short.mp3","s","","","empty_block","","cuarenta y ocho","","","","2","16",""
"","","","","","html-keyboard-response","110","261311","0.0-125.0-1.0","75","1","2023-11-02 01:07:07","a725c3012b74bf33a1020a98cb69c237","181.44.118.207","Mozilla/5.0 (Windows NT 10.0; Win64; x64) AppleWebKit/537.36 (KHTML, like Gecko) Chrome/118.0.0.0 Safari/537.36 Edg/118.0.2088.76","WebKit","Edge","118.0.2088.76","Windows","10.0","null","en-US,en;q=0.9","true","214","tones/880hz_short.mp3","k","","","empty_block","","cuarenta y ocho","","","","2","16",""
"","","","","","html-keyboard-response","111","264017","0.0-127.0","75","1","2023-11-02 01:07:07","a725c3012b74bf33a1020a98cb69c237","181.44.118.207","Mozilla/5.0 (Windows NT 10.0; Win64; x64) AppleWebKit/537.36 (KHTML, like Gecko) Chrome/118.0.0.0 Safari/537.36 Edg/118.0.2088.76","WebKit","Edge","118.0.2088.76","Windows","10.0","null","en-US,en;q=0.9","true","null","<div style=""font-size:100px;"">X</div>","null","","","fixation","","","","","","","",""
"","","","","","audio-keyboard-response","112","264179","0.0-128.0","75","1","2023-11-02 01:07:07","a725c3012b74bf33a1020a98cb69c237","181.44.118.207","Mozilla/5.0 (Windows NT 10.0; Win64; x64) AppleWebKit/537.36 (KHTML, like Gecko) Chrome/118.0.0.0 Safari/537.36 Edg/118.0.2088.76","WebKit","Edge","118.0.2088.76","Windows","10.0","null","en-US,en;q=0.9","true","null","tones/440hz_short.mp3","null","","","tone_number_task","0","cuarenta y cuatro","tones/440hz_short.mp3","150","60","2","17",""
"","","","","","html-keyboard-response","113","264910","0.0-131.0-0.0","75","1","2023-11-02 01:07:07","a725c3012b74bf33a1020a98cb69c237","181.44.118.207","Mozilla/5.0 (Windows NT 10.0; Win64; x64) AppleWebKit/537.36 (KHTML, like Gecko) Chrome/118.0.0.0 Safari/537.36 Edg/118.0.2088.76","WebKit","Edge","118.0.2088.76","Windows","10.0","null","en-US,en;q=0.9","true","722","tones/440hz_short.mp3","a","","","empty_block","","cuarenta y cuatro","","","","2","17",""
"","","","","","html-keyboard-response","114","265329","0.0-131.0-1.0","75","1","2023-11-02 01:07:07","a725c3012b74bf33a1020a98cb69c237","181.44.118.207","Mozilla/5.0 (Windows NT 10.0; Win64; x64) AppleWebKit/537.36 (KHTML, like Gecko) Chrome/118.0.0.0 Safari/537.36 Edg/118.0.2088.76","WebKit","Edge","118.0.2088.76","Windows","10.0","null","en-US,en;q=0.9","true","410","tones/440hz_short.mp3","j","","","empty_block","","cuarenta y cuatro","","","","2","17",""
"","","","","","html-keyboard-response","115","268041","0.0-133.0","75","1","2023-11-02 01:07:07","a725c3012b74bf33a1020a98cb69c237","181.44.118.207","Mozilla/5.0 (Windows NT 10.0; Win64; x64) AppleWebKit/537.36 (KHTML, like Gecko) Chrome/118.0.0.0 Safari/537.36 Edg/118.0.2088.76","WebKit","Edge","118.0.2088.76","Windows","10.0","null","en-US,en;q=0.9","true","null","<div style=""font-size:100px;"">X</div>","null","","","fixation","","","","","","","",""
"","","","","","audio-keyboard-response","116","269201","0.0-134.0","75","1","2023-11-02 01:07:07","a725c3012b74bf33a1020a98cb69c237","181.44.118.207","Mozilla/5.0 (Windows NT 10.0; Win64; x64) AppleWebKit/537.36 (KHTML, like Gecko) Chrome/118.0.0.0 Safari/537.36 Edg/118.0.2088.76","WebKit","Edge","118.0.2088.76","Windows","10.0","null","en-US,en;q=0.9","true","null","tones/440hz_short.mp3","null","","","tone_number_task","992.5","cincuenta y nueve","tones/440hz_short.mp3","1142.5","60","2","18",""
"","","","","","html-keyboard-response","117","269649","0.0-137.0-0.0","75","1","2023-11-02 01:07:07","a725c3012b74bf33a1020a98cb69c237","181.44.118.207","Mozilla/5.0 (Windows NT 10.0; Win64; x64) AppleWebKit/537.36 (KHTML, like Gecko) Chrome/118.0.0.0 Safari/537.36 Edg/118.0.2088.76","WebKit","Edge","118.0.2088.76","Windows","10.0","null","en-US,en;q=0.9","true","438","tones/440hz_short.mp3","a","","","empty_block","","cincuenta y nueve","","","","2","18",""
"","","","","","html-keyboard-response","118","269987","0.0-137.0-1.0","75","1","2023-11-02 01:07:07","a725c3012b74bf33a1020a98cb69c237","181.44.118.207","Mozilla/5.0 (Windows NT 10.0; Win64; x64) AppleWebKit/537.36 (KHTML, like Gecko) Chrome/118.0.0.0 Safari/537.36 Edg/118.0.2088.76","WebKit","Edge","118.0.2088.76","Windows","10.0","null","en-US,en;q=0.9","true","329","tones/440hz_short.mp3","k","","","empty_block","","cincuenta y nueve","","","","2","18",""
"","","","","","html-keyboard-response","119","272701","0.0-139.0","75","1","2023-11-02 01:07:07","a725c3012b74bf33a1020a98cb69c237","181.44.118.207","Mozilla/5.0 (Windows NT 10.0; Win64; x64) AppleWebKit/537.36 (KHTML, like Gecko) Chrome/118.0.0.0 Safari/537.36 Edg/118.0.2088.76","WebKit","Edge","118.0.2088.76","Windows","10.0","null","en-US,en;q=0.9","true","null","<div style=""font-size:100px;"">X</div>","null","","","fixation","","","","","","","",""
"","","","","","audio-keyboard-response","120","273859","0.0-140.0","75","1","2023-11-02 01:07:07","a725c3012b74bf33a1020a98cb69c237","181.44.118.207","Mozilla/5.0 (Windows NT 10.0; Win64; x64) AppleWebKit/537.36 (KHTML, like Gecko) Chrome/118.0.0.0 Safari/537.36 Edg/118.0.2088.76","WebKit","Edge","118.0.2088.76","Windows","10.0","null","en-US,en;q=0.9","true","null","tones/440hz_short.mp3","null","","","tone_number_task","992.5","cincuenta y seis","tones/440hz_short.mp3","1142.5","60","2","19",""
"","","","","","html-keyboard-response","121","274194","0.0-143.0-0.0","75","1","2023-11-02 01:07:07","a725c3012b74bf33a1020a98cb69c237","181.44.118.207","Mozilla/5.0 (Windows NT 10.0; Win64; x64) AppleWebKit/537.36 (KHTML, like Gecko) Chrome/118.0.0.0 Safari/537.36 Edg/118.0.2088.76","WebKit","Edge","118.0.2088.76","Windows","10.0","null","en-US,en;q=0.9","true","327","tones/440hz_short.mp3","a","","","empty_block","","cincuenta y seis","","","","2","19",""
"","","","","","html-keyboard-response","122","274546","0.0-143.0-1.0","75","1","2023-11-02 01:07:07","a725c3012b74bf33a1020a98cb69c237","181.44.118.207","Mozilla/5.0 (Windows NT 10.0; Win64; x64) AppleWebKit/537.36 (KHTML, like Gecko) Chrome/118.0.0.0 Safari/537.36 Edg/118.0.2088.76","WebKit","Edge","118.0.2088.76","Windows","10.0","null","en-US,en;q=0.9","true","342","tones/440hz_short.mp3","k","","","empty_block","","cincuenta y seis","","","","2","19",""
"","","","","","html-keyboard-response","123","277255","0.0-145.0","75","1","2023-11-02 01:07:07","a725c3012b74bf33a1020a98cb69c237","181.44.118.207","Mozilla/5.0 (Windows NT 10.0; Win64; x64) AppleWebKit/537.36 (KHTML, like Gecko) Chrome/118.0.0.0 Safari/537.36 Edg/118.0.2088.76","WebKit","Edge","118.0.2088.76","Windows","10.0","null","en-US,en;q=0.9","true","null","<div style=""font-size:100px;"">X</div>","null","","","fixation","","","","","","","",""
"","","","","","audio-keyboard-response","124","277420","0.0-146.0","75","1","2023-11-02 01:07:07","a725c3012b74bf33a1020a98cb69c237","181.44.118.207","Mozilla/5.0 (Windows NT 10.0; Win64; x64) AppleWebKit/537.36 (KHTML, like Gecko) Chrome/118.0.0.0 Safari/537.36 Edg/118.0.2088.76","WebKit","Edge","118.0.2088.76","Windows","10.0","null","en-US,en;q=0.9","true","null","tones/440hz_short.mp3","null","","","tone_number_task","0","cuarenta y dos","tones/440hz_short.mp3","150","60","2","20",""
"","","","","","html-keyboard-response","125","278571","0.0-149.0-0.0","75","1","2023-11-02 01:07:07","a725c3012b74bf33a1020a98cb69c237","181.44.118.207","Mozilla/5.0 (Windows NT 10.0; Win64; x64) AppleWebKit/537.36 (KHTML, like Gecko) Chrome/118.0.0.0 Safari/537.36 Edg/118.0.2088.76","WebKit","Edge","118.0.2088.76","Windows","10.0","null","en-US,en;q=0.9","true","1142","tones/440hz_short.mp3","a","","","empty_block","","cuarenta y dos","","","","2","20",""
"","","","","","html-keyboard-response","126","279400","0.0-149.0-1.0","75","1","2023-11-02 01:07:07","a725c3012b74bf33a1020a98cb69c237","181.44.118.207","Mozilla/5.0 (Windows NT 10.0; Win64; x64) AppleWebKit/537.36 (KHTML, like Gecko) Chrome/118.0.0.0 Safari/537.36 Edg/118.0.2088.76","WebKit","Edge","118.0.2088.76","Windows","10.0","null","en-US,en;q=0.9","true","819","tones/440hz_short.mp3","j","","","empty_block","","cuarenta y dos","","","","2","20",""
"","","","","","html-keyboard-response","127","282107","0.0-151.0","75","1","2023-11-02 01:07:07","a725c3012b74bf33a1020a98cb69c237","181.44.118.207","Mozilla/5.0 (Windows NT 10.0; Win64; x64) AppleWebKit/537.36 (KHTML, like Gecko) Chrome/118.0.0.0 Safari/537.36 Edg/118.0.2088.76","WebKit","Edge","118.0.2088.76","Windows","10.0","null","en-US,en;q=0.9","true","null","<div style=""font-size:100px;"">X</div>","null","","","fixation","","","","","","","",""
"","","","","","audio-keyboard-response","128","282270","0.0-152.0","75","1","2023-11-02 01:07:07","a725c3012b74bf33a1020a98cb69c237","181.44.118.207","Mozilla/5.0 (Windows NT 10.0; Win64; x64) AppleWebKit/537.36 (KHTML, like Gecko) Chrome/118.0.0.0 Safari/537.36 Edg/118.0.2088.76","WebKit","Edge","118.0.2088.76","Windows","10.0","null","en-US,en;q=0.9","true","null","tones/880hz_short.mp3","null","","","tone_number_task","0","sesenta y uno","tones/880hz_short.mp3","150","60","2","21",""
"","","","","","html-keyboard-response","129","283491","0.0-155.0-0.0","75","1","2023-11-02 01:07:07","a725c3012b74bf33a1020a98cb69c237","181.44.118.207","Mozilla/5.0 (Windows NT 10.0; Win64; x64) AppleWebKit/537.36 (KHTML, like Gecko) Chrome/118.0.0.0 Safari/537.36 Edg/118.0.2088.76","WebKit","Edge","118.0.2088.76","Windows","10.0","null","en-US,en;q=0.9","true","1210","tones/880hz_short.mp3","s","","","empty_block","","sesenta y uno","","","","2","21",""
"","","","","","html-keyboard-response","130","283726","0.0-155.0-1.0","75","1","2023-11-02 01:07:07","a725c3012b74bf33a1020a98cb69c237","181.44.118.207","Mozilla/5.0 (Windows NT 10.0; Win64; x64) AppleWebKit/537.36 (KHTML, like Gecko) Chrome/118.0.0.0 Safari/537.36 Edg/118.0.2088.76","WebKit","Edge","118.0.2088.76","Windows","10.0","null","en-US,en;q=0.9","true","223","tones/880hz_short.mp3","k","","","empty_block","","sesenta y uno","","","","2","21",""
"","","","","","html-keyboard-response","131","286441","0.0-157.0","75","1","2023-11-02 01:07:07","a725c3012b74bf33a1020a98cb69c237","181.44.118.207","Mozilla/5.0 (Windows NT 10.0; Win64; x64) AppleWebKit/537.36 (KHTML, like Gecko) Chrome/118.0.0.0 Safari/537.36 Edg/118.0.2088.76","WebKit","Edge","118.0.2088.76","Windows","10.0","null","en-US,en;q=0.9","true","null","<div style=""font-size:100px;"">X</div>","null","","","fixation","","","","","","","",""
"","","","","","audio-keyboard-response","132","286609","0.0-158.0","75","1","2023-11-02 01:07:07","a725c3012b74bf33a1020a98cb69c237","181.44.118.207","Mozilla/5.0 (Windows NT 10.0; Win64; x64) AppleWebKit/537.36 (KHTML, like Gecko) Chrome/118.0.0.0 Safari/537.36 Edg/118.0.2088.76","WebKit","Edge","118.0.2088.76","Windows","10.0","null","en-US,en;q=0.9","true","null","tones/880hz_short.mp3","null","","","tone_number_task","0","cuarenta y uno","tones/880hz_short.mp3","150","60","2","22",""
"","","","","","html-keyboard-response","133","287820","0.0-161.0-0.0","75","1","2023-11-02 01:07:07","a725c3012b74bf33a1020a98cb69c237","181.44.118.207","Mozilla/5.0 (Windows NT 10.0; Win64; x64) AppleWebKit/537.36 (KHTML, like Gecko) Chrome/118.0.0.0 Safari/537.36 Edg/118.0.2088.76","WebKit","Edge","118.0.2088.76","Windows","10.0","null","en-US,en;q=0.9","true","null","tones/880hz_short.mp3","null","","","empty_block","","cuarenta y uno","","","","2","22",""
"","","","","","html-keyboard-response","134","288769","0.0-161.0-1.0","75","1","2023-11-02 01:07:07","a725c3012b74bf33a1020a98cb69c237","181.44.118.207","Mozilla/5.0 (Windows NT 10.0; Win64; x64) AppleWebKit/537.36 (KHTML, like Gecko) Chrome/118.0.0.0 Safari/537.36 Edg/118.0.2088.76","WebKit","Edge","118.0.2088.76","Windows","10.0","null","en-US,en;q=0.9","true","940","tones/880hz_short.mp3","s","","","empty_block","","cuarenta y uno","","","","2","22",""
"","","","","","html-keyboard-response","135","291481","0.0-163.0","75","1","2023-11-02 01:07:07","a725c3012b74bf33a1020a98cb69c237","181.44.118.207","Mozilla/5.0 (Windows NT 10.0; Win64; x64) AppleWebKit/537.36 (KHTML, like Gecko) Chrome/118.0.0.0 Safari/537.36 Edg/118.0.2088.76","WebKit","Edge","118.0.2088.76","Windows","10.0","null","en-US,en;q=0.9","true","null","<div style=""font-size:100px;"">X</div>","null","","","fixation","","","","","","","",""
"","","","","","audio-keyboard-response","136","291651","0.0-164.0","75","1","2023-11-02 01:07:07","a725c3012b74bf33a1020a98cb69c237","181.44.118.207","Mozilla/5.0 (Windows NT 10.0; Win64; x64) AppleWebKit/537.36 (KHTML, like Gecko) Chrome/118.0.0.0 Safari/537.36 Edg/118.0.2088.76","WebKit","Edge","118.0.2088.76","Windows","10.0","null","en-US,en;q=0.9","true","null","tones/880hz_short.mp3","null","","","tone_number_task","0","veintisiete","tones/880hz_short.mp3","150","60","2","23",""
"","","","","","html-keyboard-response","137","292867","0.0-167.0-0.0","75","1","2023-11-02 01:07:07","a725c3012b74bf33a1020a98cb69c237","181.44.118.207","Mozilla/5.0 (Windows NT 10.0; Win64; x64) AppleWebKit/537.36 (KHTML, like Gecko) Chrome/118.0.0.0 Safari/537.36 Edg/118.0.2088.76","WebKit","Edge","118.0.2088.76","Windows","10.0","null","en-US,en;q=0.9","true","null","tones/880hz_short.mp3","null","","","empty_block","","veintisiete","","","","2","23",""
"","","","","","html-keyboard-response","138","293189","0.0-167.0-1.0","75","1","2023-11-02 01:07:07","a725c3012b74bf33a1020a98cb69c237","181.44.118.207","Mozilla/5.0 (Windows NT 10.0; Win64; x64) AppleWebKit/537.36 (KHTML, like Gecko) Chrome/118.0.0.0 Safari/537.36 Edg/118.0.2088.76","WebKit","Edge","118.0.2088.76","Windows","10.0","null","en-US,en;q=0.9","true","312","tones/880hz_short.mp3","s","","","empty_block","","veintisiete","","","","2","23",""
"","","","","","html-keyboard-response","139","295900","0.0-169.0","75","1","2023-11-02 01:07:07","a725c3012b74bf33a1020a98cb69c237","181.44.118.207","Mozilla/5.0 (Windows NT 10.0; Win64; x64) AppleWebKit/537.36 (KHTML, like Gecko) Chrome/118.0.0.0 Safari/537.36 Edg/118.0.2088.76","WebKit","Edge","118.0.2088.76","Windows","10.0","null","en-US,en;q=0.9","true","null","<div style=""font-size:100px;"">X</div>","null","","","fixation","","","","","","","",""
"","","","","","audio-keyboard-response","140","296062","0.0-170.0","75","1","2023-11-02 01:07:07","a725c3012b74bf33a1020a98cb69c237","181.44.118.207","Mozilla/5.0 (Windows NT 10.0; Win64; x64) AppleWebKit/537.36 (KHTML, like Gecko) Chrome/118.0.0.0 Safari/537.36 Edg/118.0.2088.76","WebKit","Edge","118.0.2088.76","Windows","10.0","null","en-US,en;q=0.9","true","null","tones/440hz_short.mp3","null","","","tone_number_task","0","treinta y cinco","tones/440hz_short.mp3","150","60","2","24",""
"","","","","","html-keyboard-response","141","297275","0.0-173.0-0.0","75","1","2023-11-02 01:07:07","a725c3012b74bf33a1020a98cb69c237","181.44.118.207","Mozilla/5.0 (Windows NT 10.0; Win64; x64) AppleWebKit/537.36 (KHTML, like Gecko) Chrome/118.0.0.0 Safari/537.36 Edg/118.0.2088.76","WebKit","Edge","118.0.2088.76","Windows","10.0","null","en-US,en;q=0.9","true","null","tones/440hz_short.mp3","null","","","empty_block","","treinta y cinco","","","","2","24",""
"","","","","","html-keyboard-response","142","297353","0.0-173.0-1.0","75","1","2023-11-02 01:07:07","a725c3012b74bf33a1020a98cb69c237","181.44.118.207","Mozilla/5.0 (Windows NT 10.0; Win64; x64) AppleWebKit/537.36 (KHTML, like Gecko) Chrome/118.0.0.0 Safari/537.36 Edg/118.0.2088.76","WebKit","Edge","118.0.2088.76","Windows","10.0","null","en-US,en;q=0.9","true","68","tones/440hz_short.mp3","a","","","empty_block","","treinta y cinco","","","","2","24",""
"","","","","","html-keyboard-response","143","300070","0.0-175.0","75","1","2023-11-02 01:07:07","a725c3012b74bf33a1020a98cb69c237","181.44.118.207","Mozilla/5.0 (Windows NT 10.0; Win64; x64) AppleWebKit/537.36 (KHTML, like Gecko) Chrome/118.0.0.0 Safari/537.36 Edg/118.0.2088.76","WebKit","Edge","118.0.2088.76","Windows","10.0","null","en-US,en;q=0.9","true","null","<div style=""font-size:100px;"">X</div>","null","","","fixation","","","","","","","",""
"","","","","","audio-keyboard-response","144","300341","0.0-176.0","75","1","2023-11-02 01:07:07","a725c3012b74bf33a1020a98cb69c237","181.44.118.207","Mozilla/5.0 (Windows NT 10.0; Win64; x64) AppleWebKit/537.36 (KHTML, like Gecko) Chrome/118.0.0.0 Safari/537.36 Edg/118.0.2088.76","WebKit","Edge","118.0.2088.76","Windows","10.0","null","en-US,en;q=0.9","true","null","tones/880hz_short.mp3","null","","","tone_number_task","102.5","sesenta y nueve","tones/880hz_short.mp3","252.5","60","2","25",""
"","","","","","html-keyboard-response","145","301560","0.0-179.0-0.0","75","1","2023-11-02 01:07:07","a725c3012b74bf33a1020a98cb69c237","181.44.118.207","Mozilla/5.0 (Windows NT 10.0; Win64; x64) AppleWebKit/537.36 (KHTML, like Gecko) Chrome/118.0.0.0 Safari/537.36 Edg/118.0.2088.76","WebKit","Edge","118.0.2088.76","Windows","10.0","null","en-US,en;q=0.9","true","null","tones/880hz_short.mp3","null","","","empty_block","","sesenta y nueve","","","","2","25",""
"","","","","","html-keyboard-response","146","301612","0.0-179.0-1.0","75","1","2023-11-02 01:07:07","a725c3012b74bf33a1020a98cb69c237","181.44.118.207","Mozilla/5.0 (Windows NT 10.0; Win64; x64) AppleWebKit/537.36 (KHTML, like Gecko) Chrome/118.0.0.0 Safari/537.36 Edg/118.0.2088.76","WebKit","Edge","118.0.2088.76","Windows","10.0","null","en-US,en;q=0.9","true","41","tones/880hz_short.mp3","s","","","empty_block","","sesenta y nueve","","","","2","25",""
"","","","","","html-keyboard-response","147","304320","0.0-181.0","75","1","2023-11-02 01:07:07","a725c3012b74bf33a1020a98cb69c237","181.44.118.207","Mozilla/5.0 (Windows NT 10.0; Win64; x64) AppleWebKit/537.36 (KHTML, like Gecko) Chrome/118.0.0.0 Safari/537.36 Edg/118.0.2088.76","WebKit","Edge","118.0.2088.76","Windows","10.0","null","en-US,en;q=0.9","true","null","<div style=""font-size:100px;"">X</div>","null","","","fixation","","","","","","","",""
"","","","","","audio-keyboard-response","148","304486","0.0-182.0","75","1","2023-11-02 01:07:07","a725c3012b74bf33a1020a98cb69c237","181.44.118.207","Mozilla/5.0 (Windows NT 10.0; Win64; x64) AppleWebKit/537.36 (KHTML, like Gecko) Chrome/118.0.0.0 Safari/537.36 Edg/118.0.2088.76","WebKit","Edge","118.0.2088.76","Windows","10.0","null","en-US,en;q=0.9","true","null","tones/440hz_short.mp3","null","","","tone_number_task","0","cincuenta y dos","tones/440hz_short.mp3","150","60","2","26",""
"","","","","","html-keyboard-response","149","305704","0.0-185.0-0.0","75","1","2023-11-02 01:07:07","a725c3012b74bf33a1020a98cb69c237","181.44.118.207","Mozilla/5.0 (Windows NT 10.0; Win64; x64) AppleWebKit/537.36 (KHTML, like Gecko) Chrome/118.0.0.0 Safari/537.36 Edg/118.0.2088.76","WebKit","Edge","118.0.2088.76","Windows","10.0","null","en-US,en;q=0.9","true","null","tones/440hz_short.mp3","null","","","empty_block","","cincuenta y dos","","","","2","26",""
"","","","","","html-keyboard-response","150","305955","0.0-185.0-1.0","75","1","2023-11-02 01:07:07","a725c3012b74bf33a1020a98cb69c237","181.44.118.207","Mozilla/5.0 (Windows NT 10.0; Win64; x64) AppleWebKit/537.36 (KHTML, like Gecko) Chrome/118.0.0.0 Safari/537.36 Edg/118.0.2088.76","WebKit","Edge","118.0.2088.76","Windows","10.0","null","en-US,en;q=0.9","true","239","tones/440hz_short.mp3","a","","","empty_block","","cincuenta y dos","","","","2","26",""
"","","","","","html-keyboard-response","151","308670","0.0-187.0","75","1","2023-11-02 01:07:07","a725c3012b74bf33a1020a98cb69c237","181.44.118.207","Mozilla/5.0 (Windows NT 10.0; Win64; x64) AppleWebKit/537.36 (KHTML, like Gecko) Chrome/118.0.0.0 Safari/537.36 Edg/118.0.2088.76","WebKit","Edge","118.0.2088.76","Windows","10.0","null","en-US,en;q=0.9","true","null","<div style=""font-size:100px;"">X</div>","null","","","fixation","","","","","","","",""
"","","","","","audio-keyboard-response","152","308850","0.0-188.0","75","1","2023-11-02 01:07:07","a725c3012b74bf33a1020a98cb69c237","181.44.118.207","Mozilla/5.0 (Windows NT 10.0; Win64; x64) AppleWebKit/537.36 (KHTML, like Gecko) Chrome/118.0.0.0 Safari/537.36 Edg/118.0.2088.76","WebKit","Edge","118.0.2088.76","Windows","10.0","null","en-US,en;q=0.9","true","null","tones/440hz_short.mp3","null","","","tone_number_task","0","veintitres","tones/440hz_short.mp3","150","60","2","27",""
"","","","","","html-keyboard-response","153","309935","0.0-191.0-0.0","75","1","2023-11-02 01:07:07","a725c3012b74bf33a1020a98cb69c237","181.44.118.207","Mozilla/5.0 (Windows NT 10.0; Win64; x64) AppleWebKit/537.36 (KHTML, like Gecko) Chrome/118.0.0.0 Safari/537.36 Edg/118.0.2088.76","WebKit","Edge","118.0.2088.76","Windows","10.0","null","en-US,en;q=0.9","true","1075","tones/440hz_short.mp3","a","","","empty_block","","veintitres","","","","2","27",""
"","","","","","html-keyboard-response","154","310221","0.0-191.0-1.0","75","1","2023-11-02 01:07:07","a725c3012b74bf33a1020a98cb69c237","181.44.118.207","Mozilla/5.0 (Windows NT 10.0; Win64; x64) AppleWebKit/537.36 (KHTML, like Gecko) Chrome/118.0.0.0 Safari/537.36 Edg/118.0.2088.76","WebKit","Edge","118.0.2088.76","Windows","10.0","null","en-US,en;q=0.9","true","275","tones/440hz_short.mp3","j","","","empty_block","","veintitres","","","","2","27",""
"","","","","","html-keyboard-response","155","312931","0.0-193.0","75","1","2023-11-02 01:07:07","a725c3012b74bf33a1020a98cb69c237","181.44.118.207","Mozilla/5.0 (Windows NT 10.0; Win64; x64) AppleWebKit/537.36 (KHTML, like Gecko) Chrome/118.0.0.0 Safari/537.36 Edg/118.0.2088.76","WebKit","Edge","118.0.2088.76","Windows","10.0","null","en-US,en;q=0.9","true","null","<div style=""font-size:100px;"">X</div>","null","","","fixation","","","","","","","",""
"","","","","","audio-keyboard-response","156","314122","0.0-194.0","75","1","2023-11-02 01:07:07","a725c3012b74bf33a1020a98cb69c237","181.44.118.207","Mozilla/5.0 (Windows NT 10.0; Win64; x64) AppleWebKit/537.36 (KHTML, like Gecko) Chrome/118.0.0.0 Safari/537.36 Edg/118.0.2088.76","WebKit","Edge","118.0.2088.76","Windows","10.0","null","en-US,en;q=0.9","true","null","tones/880hz_short.mp3","null","","","tone_number_task","1025","treinta y tres","tones/880hz_short.mp3","1175","60","2","28",""
"","","","","","html-keyboard-response","157","314788","0.0-197.0-0.0","75","1","2023-11-02 01:07:07","a725c3012b74bf33a1020a98cb69c237","181.44.118.207","Mozilla/5.0 (Windows NT 10.0; Win64; x64) AppleWebKit/537.36 (KHTML, like Gecko) Chrome/118.0.0.0 Safari/537.36 Edg/118.0.2088.76","WebKit","Edge","118.0.2088.76","Windows","10.0","null","en-US,en;q=0.9","true","655","tones/880hz_short.mp3","s","","","empty_block","","treinta y tres","","","","2","28",""
"","","","","","html-keyboard-response","158","315129","0.0-197.0-1.0","75","1","2023-11-02 01:07:07","a725c3012b74bf33a1020a98cb69c237","181.44.118.207","Mozilla/5.0 (Windows NT 10.0; Win64; x64) AppleWebKit/537.36 (KHTML, like Gecko) Chrome/118.0.0.0 Safari/537.36 Edg/118.0.2088.76","WebKit","Edge","118.0.2088.76","Windows","10.0","null","en-US,en;q=0.9","true","329","tones/880hz_short.mp3","j","","","empty_block","","treinta y tres","","","","2","28",""
"","","","","","html-keyboard-response","159","317851","0.0-199.0","75","1","2023-11-02 01:07:07","a725c3012b74bf33a1020a98cb69c237","181.44.118.207","Mozilla/5.0 (Windows NT 10.0; Win64; x64) AppleWebKit/537.36 (KHTML, like Gecko) Chrome/118.0.0.0 Safari/537.36 Edg/118.0.2088.76","WebKit","Edge","118.0.2088.76","Windows","10.0","null","en-US,en;q=0.9","true","null","<div style=""font-size:100px;"">X</div>","null","","","fixation","","","","","","","",""
"","","","","","audio-keyboard-response","160","319009","0.0-200.0","75","1","2023-11-02 01:07:07","a725c3012b74bf33a1020a98cb69c237","181.44.118.207","Mozilla/5.0 (Windows NT 10.0; Win64; x64) AppleWebKit/537.36 (KHTML, like Gecko) Chrome/118.0.0.0 Safari/537.36 Edg/118.0.2088.76","WebKit","Edge","118.0.2088.76","Windows","10.0","null","en-US,en;q=0.9","true","null","tones/440hz_short.mp3","null","","","tone_number_task","992.5","sesenta y ocho","tones/440hz_short.mp3","1142.5","60","2","29",""
"","","","","","html-keyboard-response","161","319560","0.0-203.0-0.0","75","1","2023-11-02 01:07:07","a725c3012b74bf33a1020a98cb69c237","181.44.118.207","Mozilla/5.0 (Windows NT 10.0; Win64; x64) AppleWebKit/537.36 (KHTML, like Gecko) Chrome/118.0.0.0 Safari/537.36 Edg/118.0.2088.76","WebKit","Edge","118.0.2088.76","Windows","10.0","null","en-US,en;q=0.9","true","538","tones/440hz_short.mp3","a","","","empty_block","","sesenta y ocho","","","","2","29",""
"","","","","","html-keyboard-response","162","319773","0.0-203.0-1.0","75","1","2023-11-02 01:07:07","a725c3012b74bf33a1020a98cb69c237","181.44.118.207","Mozilla/5.0 (Windows NT 10.0; Win64; x64) AppleWebKit/537.36 (KHTML, like Gecko) Chrome/118.0.0.0 Safari/537.36 Edg/118.0.2088.76","WebKit","Edge","118.0.2088.76","Windows","10.0","null","en-US,en;q=0.9","true","202","tones/440hz_short.mp3","k","","","empty_block","","sesenta y ocho","","","","2","29",""
"","","","","","html-keyboard-response","163","322481","0.0-205.0","75","1","2023-11-02 01:07:07","a725c3012b74bf33a1020a98cb69c237","181.44.118.207","Mozilla/5.0 (Windows NT 10.0; Win64; x64) AppleWebKit/537.36 (KHTML, like Gecko) Chrome/118.0.0.0 Safari/537.36 Edg/118.0.2088.76","WebKit","Edge","118.0.2088.76","Windows","10.0","null","en-US,en;q=0.9","true","null","<div style=""font-size:100px;"">X</div>","null","","","fixation","","","","","","","",""
"","","","","","audio-keyboard-response","164","323672","0.0-206.0","75","1","2023-11-02 01:07:07","a725c3012b74bf33a1020a98cb69c237","181.44.118.207","Mozilla/5.0 (Windows NT 10.0; Win64; x64) AppleWebKit/537.36 (KHTML, like Gecko) Chrome/118.0.0.0 Safari/537.36 Edg/118.0.2088.76","WebKit","Edge","118.0.2088.76","Windows","10.0","null","en-US,en;q=0.9","true","null","tones/440hz_short.mp3","null","","","tone_number_task","1025","veintiocho","tones/440hz_short.mp3","1175","60","2","30",""
"","","","","","html-keyboard-response","165","323995","0.0-209.0-0.0","75","1","2023-11-02 01:07:07","a725c3012b74bf33a1020a98cb69c237","181.44.118.207","Mozilla/5.0 (Windows NT 10.0; Win64; x64) AppleWebKit/537.36 (KHTML, like Gecko) Chrome/118.0.0.0 Safari/537.36 Edg/118.0.2088.76","WebKit","Edge","118.0.2088.76","Windows","10.0","null","en-US,en;q=0.9","true","310","tones/440hz_short.mp3","a","","","empty_block","","veintiocho","","","","2","30",""
"","","","","","html-keyboard-response","166","324269","0.0-209.0-1.0","75","1","2023-11-02 01:07:07","a725c3012b74bf33a1020a98cb69c237","181.44.118.207","Mozilla/5.0 (Windows NT 10.0; Win64; x64) AppleWebKit/537.36 (KHTML, like Gecko) Chrome/118.0.0.0 Safari/537.36 Edg/118.0.2088.76","WebKit","Edge","118.0.2088.76","Windows","10.0","null","en-US,en;q=0.9","true","263","tones/440hz_short.mp3","j","","","empty_block","","veintiocho","","","","2","30",""
"","","","","","html-keyboard-response","167","326981","0.0-211.0","75","1","2023-11-02 01:07:07","a725c3012b74bf33a1020a98cb69c237","181.44.118.207","Mozilla/5.0 (Windows NT 10.0; Win64; x64) AppleWebKit/537.36 (KHTML, like Gecko) Chrome/118.0.0.0 Safari/537.36 Edg/118.0.2088.76","WebKit","Edge","118.0.2088.76","Windows","10.0","null","en-US,en;q=0.9","true","null","<div style=""font-size:100px;"">X</div>","null","","","fixation","","","","","","","",""
"","","","","","audio-keyboard-response","168","328171","0.0-212.0","75","1","2023-11-02 01:07:07","a725c3012b74bf33a1020a98cb69c237","181.44.118.207","Mozilla/5.0 (Windows NT 10.0; Win64; x64) AppleWebKit/537.36 (KHTML, like Gecko) Chrome/118.0.0.0 Safari/537.36 Edg/118.0.2088.76","WebKit","Edge","118.0.2088.76","Windows","10.0","null","en-US,en;q=0.9","true","null","tones/440hz_short.mp3","null","","","tone_number_task","1025","cuarenta y nueve","tones/440hz_short.mp3","1175","60","2","31",""
"","","","","","html-keyboard-response","169","328264","0.0-215.0-0.0","75","1","2023-11-02 01:07:07","a725c3012b74bf33a1020a98cb69c237","181.44.118.207","Mozilla/5.0 (Windows NT 10.0; Win64; x64) AppleWebKit/537.36 (KHTML, like Gecko) Chrome/118.0.0.0 Safari/537.36 Edg/118.0.2088.76","WebKit","Edge","118.0.2088.76","Windows","10.0","null","en-US,en;q=0.9","true","81","tones/440hz_short.mp3","a","","","empty_block","","cuarenta y nueve","","","","2","31",""
"","","","","","html-keyboard-response","170","329472","0.0-215.0-1.0","75","1","2023-11-02 01:07:07","a725c3012b74bf33a1020a98cb69c237","181.44.118.207","Mozilla/5.0 (Windows NT 10.0; Win64; x64) AppleWebKit/537.36 (KHTML, like Gecko) Chrome/118.0.0.0 Safari/537.36 Edg/118.0.2088.76","WebKit","Edge","118.0.2088.76","Windows","10.0","null","en-US,en;q=0.9","true","null","tones/440hz_short.mp3","null","","","empty_block","","cuarenta y nueve","","","","2","31",""
"","","","","","html-keyboard-response","171","332182","0.0-217.0","75","1","2023-11-02 01:07:07","a725c3012b74bf33a1020a98cb69c237","181.44.118.207","Mozilla/5.0 (Windows NT 10.0; Win64; x64) AppleWebKit/537.36 (KHTML, like Gecko) Chrome/118.0.0.0 Safari/537.36 Edg/118.0.2088.76","WebKit","Edge","118.0.2088.76","Windows","10.0","null","en-US,en;q=0.9","true","null","<div style=""font-size:100px;"">X</div>","null","","","fixation","","","","","","","",""
"","","","","","audio-keyboard-response","172","333381","0.0-218.0","75","1","2023-11-02 01:07:07","a725c3012b74bf33a1020a98cb69c237","181.44.118.207","Mozilla/5.0 (Windows NT 10.0; Win64; x64) AppleWebKit/537.36 (KHTML, like Gecko) Chrome/118.0.0.0 Safari/537.36 Edg/118.0.2088.76","WebKit","Edge","118.0.2088.76","Windows","10.0","null","en-US,en;q=0.9","true","null","tones/880hz_short.mp3","null","","","tone_number_task","1025","treinta y tres","tones/880hz_short.mp3","1175","60","2","32",""
"","","","","","html-keyboard-response","173","333778","0.0-221.0-0.0","75","1","2023-11-02 01:07:07","a725c3012b74bf33a1020a98cb69c237","181.44.118.207","Mozilla/5.0 (Windows NT 10.0; Win64; x64) AppleWebKit/537.36 (KHTML, like Gecko) Chrome/118.0.0.0 Safari/537.36 Edg/118.0.2088.76","WebKit","Edge","118.0.2088.76","Windows","10.0","null","en-US,en;q=0.9","true","385","tones/880hz_short.mp3","s","","","empty_block","","treinta y tres","","","","2","32",""
"","","","","","html-keyboard-response","174","333989","0.0-221.0-1.0","75","1","2023-11-02 01:07:07","a725c3012b74bf33a1020a98cb69c237","181.44.118.207","Mozilla/5.0 (Windows NT 10.0; Win64; x64) AppleWebKit/537.36 (KHTML, like Gecko) Chrome/118.0.0.0 Safari/537.36 Edg/118.0.2088.76","WebKit","Edge","118.0.2088.76","Windows","10.0","null","en-US,en;q=0.9","true","198","tones/880hz_short.mp3","j","","","empty_block","","treinta y tres","","","","2","32",""
"","","","","","html-keyboard-response","175","336701","0.0-223.0","75","1","2023-11-02 01:07:07","a725c3012b74bf33a1020a98cb69c237","181.44.118.207","Mozilla/5.0 (Windows NT 10.0; Win64; x64) AppleWebKit/537.36 (KHTML, like Gecko) Chrome/118.0.0.0 Safari/537.36 Edg/118.0.2088.76","WebKit","Edge","118.0.2088.76","Windows","10.0","null","en-US,en;q=0.9","true","null","<div style=""font-size:100px;"">X</div>","null","","","fixation","","","","","","","",""
"","","","","","audio-keyboard-response","176","336970","0.0-224.0","75","1","2023-11-02 01:07:07","a725c3012b74bf33a1020a98cb69c237","181.44.118.207","Mozilla/5.0 (Windows NT 10.0; Win64; x64) AppleWebKit/537.36 (KHTML, like Gecko) Chrome/118.0.0.0 Safari/537.36 Edg/118.0.2088.76","WebKit","Edge","118.0.2088.76","Windows","10.0","null","en-US,en;q=0.9","true","null","tones/440hz_short.mp3","null","","","tone_number_task","102.5","treinta y seis","tones/440hz_short.mp3","252.5","60","2","33",""
"","","","","","html-keyboard-response","177","337527","0.0-227.0-0.0","75","1","2023-11-02 01:07:07","a725c3012b74bf33a1020a98cb69c237","181.44.118.207","Mozilla/5.0 (Windows NT 10.0; Win64; x64) AppleWebKit/537.36 (KHTML, like Gecko) Chrome/118.0.0.0 Safari/537.36 Edg/118.0.2088.76","WebKit","Edge","118.0.2088.76","Windows","10.0","null","en-US,en;q=0.9","true","544","tones/440hz_short.mp3","a","","","empty_block","","treinta y seis","","","","2","33",""
"","","","","","html-keyboard-response","178","337925","0.0-227.0-1.0","75","1","2023-11-02 01:07:07","a725c3012b74bf33a1020a98cb69c237","181.44.118.207","Mozilla/5.0 (Windows NT 10.0; Win64; x64) AppleWebKit/537.36 (KHTML, like Gecko) Chrome/118.0.0.0 Safari/537.36 Edg/118.0.2088.76","WebKit","Edge","118.0.2088.76","Windows","10.0","null","en-US,en;q=0.9","true","386","tones/440hz_short.mp3","k","","","empty_block","","treinta y seis","","","","2","33",""
"","","","","","html-keyboard-response","179","340640","0.0-229.0","75","1","2023-11-02 01:07:07","a725c3012b74bf33a1020a98cb69c237","181.44.118.207","Mozilla/5.0 (Windows NT 10.0; Win64; x64) AppleWebKit/537.36 (KHTML, like Gecko) Chrome/118.0.0.0 Safari/537.36 Edg/118.0.2088.76","WebKit","Edge","118.0.2088.76","Windows","10.0","null","en-US,en;q=0.9","true","null","<div style=""font-size:100px;"">X</div>","null","","","fixation","","","","","","","",""
"","","","","","audio-keyboard-response","180","340911","0.0-230.0","75","1","2023-11-02 01:07:07","a725c3012b74bf33a1020a98cb69c237","181.44.118.207","Mozilla/5.0 (Windows NT 10.0; Win64; x64) AppleWebKit/537.36 (KHTML, like Gecko) Chrome/118.0.0.0 Safari/537.36 Edg/118.0.2088.76","WebKit","Edge","118.0.2088.76","Windows","10.0","null","en-US,en;q=0.9","true","null","tones/440hz_short.mp3","null","","","tone_number_task","102.5","veintisiete","tones/440hz_short.mp3","252.5","60","2","34",""
"","","","","","html-keyboard-response","181","342128","0.0-233.0-0.0","75","1","2023-11-02 01:07:07","a725c3012b74bf33a1020a98cb69c237","181.44.118.207","Mozilla/5.0 (Windows NT 10.0; Win64; x64) AppleWebKit/537.36 (KHTML, like Gecko) Chrome/118.0.0.0 Safari/537.36 Edg/118.0.2088.76","WebKit","Edge","118.0.2088.76","Windows","10.0","null","en-US,en;q=0.9","true","null","tones/440hz_short.mp3","null","","","empty_block","","veintisiete","","","","2","34",""
"","","","","","html-keyboard-response","182","342271","0.0-233.0-1.0","75","1","2023-11-02 01:07:07","a725c3012b74bf33a1020a98cb69c237","181.44.118.207","Mozilla/5.0 (Windows NT 10.0; Win64; x64) AppleWebKit/537.36 (KHTML, like Gecko) Chrome/118.0.0.0 Safari/537.36 Edg/118.0.2088.76","WebKit","Edge","118.0.2088.76","Windows","10.0","null","en-US,en;q=0.9","true","129","tones/440hz_short.mp3","a","","","empty_block","","veintisiete","","","","2","34",""
"","","","","","html-keyboard-response","183","344981","0.0-235.0","75","1","2023-11-02 01:07:07","a725c3012b74bf33a1020a98cb69c237","181.44.118.207","Mozilla/5.0 (Windows NT 10.0; Win64; x64) AppleWebKit/537.36 (KHTML, like Gecko) Chrome/118.0.0.0 Safari/537.36 Edg/118.0.2088.76","WebKit","Edge","118.0.2088.76","Windows","10.0","null","en-US,en;q=0.9","true","null","<div style=""font-size:100px;"">X</div>","null","","","fixation","","","","","","","",""
"","","","","","audio-keyboard-response","184","346139","0.0-236.0","75","1","2023-11-02 01:07:07","a725c3012b74bf33a1020a98cb69c237","181.44.118.207","Mozilla/5.0 (Windows NT 10.0; Win64; x64) AppleWebKit/537.36 (KHTML, like Gecko) Chrome/118.0.0.0 Safari/537.36 Edg/118.0.2088.76","WebKit","Edge","118.0.2088.76","Windows","10.0","null","en-US,en;q=0.9","true","null","tones/440hz_short.mp3","null","","","tone_number_task","992.5","cincuenta","tones/440hz_short.mp3","1142.5","60","2","35",""
"","","","","","html-keyboard-response","185","346419","0.0-239.0-0.0","75","1","2023-11-02 01:07:07","a725c3012b74bf33a1020a98cb69c237","181.44.118.207","Mozilla/5.0 (Windows NT 10.0; Win64; x64) AppleWebKit/537.36 (KHTML, like Gecko) Chrome/118.0.0.0 Safari/537.36 Edg/118.0.2088.76","WebKit","Edge","118.0.2088.76","Windows","10.0","null","en-US,en;q=0.9","true","265","tones/440hz_short.mp3","a","","","empty_block","","cincuenta","","","","2","35",""
"","","","","","html-keyboard-response","186","346920","0.0-239.0-1.0","75","1","2023-11-02 01:07:07","a725c3012b74bf33a1020a98cb69c237","181.44.118.207","Mozilla/5.0 (Windows NT 10.0; Win64; x64) AppleWebKit/537.36 (KHTML, like Gecko) Chrome/118.0.0.0 Safari/537.36 Edg/118.0.2088.76","WebKit","Edge","118.0.2088.76","Windows","10.0","null","en-US,en;q=0.9","true","489","tones/440hz_short.mp3","k","","","empty_block","","cincuenta","","","","2","35",""
"","","","","","html-keyboard-response","187","349631","0.0-241.0","75","1","2023-11-02 01:07:07","a725c3012b74bf33a1020a98cb69c237","181.44.118.207","Mozilla/5.0 (Windows NT 10.0; Win64; x64) AppleWebKit/537.36 (KHTML, like Gecko) Chrome/118.0.0.0 Safari/537.36 Edg/118.0.2088.76","WebKit","Edge","118.0.2088.76","Windows","10.0","null","en-US,en;q=0.9","true","null","<div style=""font-size:100px;"">X</div>","null","","","fixation","","","","","","","",""
"","","","","","audio-keyboard-response","188","350792","0.0-242.0","75","1","2023-11-02 01:07:07","a725c3012b74bf33a1020a98cb69c237","181.44.118.207","Mozilla/5.0 (Windows NT 10.0; Win64; x64) AppleWebKit/537.36 (KHTML, like Gecko) Chrome/118.0.0.0 Safari/537.36 Edg/118.0.2088.76","WebKit","Edge","118.0.2088.76","Windows","10.0","null","en-US,en;q=0.9","true","null","tones/440hz_short.mp3","null","","","tone_number_task","992.5","cuarenta y siete","tones/440hz_short.mp3","1142.5","60","2","36",""
"","","","","","html-keyboard-response","189","351302","0.0-245.0-0.0","75","1","2023-11-02 01:07:07","a725c3012b74bf33a1020a98cb69c237","181.44.118.207","Mozilla/5.0 (Windows NT 10.0; Win64; x64) AppleWebKit/537.36 (KHTML, like Gecko) Chrome/118.0.0.0 Safari/537.36 Edg/118.0.2088.76","WebKit","Edge","118.0.2088.76","Windows","10.0","null","en-US,en;q=0.9","true","495","tones/440hz_short.mp3","a","","","empty_block","","cuarenta y siete","","","","2","36",""
"","","","","","html-keyboard-response","190","352024","0.0-245.0-1.0","75","1","2023-11-02 01:07:07","a725c3012b74bf33a1020a98cb69c237","181.44.118.207","Mozilla/5.0 (Windows NT 10.0; Win64; x64) AppleWebKit/537.36 (KHTML, like Gecko) Chrome/118.0.0.0 Safari/537.36 Edg/118.0.2088.76","WebKit","Edge","118.0.2088.76","Windows","10.0","null","en-US,en;q=0.9","true","709","tones/440hz_short.mp3","k","","","empty_block","","cuarenta y siete","","","","2","36",""
"","","","","","html-keyboard-response","191","354741","0.0-247.0","75","1","2023-11-02 01:07:07","a725c3012b74bf33a1020a98cb69c237","181.44.118.207","Mozilla/5.0 (Windows NT 10.0; Win64; x64) AppleWebKit/537.36 (KHTML, like Gecko) Chrome/118.0.0.0 Safari/537.36 Edg/118.0.2088.76","WebKit","Edge","118.0.2088.76","Windows","10.0","null","en-US,en;q=0.9","true","null","<div style=""font-size:100px;"">X</div>","null","","","fixation","","","","","","","",""
"","","","","","audio-keyboard-response","192","355898","0.0-248.0","75","1","2023-11-02 01:07:07","a725c3012b74bf33a1020a98cb69c237","181.44.118.207","Mozilla/5.0 (Windows NT 10.0; Win64; x64) AppleWebKit/537.36 (KHTML, like Gecko) Chrome/118.0.0.0 Safari/537.36 Edg/118.0.2088.76","WebKit","Edge","118.0.2088.76","Windows","10.0","null","en-US,en;q=0.9","true","null","tones/440hz_short.mp3","null","","","tone_number_task","992.5","cincuenta y cuatro","tones/440hz_short.mp3","1142.5","60","2","37",""
"","","","","","html-keyboard-response","193","356187","0.0-251.0-0.0","75","1","2023-11-02 01:07:07","a725c3012b74bf33a1020a98cb69c237","181.44.118.207","Mozilla/5.0 (Windows NT 10.0; Win64; x64) AppleWebKit/537.36 (KHTML, like Gecko) Chrome/118.0.0.0 Safari/537.36 Edg/118.0.2088.76","WebKit","Edge","118.0.2088.76","Windows","10.0","null","en-US,en;q=0.9","true","276","tones/440hz_short.mp3","a","","","empty_block","","cincuenta y cuatro","","","","2","37",""
"","","","","","html-keyboard-response","194","356481","0.0-251.0-1.0","75","1","2023-11-02 01:07:07","a725c3012b74bf33a1020a98cb69c237","181.44.118.207","Mozilla/5.0 (Windows NT 10.0; Win64; x64) AppleWebKit/537.36 (KHTML, like Gecko) Chrome/118.0.0.0 Safari/537.36 Edg/118.0.2088.76","WebKit","Edge","118.0.2088.76","Windows","10.0","null","en-US,en;q=0.9","true","280","tones/440hz_short.mp3","k","","","empty_block","","cincuenta y cuatro","","","","2","37",""
"","","","","","html-keyboard-response","195","359201","0.0-253.0","75","1","2023-11-02 01:07:07","a725c3012b74bf33a1020a98cb69c237","181.44.118.207","Mozilla/5.0 (Windows NT 10.0; Win64; x64) AppleWebKit/537.36 (KHTML, like Gecko) Chrome/118.0.0.0 Safari/537.36 Edg/118.0.2088.76","WebKit","Edge","118.0.2088.76","Windows","10.0","null","en-US,en;q=0.9","true","null","<div style=""font-size:100px;"">X</div>","null","","","fixation","","","","","","","",""
"","","","","","audio-keyboard-response","196","360361","0.0-254.0","75","1","2023-11-02 01:07:07","a725c3012b74bf33a1020a98cb69c237","181.44.118.207","Mozilla/5.0 (Windows NT 10.0; Win64; x64) AppleWebKit/537.36 (KHTML, like Gecko) Chrome/118.0.0.0 Safari/537.36 Edg/118.0.2088.76","WebKit","Edge","118.0.2088.76","Windows","10.0","null","en-US,en;q=0.9","true","null","tones/880hz_short.mp3","null","","","tone_number_task","992.5","cincuenta y tres","tones/880hz_short.mp3","1142.5","60","2","38",""
"","","","","","html-keyboard-response","197","360743","0.0-257.0-0.0","75","1","2023-11-02 01:07:07","a725c3012b74bf33a1020a98cb69c237","181.44.118.207","Mozilla/5.0 (Windows NT 10.0; Win64; x64) AppleWebKit/537.36 (KHTML, like Gecko) Chrome/118.0.0.0 Safari/537.36 Edg/118.0.2088.76","WebKit","Edge","118.0.2088.76","Windows","10.0","null","en-US,en;q=0.9","true","369","tones/880hz_short.mp3","s","","","empty_block","","cincuenta y tres","","","","2","38",""
"","","","","","html-keyboard-response","198","361063","0.0-257.0-1.0","75","1","2023-11-02 01:07:07","a725c3012b74bf33a1020a98cb69c237","181.44.118.207","Mozilla/5.0 (Windows NT 10.0; Win64; x64) AppleWebKit/537.36 (KHTML, like Gecko) Chrome/118.0.0.0 Safari/537.36 Edg/118.0.2088.76","WebKit","Edge","118.0.2088.76","Windows","10.0","null","en-US,en;q=0.9","true","306","tones/880hz_short.mp3","k","","","empty_block","","cincuenta y tres","","","","2","38",""
"","","","","","html-keyboard-response","199","363771","0.0-259.0","75","1","2023-11-02 01:07:07","a725c3012b74bf33a1020a98cb69c237","181.44.118.207","Mozilla/5.0 (Windows NT 10.0; Win64; x64) AppleWebKit/537.36 (KHTML, like Gecko) Chrome/118.0.0.0 Safari/537.36 Edg/118.0.2088.76","WebKit","Edge","118.0.2088.76","Windows","10.0","null","en-US,en;q=0.9","true","null","<div style=""font-size:100px;"">X</div>","null","","","fixation","","","","","","","",""
"","","","","","audio-keyboard-response","200","364041","0.0-260.0","75","1","2023-11-02 01:07:07","a725c3012b74bf33a1020a98cb69c237","181.44.118.207","Mozilla/5.0 (Windows NT 10.0; Win64; x64) AppleWebKit/537.36 (KHTML, like Gecko) Chrome/118.0.0.0 Safari/537.36 Edg/118.0.2088.76","WebKit","Edge","118.0.2088.76","Windows","10.0","null","en-US,en;q=0.9","true","null","tones/440hz_short.mp3","null","","","tone_number_task","102.5","treinta y cuatro","tones/440hz_short.mp3","252.5","60","2","39",""
"","","","","","html-keyboard-response","201","365263","0.0-263.0-0.0","75","1","2023-11-02 01:07:07","a725c3012b74bf33a1020a98cb69c237","181.44.118.207","Mozilla/5.0 (Windows NT 10.0; Win64; x64) AppleWebKit/537.36 (KHTML, like Gecko) Chrome/118.0.0.0 Safari/537.36 Edg/118.0.2088.76","WebKit","Edge","118.0.2088.76","Windows","10.0","null","en-US,en;q=0.9","true","null","tones/440hz_short.mp3","null","","","empty_block","","treinta y cuatro","","","","2","39",""
"","","","","","html-keyboard-response","202","365597","0.0-263.0-1.0","75","1","2023-11-02 01:07:07","a725c3012b74bf33a1020a98cb69c237","181.44.118.207","Mozilla/5.0 (Windows NT 10.0; Win64; x64) AppleWebKit/537.36 (KHTML, like Gecko) Chrome/118.0.0.0 Safari/537.36 Edg/118.0.2088.76","WebKit","Edge","118.0.2088.76","Windows","10.0","null","en-US,en;q=0.9","true","319","tones/440hz_short.mp3","a","","","empty_block","","treinta y cuatro","","","","2","39",""
"","","","","","call-function","203","365611","0.0-265.0","75","1","2023-11-02 01:07:07","a725c3012b74bf33a1020a98cb69c237","181.44.118.207","Mozilla/5.0 (Windows NT 10.0; Win64; x64) AppleWebKit/537.36 (KHTML, like Gecko) Chrome/118.0.0.0 Safari/537.36 Edg/118.0.2088.76","WebKit","Edge","118.0.2088.76","Windows","10.0","null","en-US,en;q=0.9","true","","","","","","","","","","","","","",""
"","","","","","external-html","204","376386","0.0-266.0","75","1","2023-11-02 01:07:07","a725c3012b74bf33a1020a98cb69c237","181.44.118.207","Mozilla/5.0 (Windows NT 10.0; Win64; x64) AppleWebKit/537.36 (KHTML, like Gecko) Chrome/118.0.0.0 Safari/537.36 Edg/118.0.2088.76","WebKit","Edge","118.0.2088.76","Windows","10.0","null","en-US,en;q=0.9","true","9674","","","","instructions/instructions_words_last.html","","","","","","","","",""
"","","","","","call-function","205","376410","0.0-267.0","75","1","2023-11-02 01:07:07","a725c3012b74bf33a1020a98cb69c237","181.44.118.207","Mozilla/5.0 (Windows NT 10.0; Win64; x64) AppleWebKit/537.36 (KHTML, like Gecko) Chrome/118.0.0.0 Safari/537.36 Edg/118.0.2088.76","WebKit","Edge","118.0.2088.76","Windows","10.0","null","en-US,en;q=0.9","true","","","","","","","","","","","","","",""
"","","","","","html-keyboard-response","206","379121","0.0-268.0","75","1","2023-11-02 01:07:07","a725c3012b74bf33a1020a98cb69c237","181.44.118.207","Mozilla/5.0 (Windows NT 10.0; Win64; x64) AppleWebKit/537.36 (KHTML, like Gecko) Chrome/118.0.0.0 Safari/537.36 Edg/118.0.2088.76","WebKit","Edge","118.0.2088.76","Windows","10.0","null","en-US,en;q=0.9","true","null","<div style=""font-size:100px;"">X</div>","null","","","fixation","","","","","","","",""
"","","","","","audio-keyboard-response","207","380282","0.0-269.0","75","1","2023-11-02 01:07:07","a725c3012b74bf33a1020a98cb69c237","181.44.118.207","Mozilla/5.0 (Windows NT 10.0; Win64; x64) AppleWebKit/537.36 (KHTML, like Gecko) Chrome/118.0.0.0 Safari/537.36 Edg/118.0.2088.76","WebKit","Edge","118.0.2088.76","Windows","10.0","null","en-US,en;q=0.9","true","null","tones/880hz_short.mp3","null","","","tone_number_task","992.5","veintiseis","tones/880hz_short.mp3","1142.5","60","3","0",""
"","","","","","html-keyboard-response","208","381401","0.0-272.0-0.0","75","1","2023-11-02 01:07:07","a725c3012b74bf33a1020a98cb69c237","181.44.118.207","Mozilla/5.0 (Windows NT 10.0; Win64; x64) AppleWebKit/537.36 (KHTML, like Gecko) Chrome/118.0.0.0 Safari/537.36 Edg/118.0.2088.76","WebKit","Edge","118.0.2088.76","Windows","10.0","null","en-US,en;q=0.9","true","1104","tones/880hz_short.mp3","s","","","empty_block","","veintiseis","","","","3","0",""
"","","","","","html-keyboard-response","209","381700","0.0-272.0-1.0","75","1","2023-11-02 01:07:07","a725c3012b74bf33a1020a98cb69c237","181.44.118.207","Mozilla/5.0 (Windows NT 10.0; Win64; x64) AppleWebKit/537.36 (KHTML, like Gecko) Chrome/118.0.0.0 Safari/537.36 Edg/118.0.2088.76","WebKit","Edge","118.0.2088.76","Windows","10.0","null","en-US,en;q=0.9","true","285","tones/880hz_short.mp3","j","","","empty_block","","veintiseis","","","","3","0",""
"","","","","","html-keyboard-response","210","384410","0.0-274.0","75","1","2023-11-02 01:07:07","a725c3012b74bf33a1020a98cb69c237","181.44.118.207","Mozilla/5.0 (Windows NT 10.0; Win64; x64) AppleWebKit/537.36 (KHTML, like Gecko) Chrome/118.0.0.0 Safari/537.36 Edg/118.0.2088.76","WebKit","Edge","118.0.2088.76","Windows","10.0","null","en-US,en;q=0.9","true","null","<div style=""font-size:100px;"">X</div>","null","","","fixation","","","","","","","",""
