"success","timeout","failed_images","failed_audio","failed_video","trial_type","trial_index","time_elapsed","internal_node_id","run_id","condition","recorded_at","source_code_version","ip","user_agent","device","browser","browser_version","platform","platform_version","referer","accept_language","check","rt","stimulus","response","question_order","url","task","delay","number","audioFile","trial_duration","font_size","block","round","value"
"true","false","[]","[]","[]","preload","0","31","0.0-0.0","33","1","2023-10-24 18:13:33","a725c3012b74bf33a1020a98cb69c237","130.41.68.136","Mozilla/5.0 (Windows NT 10.0; Win64; x64) AppleWebKit/537.36 (KHTML, like Gecko) Chrome/118.0.0.0 Safari/537.36 Edg/118.0.2088.61","WebKit","Edge","118.0.2088.61","Windows","10.0","null","en-US,en;q=0.9,es;q=0.8","true","","","","","","","","","","","","","",""
"true","","","","","fullscreen","1","14355","0.0-1.0","33","1","2023-10-24 18:13:33","a725c3012b74bf33a1020a98cb69c237","130.41.68.136","Mozilla/5.0 (Windows NT 10.0; Win64; x64) AppleWebKit/537.36 (KHTML, like Gecko) Chrome/118.0.0.0 Safari/537.36 Edg/118.0.2088.61","WebKit","Edge","118.0.2088.61","Windows","10.0","null","en-US,en;q=0.9,es;q=0.8","true","","","","","","","","","","","","","",""
"","","","","","html-button-response","2","15886","0.0-2.0","33","1","2023-10-24 18:13:33","a725c3012b74bf33a1020a98cb69c237","130.41.68.136","Mozilla/5.0 (Windows NT 10.0; Win64; x64) AppleWebKit/537.36 (KHTML, like Gecko) Chrome/118.0.0.0 Safari/537.36 Edg/118.0.2088.61","WebKit","Edge","118.0.2088.61","Windows","10.0","null","en-US,en;q=0.9,es;q=0.8","true","1529","<p style=""font-size:24px; color:red;"">Cosas importantes a tener en cuenta antes de comenzar el experimento:</p>","0","","","","","","","","","","",""
"","","","","","html-button-response","3","16550","0.0-3.0","33","1","2023-10-24 18:13:33","a725c3012b74bf33a1020a98cb69c237","130.41.68.136","Mozilla/5.0 (Windows NT 10.0; Win64; x64) AppleWebKit/537.36 (KHTML, like Gecko) Chrome/118.0.0.0 Safari/537.36 Edg/118.0.2088.61","WebKit","Edge","118.0.2088.61","Windows","10.0","null","en-US,en;q=0.9,es;q=0.8","true","663","<p style=""font-size:24px;"">El experimento dura aproximadamente 15 minutos.</p><p style=""font-size:24px;"">Por favor, no cierres la ventana del navegador durante el experimento.</p><p style=""font-size:24px;"">Si se completa de forma parcial, no se guardará ningún resultado.</p>","0","","","","","","","","","","",""
"","","","","","html-button-response","4","17334","0.0-4.0","33","1","2023-10-24 18:13:33","a725c3012b74bf33a1020a98cb69c237","130.41.68.136","Mozilla/5.0 (Windows NT 10.0; Win64; x64) AppleWebKit/537.36 (KHTML, like Gecko) Chrome/118.0.0.0 Safari/537.36 Edg/118.0.2088.61","WebKit","Edge","118.0.2088.61","Windows","10.0","null","en-US,en;q=0.9,es;q=0.8","true","783","<p style=""font-size:24px;"">El experimento contiene estímulos sonoros.</p>","0","","","","","","","","","","",""
"","","","","","audio-button-response","5","18878","0.0-5.0-0.0","33","1","2023-10-24 18:13:33","a725c3012b74bf33a1020a98cb69c237","130.41.68.136","Mozilla/5.0 (Windows NT 10.0; Win64; x64) AppleWebKit/537.36 (KHTML, like Gecko) Chrome/118.0.0.0 Safari/537.36 Edg/118.0.2088.61","WebKit","Edge","118.0.2088.61","Windows","10.0","null","en-US,en;q=0.9,es;q=0.8","true","661","tones/440hz_short.mp3","1","","","","","","","","","","",""
"","","","","","audio-button-response","6","19495","0.0-6.0-0.0","33","1","2023-10-24 18:13:33","a725c3012b74bf33a1020a98cb69c237","130.41.68.136","Mozilla/5.0 (Windows NT 10.0; Win64; x64) AppleWebKit/537.36 (KHTML, like Gecko) Chrome/118.0.0.0 Safari/537.36 Edg/118.0.2088.61","WebKit","Edge","118.0.2088.61","Windows","10.0","null","en-US,en;q=0.9,es;q=0.8","true","608","tones/880hz_short.mp3","1","","","","","","","","","","",""
"","","","","","survey-html-form","7","21318","0.0-7.0","33","1","2023-10-24 18:13:33","a725c3012b74bf33a1020a98cb69c237","130.41.68.136","Mozilla/5.0 (Windows NT 10.0; Win64; x64) AppleWebKit/537.36 (KHTML, like Gecko) Chrome/118.0.0.0 Safari/537.36 Edg/118.0.2088.61","WebKit","Edge","118.0.2088.61","Windows","10.0","null","en-US,en;q=0.9,es;q=0.8","true","1819","","{""response"":""23""}","","","","","","","","","","",""
"","","","","","survey-multi-choice","8","24078","0.0-8.0","33","1","2023-10-24 18:13:33","a725c3012b74bf33a1020a98cb69c237","130.41.68.136","Mozilla/5.0 (Windows NT 10.0; Win64; x64) AppleWebKit/537.36 (KHTML, like Gecko) Chrome/118.0.0.0 Safari/537.36 Edg/118.0.2088.61","WebKit","Edge","118.0.2088.61","Windows","10.0","null","en-US,en;q=0.9,es;q=0.8","true","2758","","{""gender"":""Mujer"",""hand"":""Derecha""}","[0,1]","","","","","","","","","",""
"","","","","","external-html","9","30431","0.0-9.0","33","1","2023-10-24 18:13:33","a725c3012b74bf33a1020a98cb69c237","130.41.68.136","Mozilla/5.0 (Windows NT 10.0; Win64; x64) AppleWebKit/537.36 (KHTML, like Gecko) Chrome/118.0.0.0 Safari/537.36 Edg/118.0.2088.61","WebKit","Edge","118.0.2088.61","Windows","10.0","null","en-US,en;q=0.9,es;q=0.8","true","6058","","","","instructions/instructions.html","","","","","","","","",""
"","","","","","external-html","10","52725","0.0-10.0","33","1","2023-10-24 18:13:33","a725c3012b74bf33a1020a98cb69c237","130.41.68.136","Mozilla/5.0 (Windows NT 10.0; Win64; x64) AppleWebKit/537.36 (KHTML, like Gecko) Chrome/118.0.0.0 Safari/537.36 Edg/118.0.2088.61","WebKit","Edge","118.0.2088.61","Windows","10.0","null","en-US,en;q=0.9,es;q=0.8","true","21996","","","","instructions/animation.html","","","","","","","","",""
"","","","","","html-keyboard-response","11","55695","0.0-11.0-0.0","33","1","2023-10-24 18:13:33","a725c3012b74bf33a1020a98cb69c237","130.41.68.136","Mozilla/5.0 (Windows NT 10.0; Win64; x64) AppleWebKit/537.36 (KHTML, like Gecko) Chrome/118.0.0.0 Safari/537.36 Edg/118.0.2088.61","WebKit","Edge","118.0.2088.61","Windows","10.0","null","en-US,en;q=0.9,es;q=0.8","true","null","<div style=""font-size:100px;"">X</div>","null","","","fixation","","","","","","","",""
"","","","","","audio-keyboard-response","12","56677","0.0-11.0-1.0","33","1","2023-10-24 18:13:33","a725c3012b74bf33a1020a98cb69c237","130.41.68.136","Mozilla/5.0 (Windows NT 10.0; Win64; x64) AppleWebKit/537.36 (KHTML, like Gecko) Chrome/118.0.0.0 Safari/537.36 Edg/118.0.2088.61","WebKit","Edge","118.0.2088.61","Windows","10.0","null","en-US,en;q=0.9,es;q=0.8","true","699","tones/440hz_short.mp3","a","","","tone_number_task","1000","39","tones/440hz_short.mp3","1150","100","null","null",""
"","","","","","html-keyboard-response","13","56996","0.0-11.0-2.0-0.0","33","1","2023-10-24 18:13:33","a725c3012b74bf33a1020a98cb69c237","130.41.68.136","Mozilla/5.0 (Windows NT 10.0; Win64; x64) AppleWebKit/537.36 (KHTML, like Gecko) Chrome/118.0.0.0 Safari/537.36 Edg/118.0.2088.61","WebKit","Edge","118.0.2088.61","Windows","10.0","null","en-US,en;q=0.9,es;q=0.8","true","null","","null","","","delay_block","","","","","","null","null",""
"","","","","","html-keyboard-response","14","57154","0.0-11.0-2.0-1.0","33","1","2023-10-24 18:13:33","a725c3012b74bf33a1020a98cb69c237","130.41.68.136","Mozilla/5.0 (Windows NT 10.0; Win64; x64) AppleWebKit/537.36 (KHTML, like Gecko) Chrome/118.0.0.0 Safari/537.36 Edg/118.0.2088.61","WebKit","Edge","118.0.2088.61","Windows","10.0","null","en-US,en;q=0.9,es;q=0.8","true","null","<p id=""stimulus"" style=""font-size:100px;"">39</p>","null","","","tone_number_task_remaining_before_delay","","39","","451","100","null","null",""
"","","","","","html-keyboard-response","15","57569","0.0-11.0-5.0-0.0","33","1","2023-10-24 18:13:33","a725c3012b74bf33a1020a98cb69c237","130.41.68.136","Mozilla/5.0 (Windows NT 10.0; Win64; x64) AppleWebKit/537.36 (KHTML, like Gecko) Chrome/118.0.0.0 Safari/537.36 Edg/118.0.2088.61","WebKit","Edge","118.0.2088.61","Windows","10.0","null","en-US,en;q=0.9,es;q=0.8","true","414","<p id=""stimulus"" style=""font-size:100px;"">39</p>","j","","","empty_block","","39","","","","null","null",""
"","","","","","html-keyboard-response","16","60537","0.0-13.0-0.0","33","1","2023-10-24 18:13:33","a725c3012b74bf33a1020a98cb69c237","130.41.68.136","Mozilla/5.0 (Windows NT 10.0; Win64; x64) AppleWebKit/537.36 (KHTML, like Gecko) Chrome/118.0.0.0 Safari/537.36 Edg/118.0.2088.61","WebKit","Edge","118.0.2088.61","Windows","10.0","null","en-US,en;q=0.9,es;q=0.8","true","null","<div style=""font-size:100px;"">X</div>","null","","","fixation","","","","","","","",""
"","","","","","audio-keyboard-response","17","61189","0.0-13.0-1.0","33","1","2023-10-24 18:13:33","a725c3012b74bf33a1020a98cb69c237","130.41.68.136","Mozilla/5.0 (Windows NT 10.0; Win64; x64) AppleWebKit/537.36 (KHTML, like Gecko) Chrome/118.0.0.0 Safari/537.36 Edg/118.0.2088.61","WebKit","Edge","118.0.2088.61","Windows","10.0","null","en-US,en;q=0.9,es;q=0.8","true","null","tones/880hz_short.mp3","null","","","tone_number_task","500","40","tones/880hz_short.mp3","650","100","null","null",""
"","","","","","html-keyboard-response","18","61341","0.0-13.0-4.0-0.0","33","1","2023-10-24 18:13:33","a725c3012b74bf33a1020a98cb69c237","130.41.68.136","Mozilla/5.0 (Windows NT 10.0; Win64; x64) AppleWebKit/537.36 (KHTML, like Gecko) Chrome/118.0.0.0 Safari/537.36 Edg/118.0.2088.61","WebKit","Edge","118.0.2088.61","Windows","10.0","null","en-US,en;q=0.9,es;q=0.8","true","150","tones/880hz_short.mp3","s","","","empty_block","","40","","","","null","null",""
"","","","","","html-keyboard-response","19","61732","0.0-13.0-4.0-1.0","33","1","2023-10-24 18:13:33","a725c3012b74bf33a1020a98cb69c237","130.41.68.136","Mozilla/5.0 (Windows NT 10.0; Win64; x64) AppleWebKit/537.36 (KHTML, like Gecko) Chrome/118.0.0.0 Safari/537.36 Edg/118.0.2088.61","WebKit","Edge","118.0.2088.61","Windows","10.0","null","en-US,en;q=0.9,es;q=0.8","true","391","tones/880hz_short.mp3","j","","","empty_block","","40","","","","null","null",""
"","","","","","html-keyboard-response","20","64701","0.0-15.0-0.0","33","1","2023-10-24 18:13:33","a725c3012b74bf33a1020a98cb69c237","130.41.68.136","Mozilla/5.0 (Windows NT 10.0; Win64; x64) AppleWebKit/537.36 (KHTML, like Gecko) Chrome/118.0.0.0 Safari/537.36 Edg/118.0.2088.61","WebKit","Edge","118.0.2088.61","Windows","10.0","null","en-US,en;q=0.9,es;q=0.8","true","null","<div style=""font-size:100px;"">X</div>","null","","","fixation","","","","","","","",""
"","","","","","audio-keyboard-response","21","65005","0.0-15.0-1.0","33","1","2023-10-24 18:13:33","a725c3012b74bf33a1020a98cb69c237","130.41.68.136","Mozilla/5.0 (Windows NT 10.0; Win64; x64) AppleWebKit/537.36 (KHTML, like Gecko) Chrome/118.0.0.0 Safari/537.36 Edg/118.0.2088.61","WebKit","Edge","118.0.2088.61","Windows","10.0","null","en-US,en;q=0.9,es;q=0.8","true","null","tones/880hz_short.mp3","null","","","tone_number_task","150","56","tones/880hz_short.mp3","300","100","null","null",""
"","","","","","html-keyboard-response","22","65221","0.0-15.0-4.0-0.0","33","1","2023-10-24 18:13:33","a725c3012b74bf33a1020a98cb69c237","130.41.68.136","Mozilla/5.0 (Windows NT 10.0; Win64; x64) AppleWebKit/537.36 (KHTML, like Gecko) Chrome/118.0.0.0 Safari/537.36 Edg/118.0.2088.61","WebKit","Edge","118.0.2088.61","Windows","10.0","null","en-US,en;q=0.9,es;q=0.8","true","215","tones/880hz_short.mp3","s","","","empty_block","","56","","","","null","null",""
"","","","","","html-keyboard-response","23","65550","0.0-15.0-4.0-1.0","33","1","2023-10-24 18:13:33","a725c3012b74bf33a1020a98cb69c237","130.41.68.136","Mozilla/5.0 (Windows NT 10.0; Win64; x64) AppleWebKit/537.36 (KHTML, like Gecko) Chrome/118.0.0.0 Safari/537.36 Edg/118.0.2088.61","WebKit","Edge","118.0.2088.61","Windows","10.0","null","en-US,en;q=0.9,es;q=0.8","true","329","tones/880hz_short.mp3","k","","","empty_block","","56","","","","null","null",""
"","","","","","html-keyboard-response","24","68518","0.0-17.0-0.0","33","1","2023-10-24 18:13:33","a725c3012b74bf33a1020a98cb69c237","130.41.68.136","Mozilla/5.0 (Windows NT 10.0; Win64; x64) AppleWebKit/537.36 (KHTML, like Gecko) Chrome/118.0.0.0 Safari/537.36 Edg/118.0.2088.61","WebKit","Edge","118.0.2088.61","Windows","10.0","null","en-US,en;q=0.9,es;q=0.8","true","null","<div style=""font-size:100px;"">X</div>","null","","","fixation","","","","","","","",""
"","","","","","audio-keyboard-response","25","68721","0.0-17.0-1.0","33","1","2023-10-24 18:13:33","a725c3012b74bf33a1020a98cb69c237","130.41.68.136","Mozilla/5.0 (Windows NT 10.0; Win64; x64) AppleWebKit/537.36 (KHTML, like Gecko) Chrome/118.0.0.0 Safari/537.36 Edg/118.0.2088.61","WebKit","Edge","118.0.2088.61","Windows","10.0","null","en-US,en;q=0.9,es;q=0.8","true","null","tones/440hz_short.mp3","null","","","tone_number_task","50","59","tones/440hz_short.mp3","200","100","null","null",""
"","","","","","html-keyboard-response","26","68957","0.0-17.0-4.0-0.0","33","1","2023-10-24 18:13:33","a725c3012b74bf33a1020a98cb69c237","130.41.68.136","Mozilla/5.0 (Windows NT 10.0; Win64; x64) AppleWebKit/537.36 (KHTML, like Gecko) Chrome/118.0.0.0 Safari/537.36 Edg/118.0.2088.61","WebKit","Edge","118.0.2088.61","Windows","10.0","null","en-US,en;q=0.9,es;q=0.8","true","235","tones/440hz_short.mp3","a","","","empty_block","","59","","","","null","null",""
"","","","","","html-keyboard-response","27","69359","0.0-17.0-4.0-1.0","33","1","2023-10-24 18:13:33","a725c3012b74bf33a1020a98cb69c237","130.41.68.136","Mozilla/5.0 (Windows NT 10.0; Win64; x64) AppleWebKit/537.36 (KHTML, like Gecko) Chrome/118.0.0.0 Safari/537.36 Edg/118.0.2088.61","WebKit","Edge","118.0.2088.61","Windows","10.0","null","en-US,en;q=0.9,es;q=0.8","true","402","tones/440hz_short.mp3","k","","","empty_block","","59","","","","null","null",""
"","","","","","html-button-response","28","72245","0.0-19.0","33","1","2023-10-24 18:13:33","a725c3012b74bf33a1020a98cb69c237","130.41.68.136","Mozilla/5.0 (Windows NT 10.0; Win64; x64) AppleWebKit/537.36 (KHTML, like Gecko) Chrome/118.0.0.0 Safari/537.36 Edg/118.0.2088.61","WebKit","Edge","118.0.2088.61","Windows","10.0","null","en-US,en;q=0.9,es;q=0.8","true","2884","
  <h1> Muy bien </h1>
  <p> Ahora, en vez de ser presentados en dígitos, los números vendrán escritos en palabras. </p>
  <p> Por ejemplo, en vez de 44 te aparecerá ""cuarenta y cuatro"". </p>
  ","0","","","","","","","","","","",""
"","","","","","html-keyboard-response","29","75214","0.0-20.0-0.0","33","1","2023-10-24 18:13:33","a725c3012b74bf33a1020a98cb69c237","130.41.68.136","Mozilla/5.0 (Windows NT 10.0; Win64; x64) AppleWebKit/537.36 (KHTML, like Gecko) Chrome/118.0.0.0 Safari/537.36 Edg/118.0.2088.61","WebKit","Edge","118.0.2088.61","Windows","10.0","null","en-US,en;q=0.9,es;q=0.8","true","null","<div style=""font-size:100px;"">X</div>","null","","","fixation","","","","","","","",""
"","","","","","audio-keyboard-response","30","75712","0.0-20.0-1.0","33","1","2023-10-24 18:13:33","a725c3012b74bf33a1020a98cb69c237","130.41.68.136","Mozilla/5.0 (Windows NT 10.0; Win64; x64) AppleWebKit/537.36 (KHTML, like Gecko) Chrome/118.0.0.0 Safari/537.36 Edg/118.0.2088.61","WebKit","Edge","118.0.2088.61","Windows","10.0","null","en-US,en;q=0.9,es;q=0.8","true","491","tones/440hz_short.mp3","a","","","tone_number_task","1000","sesenta y ocho","tones/440hz_short.mp3","1150","60","null","null",""
"","","","","","html-keyboard-response","31","76225","0.0-20.0-2.0-0.0","33","1","2023-10-24 18:13:33","a725c3012b74bf33a1020a98cb69c237","130.41.68.136","Mozilla/5.0 (Windows NT 10.0; Win64; x64) AppleWebKit/537.36 (KHTML, like Gecko) Chrome/118.0.0.0 Safari/537.36 Edg/118.0.2088.61","WebKit","Edge","118.0.2088.61","Windows","10.0","null","en-US,en;q=0.9,es;q=0.8","true","null","","null","","","delay_block","","","","","","null","null",""
"","","","","","html-keyboard-response","32","76377","0.0-20.0-2.0-1.0","33","1","2023-10-24 18:13:33","a725c3012b74bf33a1020a98cb69c237","130.41.68.136","Mozilla/5.0 (Windows NT 10.0; Win64; x64) AppleWebKit/537.36 (KHTML, like Gecko) Chrome/118.0.0.0 Safari/537.36 Edg/118.0.2088.61","WebKit","Edge","118.0.2088.61","Windows","10.0","null","en-US,en;q=0.9,es;q=0.8","true","null","<p id=""stimulus"" style=""font-size:60px;"">sesenta y ocho</p>","null","","","tone_number_task_remaining_before_delay","","sesenta y ocho","","659","60","null","null",""
"","","","","","html-keyboard-response","33","77302","0.0-20.0-5.0-0.0","33","1","2023-10-24 18:13:33","a725c3012b74bf33a1020a98cb69c237","130.41.68.136","Mozilla/5.0 (Windows NT 10.0; Win64; x64) AppleWebKit/537.36 (KHTML, like Gecko) Chrome/118.0.0.0 Safari/537.36 Edg/118.0.2088.61","WebKit","Edge","118.0.2088.61","Windows","10.0","null","en-US,en;q=0.9,es;q=0.8","true","923","<p id=""stimulus"" style=""font-size:60px;"">sesenta y ocho</p>","k","","","empty_block","","sesenta y ocho","","","","null","null",""
"","","","","","html-button-response","34","79879","0.0-22.0","33","1","2023-10-24 18:13:33","a725c3012b74bf33a1020a98cb69c237","130.41.68.136","Mozilla/5.0 (Windows NT 10.0; Win64; x64) AppleWebKit/537.36 (KHTML, like Gecko) Chrome/118.0.0.0 Safari/537.36 Edg/118.0.2088.61","WebKit","Edge","118.0.2088.61","Windows","10.0","null","en-US,en;q=0.9,es;q=0.8","true","2574","
  <h1> Fin del Entrenamiento </h1>
  <p> ¡Felicitaciones, terminaste el entrenamiento! Ahora vamos a comenzar con el experimento. </p>
  <p> Es importante tener en cuenta que consta de cuatro bloques.</p>
  <p> Podés aprovechar los momentos entre bloques para tomar un breve descanso o tomar agua entre cada uno</p>
  <p> Recordá que tenés que responder lo más rápido que puedas, pero sin equivocarte. </p>
  ","0","","","","","","","","","","",""
"","","","","","external-html","35","84023","0.0-23.0","33","1","2023-10-24 18:13:33","a725c3012b74bf33a1020a98cb69c237","130.41.68.136","Mozilla/5.0 (Windows NT 10.0; Win64; x64) AppleWebKit/537.36 (KHTML, like Gecko) Chrome/118.0.0.0 Safari/537.36 Edg/118.0.2088.61","WebKit","Edge","118.0.2088.61","Windows","10.0","null","en-US,en;q=0.9,es;q=0.8","true","3852","","","","instructions/instructions_digits_first.html","","","","","","","","",""
"","","","","","call-function","36","84027","0.0-24.0","33","1","2023-10-24 18:13:33","a725c3012b74bf33a1020a98cb69c237","130.41.68.136","Mozilla/5.0 (Windows NT 10.0; Win64; x64) AppleWebKit/537.36 (KHTML, like Gecko) Chrome/118.0.0.0 Safari/537.36 Edg/118.0.2088.61","WebKit","Edge","118.0.2088.61","Windows","10.0","null","en-US,en;q=0.9,es;q=0.8","true","","","","","","","","","","","","","",""
"","","","","","html-keyboard-response","37","86994","0.0-25.0","33","1","2023-10-24 18:13:33","a725c3012b74bf33a1020a98cb69c237","130.41.68.136","Mozilla/5.0 (Windows NT 10.0; Win64; x64) AppleWebKit/537.36 (KHTML, like Gecko) Chrome/118.0.0.0 Safari/537.36 Edg/118.0.2088.61","WebKit","Edge","118.0.2088.61","Windows","10.0","null","en-US,en;q=0.9,es;q=0.8","true","null","<div style=""font-size:100px;"">X</div>","null","","","fixation","","","","","","","",""
"","","","","","audio-keyboard-response","38","87147","0.0-26.0","33","1","2023-10-24 18:13:33","a725c3012b74bf33a1020a98cb69c237","130.41.68.136","Mozilla/5.0 (Windows NT 10.0; Win64; x64) AppleWebKit/537.36 (KHTML, like Gecko) Chrome/118.0.0.0 Safari/537.36 Edg/118.0.2088.61","WebKit","Edge","118.0.2088.61","Windows","10.0","null","en-US,en;q=0.9,es;q=0.8","true","null","tones/880hz_short.mp3","null","","","tone_number_task","0","57","tones/880hz_short.mp3","150","100","0","0",""
"","","","","","html-keyboard-response","39","88002","0.0-29.0-0.0","33","1","2023-10-24 18:13:33","a725c3012b74bf33a1020a98cb69c237","130.41.68.136","Mozilla/5.0 (Windows NT 10.0; Win64; x64) AppleWebKit/537.36 (KHTML, like Gecko) Chrome/118.0.0.0 Safari/537.36 Edg/118.0.2088.61","WebKit","Edge","118.0.2088.61","Windows","10.0","null","en-US,en;q=0.9,es;q=0.8","true","854","tones/880hz_short.mp3","s","","","empty_block","","57","","","","0","0",""
"","","","","","html-keyboard-response","40","88354","0.0-29.0-1.0","33","1","2023-10-24 18:13:33","a725c3012b74bf33a1020a98cb69c237","130.41.68.136","Mozilla/5.0 (Windows NT 10.0; Win64; x64) AppleWebKit/537.36 (KHTML, like Gecko) Chrome/118.0.0.0 Safari/537.36 Edg/118.0.2088.61","WebKit","Edge","118.0.2088.61","Windows","10.0","null","en-US,en;q=0.9,es;q=0.8","true","350","tones/880hz_short.mp3","k","","","empty_block","","57","","","","0","0",""
"","","","","","html-keyboard-response","41","91322","0.0-31.0","33","1","2023-10-24 18:13:33","a725c3012b74bf33a1020a98cb69c237","130.41.68.136","Mozilla/5.0 (Windows NT 10.0; Win64; x64) AppleWebKit/537.36 (KHTML, like Gecko) Chrome/118.0.0.0 Safari/537.36 Edg/118.0.2088.61","WebKit","Edge","118.0.2088.61","Windows","10.0","null","en-US,en;q=0.9,es;q=0.8","true","null","<div style=""font-size:100px;"">X</div>","null","","","fixation","","","","","","","",""
"","","","","","audio-keyboard-response","42","91577","0.0-32.0","33","1","2023-10-24 18:13:33","a725c3012b74bf33a1020a98cb69c237","130.41.68.136","Mozilla/5.0 (Windows NT 10.0; Win64; x64) AppleWebKit/537.36 (KHTML, like Gecko) Chrome/118.0.0.0 Safari/537.36 Edg/118.0.2088.61","WebKit","Edge","118.0.2088.61","Windows","10.0","null","en-US,en;q=0.9,es;q=0.8","true","null","tones/880hz_short.mp3","null","","","tone_number_task","102.5","28","tones/880hz_short.mp3","252.5","100","0","1",""
"","","","","","html-keyboard-response","43","92407","0.0-35.0-0.0","33","1","2023-10-24 18:13:33","a725c3012b74bf33a1020a98cb69c237","130.41.68.136","Mozilla/5.0 (Windows NT 10.0; Win64; x64) AppleWebKit/537.36 (KHTML, like Gecko) Chrome/118.0.0.0 Safari/537.36 Edg/118.0.2088.61","WebKit","Edge","118.0.2088.61","Windows","10.0","null","en-US,en;q=0.9,es;q=0.8","true","828","tones/880hz_short.mp3","s","","","empty_block","","28","","","","0","1",""
"","","","","","html-keyboard-response","44","92684","0.0-35.0-1.0","33","1","2023-10-24 18:13:33","a725c3012b74bf33a1020a98cb69c237","130.41.68.136","Mozilla/5.0 (Windows NT 10.0; Win64; x64) AppleWebKit/537.36 (KHTML, like Gecko) Chrome/118.0.0.0 Safari/537.36 Edg/118.0.2088.61","WebKit","Edge","118.0.2088.61","Windows","10.0","null","en-US,en;q=0.9,es;q=0.8","true","275","tones/880hz_short.mp3","j","","","empty_block","","28","","","","0","1",""
"","","","","","html-keyboard-response","45","95652","0.0-37.0","33","1","2023-10-24 18:13:33","a725c3012b74bf33a1020a98cb69c237","130.41.68.136","Mozilla/5.0 (Windows NT 10.0; Win64; x64) AppleWebKit/537.36 (KHTML, like Gecko) Chrome/118.0.0.0 Safari/537.36 Edg/118.0.2088.61","WebKit","Edge","118.0.2088.61","Windows","10.0","null","en-US,en;q=0.9,es;q=0.8","true","null","<div style=""font-size:100px;"">X</div>","null","","","fixation","","","","","","","",""
"","","","","","audio-keyboard-response","46","96234","0.0-38.0","33","1","2023-10-24 18:13:33","a725c3012b74bf33a1020a98cb69c237","130.41.68.136","Mozilla/5.0 (Windows NT 10.0; Win64; x64) AppleWebKit/537.36 (KHTML, like Gecko) Chrome/118.0.0.0 Safari/537.36 Edg/118.0.2088.61","WebKit","Edge","118.0.2088.61","Windows","10.0","null","en-US,en;q=0.9,es;q=0.8","true","581","tones/880hz_short.mp3","s","","","tone_number_task","1025","68","tones/880hz_short.mp3","1175","100","0","2",""
"","","","","","html-keyboard-response","47","96680","0.0-39.0-0.0","33","1","2023-10-24 18:13:33","a725c3012b74bf33a1020a98cb69c237","130.41.68.136","Mozilla/5.0 (Windows NT 10.0; Win64; x64) AppleWebKit/537.36 (KHTML, like Gecko) Chrome/118.0.0.0 Safari/537.36 Edg/118.0.2088.61","WebKit","Edge","118.0.2088.61","Windows","10.0","null","en-US,en;q=0.9,es;q=0.8","true","null","","null","","","delay_block","","","","","","0","2",""
"","","","","","html-keyboard-response","48","96833","0.0-39.0-1.0","33","1","2023-10-24 18:13:33","a725c3012b74bf33a1020a98cb69c237","130.41.68.136","Mozilla/5.0 (Windows NT 10.0; Win64; x64) AppleWebKit/537.36 (KHTML, like Gecko) Chrome/118.0.0.0 Safari/537.36 Edg/118.0.2088.61","WebKit","Edge","118.0.2088.61","Windows","10.0","null","en-US,en;q=0.9,es;q=0.8","true","null","<p id=""stimulus"" style=""font-size:100px;"">68</p>","null","","","tone_number_task_remaining_before_delay","","68","","594","100","0","2",""
"","","","","","html-keyboard-response","49","97264","0.0-42.0-0.0","33","1","2023-10-24 18:13:33","a725c3012b74bf33a1020a98cb69c237","130.41.68.136","Mozilla/5.0 (Windows NT 10.0; Win64; x64) AppleWebKit/537.36 (KHTML, like Gecko) Chrome/118.0.0.0 Safari/537.36 Edg/118.0.2088.61","WebKit","Edge","118.0.2088.61","Windows","10.0","null","en-US,en;q=0.9,es;q=0.8","true","429","<p id=""stimulus"" style=""font-size:100px;"">68</p>","k","","","empty_block","","68","","","","0","2",""
"","","","","","html-keyboard-response","50","100242","0.0-43.0","33","1","2023-10-24 18:13:33","a725c3012b74bf33a1020a98cb69c237","130.41.68.136","Mozilla/5.0 (Windows NT 10.0; Win64; x64) AppleWebKit/537.36 (KHTML, like Gecko) Chrome/118.0.0.0 Safari/537.36 Edg/118.0.2088.61","WebKit","Edge","118.0.2088.61","Windows","10.0","null","en-US,en;q=0.9,es;q=0.8","true","null","<div style=""font-size:100px;"">X</div>","null","","","fixation","","","","","","","",""
"","","","","","audio-keyboard-response","51","100789","0.0-44.0","33","1","2023-10-24 18:13:33","a725c3012b74bf33a1020a98cb69c237","130.41.68.136","Mozilla/5.0 (Windows NT 10.0; Win64; x64) AppleWebKit/537.36 (KHTML, like Gecko) Chrome/118.0.0.0 Safari/537.36 Edg/118.0.2088.61","WebKit","Edge","118.0.2088.61","Windows","10.0","null","en-US,en;q=0.9,es;q=0.8","true","552","tones/440hz_short.mp3","a","","","tone_number_task","1025","57","tones/440hz_short.mp3","1175","100","0","3",""
"","","","","","html-keyboard-response","52","101265","0.0-45.0-0.0","33","1","2023-10-24 18:13:33","a725c3012b74bf33a1020a98cb69c237","130.41.68.136","Mozilla/5.0 (Windows NT 10.0; Win64; x64) AppleWebKit/537.36 (KHTML, like Gecko) Chrome/118.0.0.0 Safari/537.36 Edg/118.0.2088.61","WebKit","Edge","118.0.2088.61","Windows","10.0","null","en-US,en;q=0.9,es;q=0.8","true","null","","null","","","delay_block","","","","","","0","3",""
"","","","","","html-keyboard-response","53","101419","0.0-45.0-1.0","33","1","2023-10-24 18:13:33","a725c3012b74bf33a1020a98cb69c237","130.41.68.136","Mozilla/5.0 (Windows NT 10.0; Win64; x64) AppleWebKit/537.36 (KHTML, like Gecko) Chrome/118.0.0.0 Safari/537.36 Edg/118.0.2088.61","WebKit","Edge","118.0.2088.61","Windows","10.0","null","en-US,en;q=0.9,es;q=0.8","true","null","<p id=""stimulus"" style=""font-size:100px;"">57</p>","null","","","tone_number_task_remaining_before_delay","","57","","623","100","0","3",""
"","","","","","html-keyboard-response","54","101960","0.0-48.0-0.0","33","1","2023-10-24 18:13:33","a725c3012b74bf33a1020a98cb69c237","130.41.68.136","Mozilla/5.0 (Windows NT 10.0; Win64; x64) AppleWebKit/537.36 (KHTML, like Gecko) Chrome/118.0.0.0 Safari/537.36 Edg/118.0.2088.61","WebKit","Edge","118.0.2088.61","Windows","10.0","null","en-US,en;q=0.9,es;q=0.8","true","539","<p id=""stimulus"" style=""font-size:100px;"">57</p>","k","","","empty_block","","57","","","","0","3",""
"","","","","","html-keyboard-response","55","104928","0.0-49.0","33","1","2023-10-24 18:13:33","a725c3012b74bf33a1020a98cb69c237","130.41.68.136","Mozilla/5.0 (Windows NT 10.0; Win64; x64) AppleWebKit/537.36 (KHTML, like Gecko) Chrome/118.0.0.0 Safari/537.36 Edg/118.0.2088.61","WebKit","Edge","118.0.2088.61","Windows","10.0","null","en-US,en;q=0.9,es;q=0.8","true","null","<div style=""font-size:100px;"">X</div>","null","","","fixation","","","","","","","",""
"","","","","","audio-keyboard-response","56","105185","0.0-50.0","33","1","2023-10-24 18:13:33","a725c3012b74bf33a1020a98cb69c237","130.41.68.136","Mozilla/5.0 (Windows NT 10.0; Win64; x64) AppleWebKit/537.36 (KHTML, like Gecko) Chrome/118.0.0.0 Safari/537.36 Edg/118.0.2088.61","WebKit","Edge","118.0.2088.61","Windows","10.0","null","en-US,en;q=0.9,es;q=0.8","true","null","tones/880hz_short.mp3","null","","","tone_number_task","102.5","66","tones/880hz_short.mp3","252.5","100","0","4",""
"","","","","","html-keyboard-response","57","105465","0.0-53.0-0.0","33","1","2023-10-24 18:13:33","a725c3012b74bf33a1020a98cb69c237","130.41.68.136","Mozilla/5.0 (Windows NT 10.0; Win64; x64) AppleWebKit/537.36 (KHTML, like Gecko) Chrome/118.0.0.0 Safari/537.36 Edg/118.0.2088.61","WebKit","Edge","118.0.2088.61","Windows","10.0","null","en-US,en;q=0.9,es;q=0.8","true","277","tones/880hz_short.mp3","s","","","empty_block","","66","","","","0","4",""
"","","","","","html-keyboard-response","58","105765","0.0-53.0-1.0","33","1","2023-10-24 18:13:33","a725c3012b74bf33a1020a98cb69c237","130.41.68.136","Mozilla/5.0 (Windows NT 10.0; Win64; x64) AppleWebKit/537.36 (KHTML, like Gecko) Chrome/118.0.0.0 Safari/537.36 Edg/118.0.2088.61","WebKit","Edge","118.0.2088.61","Windows","10.0","null","en-US,en;q=0.9,es;q=0.8","true","299","tones/880hz_short.mp3","k","","","empty_block","","66","","","","0","4",""
"","","","","","html-keyboard-response","59","108735","0.0-55.0","33","1","2023-10-24 18:13:33","a725c3012b74bf33a1020a98cb69c237","130.41.68.136","Mozilla/5.0 (Windows NT 10.0; Win64; x64) AppleWebKit/537.36 (KHTML, like Gecko) Chrome/118.0.0.0 Safari/537.36 Edg/118.0.2088.61","WebKit","Edge","118.0.2088.61","Windows","10.0","null","en-US,en;q=0.9,es;q=0.8","true","null","<div style=""font-size:100px;"">X</div>","null","","","fixation","","","","","","","",""
"","","","","","audio-keyboard-response","60","109158","0.0-56.0","33","1","2023-10-24 18:13:33","a725c3012b74bf33a1020a98cb69c237","130.41.68.136","Mozilla/5.0 (Windows NT 10.0; Win64; x64) AppleWebKit/537.36 (KHTML, like Gecko) Chrome/118.0.0.0 Safari/537.36 Edg/118.0.2088.61","WebKit","Edge","118.0.2088.61","Windows","10.0","null","en-US,en;q=0.9,es;q=0.8","true","419","tones/880hz_short.mp3","s","","","tone_number_task","992.5","57","tones/880hz_short.mp3","1142.5","100","0","5",""
"","","","","","html-keyboard-response","61","109735","0.0-57.0-0.0","33","1","2023-10-24 18:13:33","a725c3012b74bf33a1020a98cb69c237","130.41.68.136","Mozilla/5.0 (Windows NT 10.0; Win64; x64) AppleWebKit/537.36 (KHTML, like Gecko) Chrome/118.0.0.0 Safari/537.36 Edg/118.0.2088.61","WebKit","Edge","118.0.2088.61","Windows","10.0","null","en-US,en;q=0.9,es;q=0.8","true","null","","null","","","delay_block","","","","","","0","5",""
"","","","","","html-keyboard-response","62","109889","0.0-57.0-1.0","33","1","2023-10-24 18:13:33","a725c3012b74bf33a1020a98cb69c237","130.41.68.136","Mozilla/5.0 (Windows NT 10.0; Win64; x64) AppleWebKit/537.36 (KHTML, like Gecko) Chrome/118.0.0.0 Safari/537.36 Edg/118.0.2088.61","WebKit","Edge","118.0.2088.61","Windows","10.0","null","en-US,en;q=0.9,es;q=0.8","true","null","<p id=""stimulus"" style=""font-size:100px;"">57</p>","null","","","tone_number_task_remaining_before_delay","","57","","723.5","100","0","5",""
"","","","","","html-keyboard-response","63","110205","0.0-60.0-0.0","33","1","2023-10-24 18:13:33","a725c3012b74bf33a1020a98cb69c237","130.41.68.136","Mozilla/5.0 (Windows NT 10.0; Win64; x64) AppleWebKit/537.36 (KHTML, like Gecko) Chrome/118.0.0.0 Safari/537.36 Edg/118.0.2088.61","WebKit","Edge","118.0.2088.61","Windows","10.0","null","en-US,en;q=0.9,es;q=0.8","true","314","<p id=""stimulus"" style=""font-size:100px;"">57</p>","k","","","empty_block","","57","","","","0","5",""
"","","","","","html-keyboard-response","64","113175","0.0-61.0","33","1","2023-10-24 18:13:33","a725c3012b74bf33a1020a98cb69c237","130.41.68.136","Mozilla/5.0 (Windows NT 10.0; Win64; x64) AppleWebKit/537.36 (KHTML, like Gecko) Chrome/118.0.0.0 Safari/537.36 Edg/118.0.2088.61","WebKit","Edge","118.0.2088.61","Windows","10.0","null","en-US,en;q=0.9,es;q=0.8","true","null","<div style=""font-size:100px;"">X</div>","null","","","fixation","","","","","","","",""
"","","","","","audio-keyboard-response","65","113809","0.0-62.0","33","1","2023-10-24 18:13:33","a725c3012b74bf33a1020a98cb69c237","130.41.68.136","Mozilla/5.0 (Windows NT 10.0; Win64; x64) AppleWebKit/537.36 (KHTML, like Gecko) Chrome/118.0.0.0 Safari/537.36 Edg/118.0.2088.61","WebKit","Edge","118.0.2088.61","Windows","10.0","null","en-US,en;q=0.9,es;q=0.8","true","629","tones/440hz_short.mp3","a","","","tone_number_task","992.5","42","tones/440hz_short.mp3","1142.5","100","0","6",""
"","","","","","html-keyboard-response","66","114176","0.0-63.0-0.0","33","1","2023-10-24 18:13:33","a725c3012b74bf33a1020a98cb69c237","130.41.68.136","Mozilla/5.0 (Windows NT 10.0; Win64; x64) AppleWebKit/537.36 (KHTML, like Gecko) Chrome/118.0.0.0 Safari/537.36 Edg/118.0.2088.61","WebKit","Edge","118.0.2088.61","Windows","10.0","null","en-US,en;q=0.9,es;q=0.8","true","null","","null","","","delay_block","","","","","","0","6",""
"","","","","","html-keyboard-response","67","114329","0.0-63.0-1.0","33","1","2023-10-24 18:13:33","a725c3012b74bf33a1020a98cb69c237","130.41.68.136","Mozilla/5.0 (Windows NT 10.0; Win64; x64) AppleWebKit/537.36 (KHTML, like Gecko) Chrome/118.0.0.0 Safari/537.36 Edg/118.0.2088.61","WebKit","Edge","118.0.2088.61","Windows","10.0","null","en-US,en;q=0.9,es;q=0.8","true","null","<p id=""stimulus"" style=""font-size:100px;"">42</p>","null","","","tone_number_task_remaining_before_delay","","42","","513.5","100","0","6",""
"","","","","","html-keyboard-response","68","114610","0.0-66.0-0.0","33","1","2023-10-24 18:13:33","a725c3012b74bf33a1020a98cb69c237","130.41.68.136","Mozilla/5.0 (Windows NT 10.0; Win64; x64) AppleWebKit/537.36 (KHTML, like Gecko) Chrome/118.0.0.0 Safari/537.36 Edg/118.0.2088.61","WebKit","Edge","118.0.2088.61","Windows","10.0","null","en-US,en;q=0.9,es;q=0.8","true","279","<p id=""stimulus"" style=""font-size:100px;"">42</p>","j","","","empty_block","","42","","","","0","6",""
"","","","","","html-keyboard-response","69","117580","0.0-67.0","33","1","2023-10-24 18:13:33","a725c3012b74bf33a1020a98cb69c237","130.41.68.136","Mozilla/5.0 (Windows NT 10.0; Win64; x64) AppleWebKit/537.36 (KHTML, like Gecko) Chrome/118.0.0.0 Safari/537.36 Edg/118.0.2088.61","WebKit","Edge","118.0.2088.61","Windows","10.0","null","en-US,en;q=0.9,es;q=0.8","true","null","<div style=""font-size:100px;"">X</div>","null","","","fixation","","","","","","","",""
"","","","","","audio-keyboard-response","70","117745","0.0-68.0","33","1","2023-10-24 18:13:33","a725c3012b74bf33a1020a98cb69c237","130.41.68.136","Mozilla/5.0 (Windows NT 10.0; Win64; x64) AppleWebKit/537.36 (KHTML, like Gecko) Chrome/118.0.0.0 Safari/537.36 Edg/118.0.2088.61","WebKit","Edge","118.0.2088.61","Windows","10.0","null","en-US,en;q=0.9,es;q=0.8","true","null","tones/880hz_short.mp3","null","","","tone_number_task","0","67","tones/880hz_short.mp3","150","100","0","7",""
"","","","","","html-keyboard-response","71","118389","0.0-71.0-0.0","33","1","2023-10-24 18:13:33","a725c3012b74bf33a1020a98cb69c237","130.41.68.136","Mozilla/5.0 (Windows NT 10.0; Win64; x64) AppleWebKit/537.36 (KHTML, like Gecko) Chrome/118.0.0.0 Safari/537.36 Edg/118.0.2088.61","WebKit","Edge","118.0.2088.61","Windows","10.0","null","en-US,en;q=0.9,es;q=0.8","true","641","tones/880hz_short.mp3","s","","","empty_block","","67","","","","0","7",""
"","","","","","html-keyboard-response","72","118677","0.0-71.0-1.0","33","1","2023-10-24 18:13:33","a725c3012b74bf33a1020a98cb69c237","130.41.68.136","Mozilla/5.0 (Windows NT 10.0; Win64; x64) AppleWebKit/537.36 (KHTML, like Gecko) Chrome/118.0.0.0 Safari/537.36 Edg/118.0.2088.61","WebKit","Edge","118.0.2088.61","Windows","10.0","null","en-US,en;q=0.9,es;q=0.8","true","286","tones/880hz_short.mp3","k","","","empty_block","","67","","","","0","7",""
"","","","","","html-keyboard-response","73","121659","0.0-73.0","33","1","2023-10-24 18:13:33","a725c3012b74bf33a1020a98cb69c237","130.41.68.136","Mozilla/5.0 (Windows NT 10.0; Win64; x64) AppleWebKit/537.36 (KHTML, like Gecko) Chrome/118.0.0.0 Safari/537.36 Edg/118.0.2088.61","WebKit","Edge","118.0.2088.61","Windows","10.0","null","en-US,en;q=0.9,es;q=0.8","true","null","<div style=""font-size:100px;"">X</div>","null","","","fixation","","","","","","","",""
"","","","","","audio-keyboard-response","74","121812","0.0-74.0","33","1","2023-10-24 18:13:33","a725c3012b74bf33a1020a98cb69c237","130.41.68.136","Mozilla/5.0 (Windows NT 10.0; Win64; x64) AppleWebKit/537.36 (KHTML, like Gecko) Chrome/118.0.0.0 Safari/537.36 Edg/118.0.2088.61","WebKit","Edge","118.0.2088.61","Windows","10.0","null","en-US,en;q=0.9,es;q=0.8","true","null","tones/440hz_short.mp3","null","","","tone_number_task","0","54","tones/440hz_short.mp3","150","100","0","8",""
"","","","","","html-keyboard-response","75","122866","0.0-77.0-0.0","33","1","2023-10-24 18:13:33","a725c3012b74bf33a1020a98cb69c237","130.41.68.136","Mozilla/5.0 (Windows NT 10.0; Win64; x64) AppleWebKit/537.36 (KHTML, like Gecko) Chrome/118.0.0.0 Safari/537.36 Edg/118.0.2088.61","WebKit","Edge","118.0.2088.61","Windows","10.0","null","en-US,en;q=0.9,es;q=0.8","true","1053","tones/440hz_short.mp3","a","","","empty_block","","54","","","","0","8",""
"","","","","","html-keyboard-response","76","123081","0.0-77.0-1.0","33","1","2023-10-24 18:13:33","a725c3012b74bf33a1020a98cb69c237","130.41.68.136","Mozilla/5.0 (Windows NT 10.0; Win64; x64) AppleWebKit/537.36 (KHTML, like Gecko) Chrome/118.0.0.0 Safari/537.36 Edg/118.0.2088.61","WebKit","Edge","118.0.2088.61","Windows","10.0","null","en-US,en;q=0.9,es;q=0.8","true","213","tones/440hz_short.mp3","j","","","empty_block","","54","","","","0","8",""
"","","","","","html-keyboard-response","77","126051","0.0-79.0","33","1","2023-10-24 18:13:33","a725c3012b74bf33a1020a98cb69c237","130.41.68.136","Mozilla/5.0 (Windows NT 10.0; Win64; x64) AppleWebKit/537.36 (KHTML, like Gecko) Chrome/118.0.0.0 Safari/537.36 Edg/118.0.2088.61","WebKit","Edge","118.0.2088.61","Windows","10.0","null","en-US,en;q=0.9,es;q=0.8","true","null","<div style=""font-size:100px;"">X</div>","null","","","fixation","","","","","","","",""
"","","","","","audio-keyboard-response","78","126774","0.0-80.0","33","1","2023-10-24 18:13:33","a725c3012b74bf33a1020a98cb69c237","130.41.68.136","Mozilla/5.0 (Windows NT 10.0; Win64; x64) AppleWebKit/537.36 (KHTML, like Gecko) Chrome/118.0.0.0 Safari/537.36 Edg/118.0.2088.61","WebKit","Edge","118.0.2088.61","Windows","10.0","null","en-US,en;q=0.9,es;q=0.8","true","720","tones/440hz_short.mp3","a","","","tone_number_task","1025","24","tones/440hz_short.mp3","1175","100","0","9",""
"","","","","","html-keyboard-response","79","127082","0.0-81.0-0.0","33","1","2023-10-24 18:13:33","a725c3012b74bf33a1020a98cb69c237","130.41.68.136","Mozilla/5.0 (Windows NT 10.0; Win64; x64) AppleWebKit/537.36 (KHTML, like Gecko) Chrome/118.0.0.0 Safari/537.36 Edg/118.0.2088.61","WebKit","Edge","118.0.2088.61","Windows","10.0","null","en-US,en;q=0.9,es;q=0.8","true","null","","null","","","delay_block","","","","","","0","9",""
"","","","","","html-keyboard-response","80","127236","0.0-81.0-1.0","33","1","2023-10-24 18:13:33","a725c3012b74bf33a1020a98cb69c237","130.41.68.136","Mozilla/5.0 (Windows NT 10.0; Win64; x64) AppleWebKit/537.36 (KHTML, like Gecko) Chrome/118.0.0.0 Safari/537.36 Edg/118.0.2088.61","WebKit","Edge","118.0.2088.61","Windows","10.0","null","en-US,en;q=0.9,es;q=0.8","true","null","<p id=""stimulus"" style=""font-size:100px;"">24</p>","null","","","tone_number_task_remaining_before_delay","","24","","455","100","0","9",""
"","","","","","html-keyboard-response","81","127407","0.0-84.0-0.0","33","1","2023-10-24 18:13:33","a725c3012b74bf33a1020a98cb69c237","130.41.68.136","Mozilla/5.0 (Windows NT 10.0; Win64; x64) AppleWebKit/537.36 (KHTML, like Gecko) Chrome/118.0.0.0 Safari/537.36 Edg/118.0.2088.61","WebKit","Edge","118.0.2088.61","Windows","10.0","null","en-US,en;q=0.9,es;q=0.8","true","168","<p id=""stimulus"" style=""font-size:100px;"">24</p>","j","","","empty_block","","24","","","","0","9",""
"","","","","","html-keyboard-response","82","130378","0.0-85.0","33","1","2023-10-24 18:13:33","a725c3012b74bf33a1020a98cb69c237","130.41.68.136","Mozilla/5.0 (Windows NT 10.0; Win64; x64) AppleWebKit/537.36 (KHTML, like Gecko) Chrome/118.0.0.0 Safari/537.36 Edg/118.0.2088.61","WebKit","Edge","118.0.2088.61","Windows","10.0","null","en-US,en;q=0.9,es;q=0.8","true","null","<div style=""font-size:100px;"">X</div>","null","","","fixation","","","","","","","",""
"","","","","","audio-keyboard-response","83","131185","0.0-86.0","33","1","2023-10-24 18:13:33","a725c3012b74bf33a1020a98cb69c237","130.41.68.136","Mozilla/5.0 (Windows NT 10.0; Win64; x64) AppleWebKit/537.36 (KHTML, like Gecko) Chrome/118.0.0.0 Safari/537.36 Edg/118.0.2088.61","WebKit","Edge","118.0.2088.61","Windows","10.0","null","en-US,en;q=0.9,es;q=0.8","true","800","tones/440hz_short.mp3","a","","","tone_number_task","992.5","48","tones/440hz_short.mp3","1142.5","100","0","10",""
"","","","","","html-keyboard-response","84","131379","0.0-87.0-0.0","33","1","2023-10-24 18:13:33","a725c3012b74bf33a1020a98cb69c237","130.41.68.136","Mozilla/5.0 (Windows NT 10.0; Win64; x64) AppleWebKit/537.36 (KHTML, like Gecko) Chrome/118.0.0.0 Safari/537.36 Edg/118.0.2088.61","WebKit","Edge","118.0.2088.61","Windows","10.0","null","en-US,en;q=0.9,es;q=0.8","true","null","","null","","","delay_block","","","","","","0","10",""
"","","","","","html-keyboard-response","85","131532","0.0-87.0-1.0","33","1","2023-10-24 18:13:33","a725c3012b74bf33a1020a98cb69c237","130.41.68.136","Mozilla/5.0 (Windows NT 10.0; Win64; x64) AppleWebKit/537.36 (KHTML, like Gecko) Chrome/118.0.0.0 Safari/537.36 Edg/118.0.2088.61","WebKit","Edge","118.0.2088.61","Windows","10.0","null","en-US,en;q=0.9,es;q=0.8","true","null","<p id=""stimulus"" style=""font-size:100px;"">48</p>","null","","","tone_number_task_remaining_before_delay","","48","","342.5","100","0","10",""
"","","","","","html-keyboard-response","86","132265","0.0-90.0-0.0","33","1","2023-10-24 18:13:33","a725c3012b74bf33a1020a98cb69c237","130.41.68.136","Mozilla/5.0 (Windows NT 10.0; Win64; x64) AppleWebKit/537.36 (KHTML, like Gecko) Chrome/118.0.0.0 Safari/537.36 Edg/118.0.2088.61","WebKit","Edge","118.0.2088.61","Windows","10.0","null","en-US,en;q=0.9,es;q=0.8","true","732","<p id=""stimulus"" style=""font-size:100px;"">48</p>","k","","","empty_block","","48","","","","0","10",""
"","","","","","html-keyboard-response","87","135233","0.0-91.0","33","1","2023-10-24 18:13:33","a725c3012b74bf33a1020a98cb69c237","130.41.68.136","Mozilla/5.0 (Windows NT 10.0; Win64; x64) AppleWebKit/537.36 (KHTML, like Gecko) Chrome/118.0.0.0 Safari/537.36 Edg/118.0.2088.61","WebKit","Edge","118.0.2088.61","Windows","10.0","null","en-US,en;q=0.9,es;q=0.8","true","null","<div style=""font-size:100px;"">X</div>","null","","","fixation","","","","","","","",""
"","","","","","audio-keyboard-response","88","136006","0.0-92.0","33","1","2023-10-24 18:13:33","a725c3012b74bf33a1020a98cb69c237","130.41.68.136","Mozilla/5.0 (Windows NT 10.0; Win64; x64) AppleWebKit/537.36 (KHTML, like Gecko) Chrome/118.0.0.0 Safari/537.36 Edg/118.0.2088.61","WebKit","Edge","118.0.2088.61","Windows","10.0","null","en-US,en;q=0.9,es;q=0.8","true","771","tones/440hz_short.mp3","a","","","tone_number_task","992.5","63","tones/440hz_short.mp3","1142.5","100","0","11",""
"","","","","","html-keyboard-response","89","136231","0.0-93.0-0.0","33","1","2023-10-24 18:13:33","a725c3012b74bf33a1020a98cb69c237","130.41.68.136","Mozilla/5.0 (Windows NT 10.0; Win64; x64) AppleWebKit/537.36 (KHTML, like Gecko) Chrome/118.0.0.0 Safari/537.36 Edg/118.0.2088.61","WebKit","Edge","118.0.2088.61","Windows","10.0","null","en-US,en;q=0.9,es;q=0.8","true","null","","null","","","delay_block","","","","","","0","11",""
"","","","","","html-keyboard-response","90","136386","0.0-93.0-1.0","33","1","2023-10-24 18:13:33","a725c3012b74bf33a1020a98cb69c237","130.41.68.136","Mozilla/5.0 (Windows NT 10.0; Win64; x64) AppleWebKit/537.36 (KHTML, like Gecko) Chrome/118.0.0.0 Safari/537.36 Edg/118.0.2088.61","WebKit","Edge","118.0.2088.61","Windows","10.0","null","en-US,en;q=0.9,es;q=0.8","true","null","<p id=""stimulus"" style=""font-size:100px;"">63</p>","null","","","tone_number_task_remaining_before_delay","","63","","371.5","100","0","11",""
"","","","","","html-keyboard-response","91","136790","0.0-96.0-0.0","33","1","2023-10-24 18:13:33","a725c3012b74bf33a1020a98cb69c237","130.41.68.136","Mozilla/5.0 (Windows NT 10.0; Win64; x64) AppleWebKit/537.36 (KHTML, like Gecko) Chrome/118.0.0.0 Safari/537.36 Edg/118.0.2088.61","WebKit","Edge","118.0.2088.61","Windows","10.0","null","en-US,en;q=0.9,es;q=0.8","true","402","<p id=""stimulus"" style=""font-size:100px;"">63</p>","k","","","empty_block","","63","","","","0","11",""
"","","","","","html-keyboard-response","92","139760","0.0-97.0","33","1","2023-10-24 18:13:33","a725c3012b74bf33a1020a98cb69c237","130.41.68.136","Mozilla/5.0 (Windows NT 10.0; Win64; x64) AppleWebKit/537.36 (KHTML, like Gecko) Chrome/118.0.0.0 Safari/537.36 Edg/118.0.2088.61","WebKit","Edge","118.0.2088.61","Windows","10.0","null","en-US,en;q=0.9,es;q=0.8","true","null","<div style=""font-size:100px;"">X</div>","null","","","fixation","","","","","","","",""
"","","","","","audio-keyboard-response","93","140499","0.0-98.0","33","1","2023-10-24 18:13:33","a725c3012b74bf33a1020a98cb69c237","130.41.68.136","Mozilla/5.0 (Windows NT 10.0; Win64; x64) AppleWebKit/537.36 (KHTML, like Gecko) Chrome/118.0.0.0 Safari/537.36 Edg/118.0.2088.61","WebKit","Edge","118.0.2088.61","Windows","10.0","null","en-US,en;q=0.9,es;q=0.8","true","741","tones/880hz_short.mp3","s","","","tone_number_task","1025","51","tones/880hz_short.mp3","1175","100","0","12",""
"","","","","","html-keyboard-response","94","140787","0.0-99.0-0.0","33","1","2023-10-24 18:13:33","a725c3012b74bf33a1020a98cb69c237","130.41.68.136","Mozilla/5.0 (Windows NT 10.0; Win64; x64) AppleWebKit/537.36 (KHTML, like Gecko) Chrome/118.0.0.0 Safari/537.36 Edg/118.0.2088.61","WebKit","Edge","118.0.2088.61","Windows","10.0","null","en-US,en;q=0.9,es;q=0.8","true","null","","null","","","delay_block","","","","","","0","12",""
"","","","","","html-keyboard-response","95","140940","0.0-99.0-1.0","33","1","2023-10-24 18:13:33","a725c3012b74bf33a1020a98cb69c237","130.41.68.136","Mozilla/5.0 (Windows NT 10.0; Win64; x64) AppleWebKit/537.36 (KHTML, like Gecko) Chrome/118.0.0.0 Safari/537.36 Edg/118.0.2088.61","WebKit","Edge","118.0.2088.61","Windows","10.0","null","en-US,en;q=0.9,es;q=0.8","true","null","<p id=""stimulus"" style=""font-size:100px;"">51</p>","null","","","tone_number_task_remaining_before_delay","","51","","434","100","0","12",""
"","","","","","html-keyboard-response","96","141508","0.0-102.0-0.0","33","1","2023-10-24 18:13:33","a725c3012b74bf33a1020a98cb69c237","130.41.68.136","Mozilla/5.0 (Windows NT 10.0; Win64; x64) AppleWebKit/537.36 (KHTML, like Gecko) Chrome/118.0.0.0 Safari/537.36 Edg/118.0.2088.61","WebKit","Edge","118.0.2088.61","Windows","10.0","null","en-US,en;q=0.9,es;q=0.8","true","567","<p id=""stimulus"" style=""font-size:100px;"">51</p>","k","","","empty_block","","51","","","","0","12",""
"","","","","","html-keyboard-response","97","144477","0.0-103.0","33","1","2023-10-24 18:13:33","a725c3012b74bf33a1020a98cb69c237","130.41.68.136","Mozilla/5.0 (Windows NT 10.0; Win64; x64) AppleWebKit/537.36 (KHTML, like Gecko) Chrome/118.0.0.0 Safari/537.36 Edg/118.0.2088.61","WebKit","Edge","118.0.2088.61","Windows","10.0","null","en-US,en;q=0.9,es;q=0.8","true","null","<div style=""font-size:100px;"">X</div>","null","","","fixation","","","","","","","",""
"","","","","","audio-keyboard-response","98","145017","0.0-104.0","33","1","2023-10-24 18:13:33","a725c3012b74bf33a1020a98cb69c237","130.41.68.136","Mozilla/5.0 (Windows NT 10.0; Win64; x64) AppleWebKit/537.36 (KHTML, like Gecko) Chrome/118.0.0.0 Safari/537.36 Edg/118.0.2088.61","WebKit","Edge","118.0.2088.61","Windows","10.0","null","en-US,en;q=0.9,es;q=0.8","true","541","tones/880hz_short.mp3","s","","","tone_number_task","1025","57","tones/880hz_short.mp3","1175","100","0","13",""
"","","","","","html-keyboard-response","99","145506","0.0-105.0-0.0","33","1","2023-10-24 18:13:33","a725c3012b74bf33a1020a98cb69c237","130.41.68.136","Mozilla/5.0 (Windows NT 10.0; Win64; x64) AppleWebKit/537.36 (KHTML, like Gecko) Chrome/118.0.0.0 Safari/537.36 Edg/118.0.2088.61","WebKit","Edge","118.0.2088.61","Windows","10.0","null","en-US,en;q=0.9,es;q=0.8","true","null","","null","","","delay_block","","","","","","0","13",""
"","","","","","html-keyboard-response","100","145661","0.0-105.0-1.0","33","1","2023-10-24 18:13:33","a725c3012b74bf33a1020a98cb69c237","130.41.68.136","Mozilla/5.0 (Windows NT 10.0; Win64; x64) AppleWebKit/537.36 (KHTML, like Gecko) Chrome/118.0.0.0 Safari/537.36 Edg/118.0.2088.61","WebKit","Edge","118.0.2088.61","Windows","10.0","null","en-US,en;q=0.9,es;q=0.8","true","null","<p id=""stimulus"" style=""font-size:100px;"">57</p>","null","","","tone_number_task_remaining_before_delay","","57","","634","100","0","13",""
"","","","","","html-keyboard-response","101","146077","0.0-108.0-0.0","33","1","2023-10-24 18:13:33","a725c3012b74bf33a1020a98cb69c237","130.41.68.136","Mozilla/5.0 (Windows NT 10.0; Win64; x64) AppleWebKit/537.36 (KHTML, like Gecko) Chrome/118.0.0.0 Safari/537.36 Edg/118.0.2088.61","WebKit","Edge","118.0.2088.61","Windows","10.0","null","en-US,en;q=0.9,es;q=0.8","true","414","<p id=""stimulus"" style=""font-size:100px;"">57</p>","k","","","empty_block","","57","","","","0","13",""
"","","","","","html-keyboard-response","102","149046","0.0-109.0","33","1","2023-10-24 18:13:33","a725c3012b74bf33a1020a98cb69c237","130.41.68.136","Mozilla/5.0 (Windows NT 10.0; Win64; x64) AppleWebKit/537.36 (KHTML, like Gecko) Chrome/118.0.0.0 Safari/537.36 Edg/118.0.2088.61","WebKit","Edge","118.0.2088.61","Windows","10.0","null","en-US,en;q=0.9,es;q=0.8","true","null","<div style=""font-size:100px;"">X</div>","null","","","fixation","","","","","","","",""
"","","","","","audio-keyboard-response","103","149201","0.0-110.0","33","1","2023-10-24 18:13:33","a725c3012b74bf33a1020a98cb69c237","130.41.68.136","Mozilla/5.0 (Windows NT 10.0; Win64; x64) AppleWebKit/537.36 (KHTML, like Gecko) Chrome/118.0.0.0 Safari/537.36 Edg/118.0.2088.61","WebKit","Edge","118.0.2088.61","Windows","10.0","null","en-US,en;q=0.9,es;q=0.8","true","null","tones/880hz_short.mp3","null","","","tone_number_task","0","33","tones/880hz_short.mp3","150","100","0","14",""
"","","","","","html-keyboard-response","104","150051","0.0-113.0-0.0","33","1","2023-10-24 18:13:33","a725c3012b74bf33a1020a98cb69c237","130.41.68.136","Mozilla/5.0 (Windows NT 10.0; Win64; x64) AppleWebKit/537.36 (KHTML, like Gecko) Chrome/118.0.0.0 Safari/537.36 Edg/118.0.2088.61","WebKit","Edge","118.0.2088.61","Windows","10.0","null","en-US,en;q=0.9,es;q=0.8","true","846","tones/880hz_short.mp3","s","","","empty_block","","33","","","","0","14",""
"","","","","","html-keyboard-response","105","150325","0.0-113.0-1.0","33","1","2023-10-24 18:13:33","a725c3012b74bf33a1020a98cb69c237","130.41.68.136","Mozilla/5.0 (Windows NT 10.0; Win64; x64) AppleWebKit/537.36 (KHTML, like Gecko) Chrome/118.0.0.0 Safari/537.36 Edg/118.0.2088.61","WebKit","Edge","118.0.2088.61","Windows","10.0","null","en-US,en;q=0.9,es;q=0.8","true","272","tones/880hz_short.mp3","j","","","empty_block","","33","","","","0","14",""
"","","","","","html-keyboard-response","106","153294","0.0-115.0","33","1","2023-10-24 18:13:33","a725c3012b74bf33a1020a98cb69c237","130.41.68.136","Mozilla/5.0 (Windows NT 10.0; Win64; x64) AppleWebKit/537.36 (KHTML, like Gecko) Chrome/118.0.0.0 Safari/537.36 Edg/118.0.2088.61","WebKit","Edge","118.0.2088.61","Windows","10.0","null","en-US,en;q=0.9,es;q=0.8","true","null","<div style=""font-size:100px;"">X</div>","null","","","fixation","","","","","","","",""
"","","","","","audio-keyboard-response","107","153450","0.0-116.0","33","1","2023-10-24 18:13:33","a725c3012b74bf33a1020a98cb69c237","130.41.68.136","Mozilla/5.0 (Windows NT 10.0; Win64; x64) AppleWebKit/537.36 (KHTML, like Gecko) Chrome/118.0.0.0 Safari/537.36 Edg/118.0.2088.61","WebKit","Edge","118.0.2088.61","Windows","10.0","null","en-US,en;q=0.9,es;q=0.8","true","null","tones/880hz_short.mp3","null","","","tone_number_task","0","68","tones/880hz_short.mp3","150","100","0","15",""
"","","","","","html-keyboard-response","108","154147","0.0-119.0-0.0","33","1","2023-10-24 18:13:33","a725c3012b74bf33a1020a98cb69c237","130.41.68.136","Mozilla/5.0 (Windows NT 10.0; Win64; x64) AppleWebKit/537.36 (KHTML, like Gecko) Chrome/118.0.0.0 Safari/537.36 Edg/118.0.2088.61","WebKit","Edge","118.0.2088.61","Windows","10.0","null","en-US,en;q=0.9,es;q=0.8","true","692","tones/880hz_short.mp3","s","","","empty_block","","68","","","","0","15",""
"","","","","","html-keyboard-response","109","154366","0.0-119.0-1.0","33","1","2023-10-24 18:13:33","a725c3012b74bf33a1020a98cb69c237","130.41.68.136","Mozilla/5.0 (Windows NT 10.0; Win64; x64) AppleWebKit/537.36 (KHTML, like Gecko) Chrome/118.0.0.0 Safari/537.36 Edg/118.0.2088.61","WebKit","Edge","118.0.2088.61","Windows","10.0","null","en-US,en;q=0.9,es;q=0.8","true","217","tones/880hz_short.mp3","k","","","empty_block","","68","","","","0","15",""
"","","","","","html-keyboard-response","110","157334","0.0-121.0","33","1","2023-10-24 18:13:33","a725c3012b74bf33a1020a98cb69c237","130.41.68.136","Mozilla/5.0 (Windows NT 10.0; Win64; x64) AppleWebKit/537.36 (KHTML, like Gecko) Chrome/118.0.0.0 Safari/537.36 Edg/118.0.2088.61","WebKit","Edge","118.0.2088.61","Windows","10.0","null","en-US,en;q=0.9,es;q=0.8","true","null","<div style=""font-size:100px;"">X</div>","null","","","fixation","","","","","","","",""
"","","","","","audio-keyboard-response","111","158001","0.0-122.0","33","1","2023-10-24 18:13:33","a725c3012b74bf33a1020a98cb69c237","130.41.68.136","Mozilla/5.0 (Windows NT 10.0; Win64; x64) AppleWebKit/537.36 (KHTML, like Gecko) Chrome/118.0.0.0 Safari/537.36 Edg/118.0.2088.61","WebKit","Edge","118.0.2088.61","Windows","10.0","null","en-US,en;q=0.9,es;q=0.8","true","659","tones/880hz_short.mp3","s","","","tone_number_task","992.5","65","tones/880hz_short.mp3","1142.5","100","0","16",""
"","","","","","html-keyboard-response","112","158339","0.0-123.0-0.0","33","1","2023-10-24 18:13:33","a725c3012b74bf33a1020a98cb69c237","130.41.68.136","Mozilla/5.0 (Windows NT 10.0; Win64; x64) AppleWebKit/537.36 (KHTML, like Gecko) Chrome/118.0.0.0 Safari/537.36 Edg/118.0.2088.61","WebKit","Edge","118.0.2088.61","Windows","10.0","null","en-US,en;q=0.9,es;q=0.8","true","null","","null","","","delay_block","","","","","","0","16",""
"","","","","","html-keyboard-response","113","158494","0.0-123.0-1.0","33","1","2023-10-24 18:13:33","a725c3012b74bf33a1020a98cb69c237","130.41.68.136","Mozilla/5.0 (Windows NT 10.0; Win64; x64) AppleWebKit/537.36 (KHTML, like Gecko) Chrome/118.0.0.0 Safari/537.36 Edg/118.0.2088.61","WebKit","Edge","118.0.2088.61","Windows","10.0","null","en-US,en;q=0.9,es;q=0.8","true","null","<p id=""stimulus"" style=""font-size:100px;"">65</p>","null","","","tone_number_task_remaining_before_delay","","65","","483.5","100","0","16",""
"","","","","","html-keyboard-response","114","159011","0.0-126.0-0.0","33","1","2023-10-24 18:13:33","a725c3012b74bf33a1020a98cb69c237","130.41.68.136","Mozilla/5.0 (Windows NT 10.0; Win64; x64) AppleWebKit/537.36 (KHTML, like Gecko) Chrome/118.0.0.0 Safari/537.36 Edg/118.0.2088.61","WebKit","Edge","118.0.2088.61","Windows","10.0","null","en-US,en;q=0.9,es;q=0.8","true","512","<p id=""stimulus"" style=""font-size:100px;"">65</p>","k","","","empty_block","","65","","","","0","16",""
"","","","","","html-keyboard-response","115","161982","0.0-127.0","33","1","2023-10-24 18:13:33","a725c3012b74bf33a1020a98cb69c237","130.41.68.136","Mozilla/5.0 (Windows NT 10.0; Win64; x64) AppleWebKit/537.36 (KHTML, like Gecko) Chrome/118.0.0.0 Safari/537.36 Edg/118.0.2088.61","WebKit","Edge","118.0.2088.61","Windows","10.0","null","en-US,en;q=0.9,es;q=0.8","true","null","<div style=""font-size:100px;"">X</div>","null","","","fixation","","","","","","","",""
"","","","","","audio-keyboard-response","116","162137","0.0-128.0","33","1","2023-10-24 18:13:33","a725c3012b74bf33a1020a98cb69c237","130.41.68.136","Mozilla/5.0 (Windows NT 10.0; Win64; x64) AppleWebKit/537.36 (KHTML, like Gecko) Chrome/118.0.0.0 Safari/537.36 Edg/118.0.2088.61","WebKit","Edge","118.0.2088.61","Windows","10.0","null","en-US,en;q=0.9,es;q=0.8","true","null","tones/880hz_short.mp3","null","","","tone_number_task","0","60","tones/880hz_short.mp3","150","100","0","17",""
"","","","","","html-keyboard-response","117","162569","0.0-131.0-0.0","33","1","2023-10-24 18:13:33","a725c3012b74bf33a1020a98cb69c237","130.41.68.136","Mozilla/5.0 (Windows NT 10.0; Win64; x64) AppleWebKit/537.36 (KHTML, like Gecko) Chrome/118.0.0.0 Safari/537.36 Edg/118.0.2088.61","WebKit","Edge","118.0.2088.61","Windows","10.0","null","en-US,en;q=0.9,es;q=0.8","true","427","tones/880hz_short.mp3","s","","","empty_block","","60","","","","0","17",""
"","","","","","html-keyboard-response","118","162866","0.0-131.0-1.0","33","1","2023-10-24 18:13:33","a725c3012b74bf33a1020a98cb69c237","130.41.68.136","Mozilla/5.0 (Windows NT 10.0; Win64; x64) AppleWebKit/537.36 (KHTML, like Gecko) Chrome/118.0.0.0 Safari/537.36 Edg/118.0.2088.61","WebKit","Edge","118.0.2088.61","Windows","10.0","null","en-US,en;q=0.9,es;q=0.8","true","293","tones/880hz_short.mp3","k","","","empty_block","","60","","","","0","17",""
"","","","","","html-keyboard-response","119","165838","0.0-133.0","33","1","2023-10-24 18:13:33","a725c3012b74bf33a1020a98cb69c237","130.41.68.136","Mozilla/5.0 (Windows NT 10.0; Win64; x64) AppleWebKit/537.36 (KHTML, like Gecko) Chrome/118.0.0.0 Safari/537.36 Edg/118.0.2088.61","WebKit","Edge","118.0.2088.61","Windows","10.0","null","en-US,en;q=0.9,es;q=0.8","true","null","<div style=""font-size:100px;"">X</div>","null","","","fixation","","","","","","","",""
"","","","","","audio-keyboard-response","120","166332","0.0-134.0","33","1","2023-10-24 18:13:33","a725c3012b74bf33a1020a98cb69c237","130.41.68.136","Mozilla/5.0 (Windows NT 10.0; Win64; x64) AppleWebKit/537.36 (KHTML, like Gecko) Chrome/118.0.0.0 Safari/537.36 Edg/118.0.2088.61","WebKit","Edge","118.0.2088.61","Windows","10.0","null","en-US,en;q=0.9,es;q=0.8","true","491","tones/880hz_short.mp3","s","","","tone_number_task","1025","57","tones/880hz_short.mp3","1175","100","0","18",""
"","","","","","html-keyboard-response","121","166869","0.0-135.0-0.0","33","1","2023-10-24 18:13:33","a725c3012b74bf33a1020a98cb69c237","130.41.68.136","Mozilla/5.0 (Windows NT 10.0; Win64; x64) AppleWebKit/537.36 (KHTML, like Gecko) Chrome/118.0.0.0 Safari/537.36 Edg/118.0.2088.61","WebKit","Edge","118.0.2088.61","Windows","10.0","null","en-US,en;q=0.9,es;q=0.8","true","null","","null","","","delay_block","","","","","","0","18",""
"","","","","","html-keyboard-response","122","167024","0.0-135.0-1.0","33","1","2023-10-24 18:13:33","a725c3012b74bf33a1020a98cb69c237","130.41.68.136","Mozilla/5.0 (Windows NT 10.0; Win64; x64) AppleWebKit/537.36 (KHTML, like Gecko) Chrome/118.0.0.0 Safari/537.36 Edg/118.0.2088.61","WebKit","Edge","118.0.2088.61","Windows","10.0","null","en-US,en;q=0.9,es;q=0.8","true","null","<p id=""stimulus"" style=""font-size:100px;"">57</p>","null","","","tone_number_task_remaining_before_delay","","57","","684","100","0","18",""
"","","","","","html-keyboard-response","123","167257","0.0-138.0-0.0","33","1","2023-10-24 18:13:33","a725c3012b74bf33a1020a98cb69c237","130.41.68.136","Mozilla/5.0 (Windows NT 10.0; Win64; x64) AppleWebKit/537.36 (KHTML, like Gecko) Chrome/118.0.0.0 Safari/537.36 Edg/118.0.2088.61","WebKit","Edge","118.0.2088.61","Windows","10.0","null","en-US,en;q=0.9,es;q=0.8","true","231","<p id=""stimulus"" style=""font-size:100px;"">57</p>","k","","","empty_block","","57","","","","0","18",""
"","","","","","html-keyboard-response","124","170228","0.0-139.0","33","1","2023-10-24 18:13:33","a725c3012b74bf33a1020a98cb69c237","130.41.68.136","Mozilla/5.0 (Windows NT 10.0; Win64; x64) AppleWebKit/537.36 (KHTML, like Gecko) Chrome/118.0.0.0 Safari/537.36 Edg/118.0.2088.61","WebKit","Edge","118.0.2088.61","Windows","10.0","null","en-US,en;q=0.9,es;q=0.8","true","null","<div style=""font-size:100px;"">X</div>","null","","","fixation","","","","","","","",""
"","","","","","audio-keyboard-response","125","170381","0.0-140.0","33","1","2023-10-24 18:13:33","a725c3012b74bf33a1020a98cb69c237","130.41.68.136","Mozilla/5.0 (Windows NT 10.0; Win64; x64) AppleWebKit/537.36 (KHTML, like Gecko) Chrome/118.0.0.0 Safari/537.36 Edg/118.0.2088.61","WebKit","Edge","118.0.2088.61","Windows","10.0","null","en-US,en;q=0.9,es;q=0.8","true","null","tones/440hz_short.mp3","null","","","tone_number_task","0","58","tones/440hz_short.mp3","150","100","0","19",""
"","","","","","html-keyboard-response","126","170713","0.0-143.0-0.0","33","1","2023-10-24 18:13:33","a725c3012b74bf33a1020a98cb69c237","130.41.68.136","Mozilla/5.0 (Windows NT 10.0; Win64; x64) AppleWebKit/537.36 (KHTML, like Gecko) Chrome/118.0.0.0 Safari/537.36 Edg/118.0.2088.61","WebKit","Edge","118.0.2088.61","Windows","10.0","null","en-US,en;q=0.9,es;q=0.8","true","329","tones/440hz_short.mp3","a","","","empty_block","","58","","","","0","19",""
"","","","","","html-keyboard-response","127","171072","0.0-143.0-1.0","33","1","2023-10-24 18:13:33","a725c3012b74bf33a1020a98cb69c237","130.41.68.136","Mozilla/5.0 (Windows NT 10.0; Win64; x64) AppleWebKit/537.36 (KHTML, like Gecko) Chrome/118.0.0.0 Safari/537.36 Edg/118.0.2088.61","WebKit","Edge","118.0.2088.61","Windows","10.0","null","en-US,en;q=0.9,es;q=0.8","true","355","tones/440hz_short.mp3","k","","","empty_block","","58","","","","0","19",""
"","","","","","html-keyboard-response","128","174044","0.0-145.0","33","1","2023-10-24 18:13:33","a725c3012b74bf33a1020a98cb69c237","130.41.68.136","Mozilla/5.0 (Windows NT 10.0; Win64; x64) AppleWebKit/537.36 (KHTML, like Gecko) Chrome/118.0.0.0 Safari/537.36 Edg/118.0.2088.61","WebKit","Edge","118.0.2088.61","Windows","10.0","null","en-US,en;q=0.9,es;q=0.8","true","null","<div style=""font-size:100px;"">X</div>","null","","","fixation","","","","","","","",""
"","","","","","audio-keyboard-response","129","174300","0.0-146.0","33","1","2023-10-24 18:13:33","a725c3012b74bf33a1020a98cb69c237","130.41.68.136","Mozilla/5.0 (Windows NT 10.0; Win64; x64) AppleWebKit/537.36 (KHTML, like Gecko) Chrome/118.0.0.0 Safari/537.36 Edg/118.0.2088.61","WebKit","Edge","118.0.2088.61","Windows","10.0","null","en-US,en;q=0.9,es;q=0.8","true","null","tones/440hz_short.mp3","null","","","tone_number_task","102.5","22","tones/440hz_short.mp3","252.5","100","0","20",""
"","","","","","html-keyboard-response","130","174916","0.0-149.0-0.0","33","1","2023-10-24 18:13:33","a725c3012b74bf33a1020a98cb69c237","130.41.68.136","Mozilla/5.0 (Windows NT 10.0; Win64; x64) AppleWebKit/537.36 (KHTML, like Gecko) Chrome/118.0.0.0 Safari/537.36 Edg/118.0.2088.61","WebKit","Edge","118.0.2088.61","Windows","10.0","null","en-US,en;q=0.9,es;q=0.8","true","612","tones/440hz_short.mp3","a","","","empty_block","","22","","","","0","20",""
"","","","","","html-keyboard-response","131","175155","0.0-149.0-1.0","33","1","2023-10-24 18:13:33","a725c3012b74bf33a1020a98cb69c237","130.41.68.136","Mozilla/5.0 (Windows NT 10.0; Win64; x64) AppleWebKit/537.36 (KHTML, like Gecko) Chrome/118.0.0.0 Safari/537.36 Edg/118.0.2088.61","WebKit","Edge","118.0.2088.61","Windows","10.0","null","en-US,en;q=0.9,es;q=0.8","true","236","tones/440hz_short.mp3","j","","","empty_block","","22","","","","0","20",""
"","","","","","html-keyboard-response","132","178127","0.0-151.0","33","1","2023-10-24 18:13:33","a725c3012b74bf33a1020a98cb69c237","130.41.68.136","Mozilla/5.0 (Windows NT 10.0; Win64; x64) AppleWebKit/537.36 (KHTML, like Gecko) Chrome/118.0.0.0 Safari/537.36 Edg/118.0.2088.61","WebKit","Edge","118.0.2088.61","Windows","10.0","null","en-US,en;q=0.9,es;q=0.8","true","null","<div style=""font-size:100px;"">X</div>","null","","","fixation","","","","","","","",""
"","","","","","audio-keyboard-response","133","178385","0.0-152.0","33","1","2023-10-24 18:13:33","a725c3012b74bf33a1020a98cb69c237","130.41.68.136","Mozilla/5.0 (Windows NT 10.0; Win64; x64) AppleWebKit/537.36 (KHTML, like Gecko) Chrome/118.0.0.0 Safari/537.36 Edg/118.0.2088.61","WebKit","Edge","118.0.2088.61","Windows","10.0","null","en-US,en;q=0.9,es;q=0.8","true","null","tones/440hz_short.mp3","null","","","tone_number_task","102.5","53","tones/440hz_short.mp3","252.5","100","0","21",""
"","","","","","html-keyboard-response","134","178603","0.0-155.0-0.0","33","1","2023-10-24 18:13:33","a725c3012b74bf33a1020a98cb69c237","130.41.68.136","Mozilla/5.0 (Windows NT 10.0; Win64; x64) AppleWebKit/537.36 (KHTML, like Gecko) Chrome/118.0.0.0 Safari/537.36 Edg/118.0.2088.61","WebKit","Edge","118.0.2088.61","Windows","10.0","null","en-US,en;q=0.9,es;q=0.8","true","214","tones/440hz_short.mp3","a","","","empty_block","","53","","","","0","21",""
"","","","","","html-keyboard-response","135","179142","0.0-155.0-1.0","33","1","2023-10-24 18:13:33","a725c3012b74bf33a1020a98cb69c237","130.41.68.136","Mozilla/5.0 (Windows NT 10.0; Win64; x64) AppleWebKit/537.36 (KHTML, like Gecko) Chrome/118.0.0.0 Safari/537.36 Edg/118.0.2088.61","WebKit","Edge","118.0.2088.61","Windows","10.0","null","en-US,en;q=0.9,es;q=0.8","true","537","tones/440hz_short.mp3","k","","","empty_block","","53","","","","0","21",""
"","","","","","html-keyboard-response","136","182112","0.0-157.0","33","1","2023-10-24 18:13:33","a725c3012b74bf33a1020a98cb69c237","130.41.68.136","Mozilla/5.0 (Windows NT 10.0; Win64; x64) AppleWebKit/537.36 (KHTML, like Gecko) Chrome/118.0.0.0 Safari/537.36 Edg/118.0.2088.61","WebKit","Edge","118.0.2088.61","Windows","10.0","null","en-US,en;q=0.9,es;q=0.8","true","null","<div style=""font-size:100px;"">X</div>","null","","","fixation","","","","","","","",""
"","","","","","audio-keyboard-response","137","182831","0.0-158.0","33","1","2023-10-24 18:13:33","a725c3012b74bf33a1020a98cb69c237","130.41.68.136","Mozilla/5.0 (Windows NT 10.0; Win64; x64) AppleWebKit/537.36 (KHTML, like Gecko) Chrome/118.0.0.0 Safari/537.36 Edg/118.0.2088.61","WebKit","Edge","118.0.2088.61","Windows","10.0","null","en-US,en;q=0.9,es;q=0.8","true","712","tones/880hz_short.mp3","s","","","tone_number_task","1025","58","tones/880hz_short.mp3","1175","100","0","22",""
"","","","","","html-keyboard-response","138","183151","0.0-159.0-0.0","33","1","2023-10-24 18:13:33","a725c3012b74bf33a1020a98cb69c237","130.41.68.136","Mozilla/5.0 (Windows NT 10.0; Win64; x64) AppleWebKit/537.36 (KHTML, like Gecko) Chrome/118.0.0.0 Safari/537.36 Edg/118.0.2088.61","WebKit","Edge","118.0.2088.61","Windows","10.0","null","en-US,en;q=0.9,es;q=0.8","true","null","","null","","","delay_block","","","","","","0","22",""
"","","","","","html-keyboard-response","139","183306","0.0-159.0-1.0","33","1","2023-10-24 18:13:33","a725c3012b74bf33a1020a98cb69c237","130.41.68.136","Mozilla/5.0 (Windows NT 10.0; Win64; x64) AppleWebKit/537.36 (KHTML, like Gecko) Chrome/118.0.0.0 Safari/537.36 Edg/118.0.2088.61","WebKit","Edge","118.0.2088.61","Windows","10.0","null","en-US,en;q=0.9,es;q=0.8","true","null","<p id=""stimulus"" style=""font-size:100px;"">58</p>","null","","","tone_number_task_remaining_before_delay","","58","","463","100","0","22",""
"","","","","","html-keyboard-response","140","183614","0.0-162.0-0.0","33","1","2023-10-24 18:13:33","a725c3012b74bf33a1020a98cb69c237","130.41.68.136","Mozilla/5.0 (Windows NT 10.0; Win64; x64) AppleWebKit/537.36 (KHTML, like Gecko) Chrome/118.0.0.0 Safari/537.36 Edg/118.0.2088.61","WebKit","Edge","118.0.2088.61","Windows","10.0","null","en-US,en;q=0.9,es;q=0.8","true","302","<p id=""stimulus"" style=""font-size:100px;"">58</p>","k","","","empty_block","","58","","","","0","22",""
"","","","","","html-keyboard-response","141","186584","0.0-163.0","33","1","2023-10-24 18:13:33","a725c3012b74bf33a1020a98cb69c237","130.41.68.136","Mozilla/5.0 (Windows NT 10.0; Win64; x64) AppleWebKit/537.36 (KHTML, like Gecko) Chrome/118.0.0.0 Safari/537.36 Edg/118.0.2088.61","WebKit","Edge","118.0.2088.61","Windows","10.0","null","en-US,en;q=0.9,es;q=0.8","true","null","<div style=""font-size:100px;"">X</div>","null","","","fixation","","","","","","","",""
"","","","","","audio-keyboard-response","142","186740","0.0-164.0","33","1","2023-10-24 18:13:33","a725c3012b74bf33a1020a98cb69c237","130.41.68.136","Mozilla/5.0 (Windows NT 10.0; Win64; x64) AppleWebKit/537.36 (KHTML, like Gecko) Chrome/118.0.0.0 Safari/537.36 Edg/118.0.2088.61","WebKit","Edge","118.0.2088.61","Windows","10.0","null","en-US,en;q=0.9,es;q=0.8","true","null","tones/880hz_short.mp3","null","","","tone_number_task","0","21","tones/880hz_short.mp3","150","100","0","23",""
"","","","","","html-keyboard-response","143","187531","0.0-167.0-0.0","33","1","2023-10-24 18:13:33","a725c3012b74bf33a1020a98cb69c237","130.41.68.136","Mozilla/5.0 (Windows NT 10.0; Win64; x64) AppleWebKit/537.36 (KHTML, like Gecko) Chrome/118.0.0.0 Safari/537.36 Edg/118.0.2088.61","WebKit","Edge","118.0.2088.61","Windows","10.0","null","en-US,en;q=0.9,es;q=0.8","true","786","tones/880hz_short.mp3","s","","","empty_block","","21","","","","0","23",""
"","","","","","html-keyboard-response","144","187715","0.0-167.0-1.0","33","1","2023-10-24 18:13:33","a725c3012b74bf33a1020a98cb69c237","130.41.68.136","Mozilla/5.0 (Windows NT 10.0; Win64; x64) AppleWebKit/537.36 (KHTML, like Gecko) Chrome/118.0.0.0 Safari/537.36 Edg/118.0.2088.61","WebKit","Edge","118.0.2088.61","Windows","10.0","null","en-US,en;q=0.9,es;q=0.8","true","179","tones/880hz_short.mp3","j","","","empty_block","","21","","","","0","23",""
"","","","","","html-keyboard-response","145","190686","0.0-169.0","33","1","2023-10-24 18:13:33","a725c3012b74bf33a1020a98cb69c237","130.41.68.136","Mozilla/5.0 (Windows NT 10.0; Win64; x64) AppleWebKit/537.36 (KHTML, like Gecko) Chrome/118.0.0.0 Safari/537.36 Edg/118.0.2088.61","WebKit","Edge","118.0.2088.61","Windows","10.0","null","en-US,en;q=0.9,es;q=0.8","true","null","<div style=""font-size:100px;"">X</div>","null","","","fixation","","","","","","","",""
"","","","","","audio-keyboard-response","146","190945","0.0-170.0","33","1","2023-10-24 18:13:33","a725c3012b74bf33a1020a98cb69c237","130.41.68.136","Mozilla/5.0 (Windows NT 10.0; Win64; x64) AppleWebKit/537.36 (KHTML, like Gecko) Chrome/118.0.0.0 Safari/537.36 Edg/118.0.2088.61","WebKit","Edge","118.0.2088.61","Windows","10.0","null","en-US,en;q=0.9,es;q=0.8","true","null","tones/880hz_short.mp3","null","","","tone_number_task","102.5","39","tones/880hz_short.mp3","252.5","100","0","24",""
"","","","","","html-keyboard-response","147","191624","0.0-173.0-0.0","33","1","2023-10-24 18:13:33","a725c3012b74bf33a1020a98cb69c237","130.41.68.136","Mozilla/5.0 (Windows NT 10.0; Win64; x64) AppleWebKit/537.36 (KHTML, like Gecko) Chrome/118.0.0.0 Safari/537.36 Edg/118.0.2088.61","WebKit","Edge","118.0.2088.61","Windows","10.0","null","en-US,en;q=0.9,es;q=0.8","true","676","tones/880hz_short.mp3","s","","","empty_block","","39","","","","0","24",""
"","","","","","html-keyboard-response","148","191797","0.0-173.0-1.0","33","1","2023-10-24 18:13:33","a725c3012b74bf33a1020a98cb69c237","130.41.68.136","Mozilla/5.0 (Windows NT 10.0; Win64; x64) AppleWebKit/537.36 (KHTML, like Gecko) Chrome/118.0.0.0 Safari/537.36 Edg/118.0.2088.61","WebKit","Edge","118.0.2088.61","Windows","10.0","null","en-US,en;q=0.9,es;q=0.8","true","170","tones/880hz_short.mp3","j","","","empty_block","","39","","","","0","24",""
"","","","","","html-keyboard-response","149","194768","0.0-175.0","33","1","2023-10-24 18:13:33","a725c3012b74bf33a1020a98cb69c237","130.41.68.136","Mozilla/5.0 (Windows NT 10.0; Win64; x64) AppleWebKit/537.36 (KHTML, like Gecko) Chrome/118.0.0.0 Safari/537.36 Edg/118.0.2088.61","WebKit","Edge","118.0.2088.61","Windows","10.0","null","en-US,en;q=0.9,es;q=0.8","true","null","<div style=""font-size:100px;"">X</div>","null","","","fixation","","","","","","","",""
"","","","","","audio-keyboard-response","150","195521","0.0-176.0","33","1","2023-10-24 18:13:33","a725c3012b74bf33a1020a98cb69c237","130.41.68.136","Mozilla/5.0 (Windows NT 10.0; Win64; x64) AppleWebKit/537.36 (KHTML, like Gecko) Chrome/118.0.0.0 Safari/537.36 Edg/118.0.2088.61","WebKit","Edge","118.0.2088.61","Windows","10.0","null","en-US,en;q=0.9,es;q=0.8","true","749","tones/440hz_short.mp3","a","","","tone_number_task","992.5","58","tones/440hz_short.mp3","1142.5","100","0","25",""
"","","","","","html-keyboard-response","151","195769","0.0-177.0-0.0","33","1","2023-10-24 18:13:33","a725c3012b74bf33a1020a98cb69c237","130.41.68.136","Mozilla/5.0 (Windows NT 10.0; Win64; x64) AppleWebKit/537.36 (KHTML, like Gecko) Chrome/118.0.0.0 Safari/537.36 Edg/118.0.2088.61","WebKit","Edge","118.0.2088.61","Windows","10.0","null","en-US,en;q=0.9,es;q=0.8","true","null","","null","","","delay_block","","","","","","0","25",""
"","","","","","html-keyboard-response","152","195926","0.0-177.0-1.0","33","1","2023-10-24 18:13:33","a725c3012b74bf33a1020a98cb69c237","130.41.68.136","Mozilla/5.0 (Windows NT 10.0; Win64; x64) AppleWebKit/537.36 (KHTML, like Gecko) Chrome/118.0.0.0 Safari/537.36 Edg/118.0.2088.61","WebKit","Edge","118.0.2088.61","Windows","10.0","null","en-US,en;q=0.9,es;q=0.8","true","null","<p id=""stimulus"" style=""font-size:100px;"">58</p>","null","","","tone_number_task_remaining_before_delay","","58","","393.5","100","0","25",""
"","","","","","html-keyboard-response","153","196257","0.0-180.0-0.0","33","1","2023-10-24 18:13:33","a725c3012b74bf33a1020a98cb69c237","130.41.68.136","Mozilla/5.0 (Windows NT 10.0; Win64; x64) AppleWebKit/537.36 (KHTML, like Gecko) Chrome/118.0.0.0 Safari/537.36 Edg/118.0.2088.61","WebKit","Edge","118.0.2088.61","Windows","10.0","null","en-US,en;q=0.9,es;q=0.8","true","325","<p id=""stimulus"" style=""font-size:100px;"">58</p>","k","","","empty_block","","58","","","","0","25",""
"","","","","","html-keyboard-response","154","199227","0.0-181.0","33","1","2023-10-24 18:13:33","a725c3012b74bf33a1020a98cb69c237","130.41.68.136","Mozilla/5.0 (Windows NT 10.0; Win64; x64) AppleWebKit/537.36 (KHTML, like Gecko) Chrome/118.0.0.0 Safari/537.36 Edg/118.0.2088.61","WebKit","Edge","118.0.2088.61","Windows","10.0","null","en-US,en;q=0.9,es;q=0.8","true","null","<div style=""font-size:100px;"">X</div>","null","","","fixation","","","","","","","",""
"","","","","","audio-keyboard-response","155","199839","0.0-182.0","33","1","2023-10-24 18:13:33","a725c3012b74bf33a1020a98cb69c237","130.41.68.136","Mozilla/5.0 (Windows NT 10.0; Win64; x64) AppleWebKit/537.36 (KHTML, like Gecko) Chrome/118.0.0.0 Safari/537.36 Edg/118.0.2088.61","WebKit","Edge","118.0.2088.61","Windows","10.0","null","en-US,en;q=0.9,es;q=0.8","true","608","tones/440hz_short.mp3","s","","","tone_number_task","992.5","30","tones/440hz_short.mp3","1142.5","100","0","26",""
"","","","","","html-keyboard-response","156","200226","0.0-183.0-0.0","33","1","2023-10-24 18:13:33","a725c3012b74bf33a1020a98cb69c237","130.41.68.136","Mozilla/5.0 (Windows NT 10.0; Win64; x64) AppleWebKit/537.36 (KHTML, like Gecko) Chrome/118.0.0.0 Safari/537.36 Edg/118.0.2088.61","WebKit","Edge","118.0.2088.61","Windows","10.0","null","en-US,en;q=0.9,es;q=0.8","true","null","","null","","","delay_block","","","","","","0","26",""
"","","","","","html-keyboard-response","157","200380","0.0-183.0-1.0","33","1","2023-10-24 18:13:33","a725c3012b74bf33a1020a98cb69c237","130.41.68.136","Mozilla/5.0 (Windows NT 10.0; Win64; x64) AppleWebKit/537.36 (KHTML, like Gecko) Chrome/118.0.0.0 Safari/537.36 Edg/118.0.2088.61","WebKit","Edge","118.0.2088.61","Windows","10.0","null","en-US,en;q=0.9,es;q=0.8","true","null","<p id=""stimulus"" style=""font-size:100px;"">30</p>","null","","","tone_number_task_remaining_before_delay","","30","","534.5","100","0","26",""
"","","","","","html-keyboard-response","158","201067","0.0-186.0-0.0","33","1","2023-10-24 18:13:33","a725c3012b74bf33a1020a98cb69c237","130.41.68.136","Mozilla/5.0 (Windows NT 10.0; Win64; x64) AppleWebKit/537.36 (KHTML, like Gecko) Chrome/118.0.0.0 Safari/537.36 Edg/118.0.2088.61","WebKit","Edge","118.0.2088.61","Windows","10.0","null","en-US,en;q=0.9,es;q=0.8","true","684","<p id=""stimulus"" style=""font-size:100px;"">30</p>","j","","","empty_block","","30","","","","0","26",""
"","","","","","html-keyboard-response","159","204038","0.0-187.0","33","1","2023-10-24 18:13:33","a725c3012b74bf33a1020a98cb69c237","130.41.68.136","Mozilla/5.0 (Windows NT 10.0; Win64; x64) AppleWebKit/537.36 (KHTML, like Gecko) Chrome/118.0.0.0 Safari/537.36 Edg/118.0.2088.61","WebKit","Edge","118.0.2088.61","Windows","10.0","null","en-US,en;q=0.9,es;q=0.8","true","null","<div style=""font-size:100px;"">X</div>","null","","","fixation","","","","","","","",""
"","","","","","audio-keyboard-response","160","204972","0.0-188.0","33","1","2023-10-24 18:13:33","a725c3012b74bf33a1020a98cb69c237","130.41.68.136","Mozilla/5.0 (Windows NT 10.0; Win64; x64) AppleWebKit/537.36 (KHTML, like Gecko) Chrome/118.0.0.0 Safari/537.36 Edg/118.0.2088.61","WebKit","Edge","118.0.2088.61","Windows","10.0","null","en-US,en;q=0.9,es;q=0.8","true","931","tones/880hz_short.mp3","s","","","tone_number_task","1025","69","tones/880hz_short.mp3","1175","100","0","27",""
"","","","","","html-keyboard-response","161","205070","0.0-189.0-0.0","33","1","2023-10-24 18:13:33","a725c3012b74bf33a1020a98cb69c237","130.41.68.136","Mozilla/5.0 (Windows NT 10.0; Win64; x64) AppleWebKit/537.36 (KHTML, like Gecko) Chrome/118.0.0.0 Safari/537.36 Edg/118.0.2088.61","WebKit","Edge","118.0.2088.61","Windows","10.0","null","en-US,en;q=0.9,es;q=0.8","true","null","","null","","","delay_block","","","","","","0","27",""
"","","","","","html-keyboard-response","162","205226","0.0-189.0-1.0","33","1","2023-10-24 18:13:33","a725c3012b74bf33a1020a98cb69c237","130.41.68.136","Mozilla/5.0 (Windows NT 10.0; Win64; x64) AppleWebKit/537.36 (KHTML, like Gecko) Chrome/118.0.0.0 Safari/537.36 Edg/118.0.2088.61","WebKit","Edge","118.0.2088.61","Windows","10.0","null","en-US,en;q=0.9,es;q=0.8","true","null","<p id=""stimulus"" style=""font-size:100px;"">69</p>","null","","","tone_number_task_remaining_before_delay","","69","","244","100","0","27",""
"","","","","","html-keyboard-response","163","205667","0.0-192.0-0.0","33","1","2023-10-24 18:13:33","a725c3012b74bf33a1020a98cb69c237","130.41.68.136","Mozilla/5.0 (Windows NT 10.0; Win64; x64) AppleWebKit/537.36 (KHTML, like Gecko) Chrome/118.0.0.0 Safari/537.36 Edg/118.0.2088.61","WebKit","Edge","118.0.2088.61","Windows","10.0","null","en-US,en;q=0.9,es;q=0.8","true","438","<p id=""stimulus"" style=""font-size:100px;"">69</p>","k","","","empty_block","","69","","","","0","27",""
"","","","","","html-keyboard-response","164","208637","0.0-193.0","33","1","2023-10-24 18:13:33","a725c3012b74bf33a1020a98cb69c237","130.41.68.136","Mozilla/5.0 (Windows NT 10.0; Win64; x64) AppleWebKit/537.36 (KHTML, like Gecko) Chrome/118.0.0.0 Safari/537.36 Edg/118.0.2088.61","WebKit","Edge","118.0.2088.61","Windows","10.0","null","en-US,en;q=0.9,es;q=0.8","true","null","<div style=""font-size:100px;"">X</div>","null","","","fixation","","","","","","","",""
"","","","","","audio-keyboard-response","165","208896","0.0-194.0","33","1","2023-10-24 18:13:33","a725c3012b74bf33a1020a98cb69c237","130.41.68.136","Mozilla/5.0 (Windows NT 10.0; Win64; x64) AppleWebKit/537.36 (KHTML, like Gecko) Chrome/118.0.0.0 Safari/537.36 Edg/118.0.2088.61","WebKit","Edge","118.0.2088.61","Windows","10.0","null","en-US,en;q=0.9,es;q=0.8","true","null","tones/880hz_short.mp3","null","","","tone_number_task","102.5","27","tones/880hz_short.mp3","252.5","100","0","28",""
"","","","","","html-keyboard-response","166","209763","0.0-197.0-0.0","33","1","2023-10-24 18:13:33","a725c3012b74bf33a1020a98cb69c237","130.41.68.136","Mozilla/5.0 (Windows NT 10.0; Win64; x64) AppleWebKit/537.36 (KHTML, like Gecko) Chrome/118.0.0.0 Safari/537.36 Edg/118.0.2088.61","WebKit","Edge","118.0.2088.61","Windows","10.0","null","en-US,en;q=0.9,es;q=0.8","true","864","tones/880hz_short.mp3","s","","","empty_block","","27","","","","0","28",""
"","","","","","html-keyboard-response","167","209938","0.0-197.0-1.0","33","1","2023-10-24 18:13:33","a725c3012b74bf33a1020a98cb69c237","130.41.68.136","Mozilla/5.0 (Windows NT 10.0; Win64; x64) AppleWebKit/537.36 (KHTML, like Gecko) Chrome/118.0.0.0 Safari/537.36 Edg/118.0.2088.61","WebKit","Edge","118.0.2088.61","Windows","10.0","null","en-US,en;q=0.9,es;q=0.8","true","172","tones/880hz_short.mp3","j","","","empty_block","","27","","","","0","28",""
"","","","","","html-keyboard-response","168","212908","0.0-199.0","33","1","2023-10-24 18:13:33","a725c3012b74bf33a1020a98cb69c237","130.41.68.136","Mozilla/5.0 (Windows NT 10.0; Win64; x64) AppleWebKit/537.36 (KHTML, like Gecko) Chrome/118.0.0.0 Safari/537.36 Edg/118.0.2088.61","WebKit","Edge","118.0.2088.61","Windows","10.0","null","en-US,en;q=0.9,es;q=0.8","true","null","<div style=""font-size:100px;"">X</div>","null","","","fixation","","","","","","","",""
"","","","","","audio-keyboard-response","169","213475","0.0-200.0","33","1","2023-10-24 18:13:33","a725c3012b74bf33a1020a98cb69c237","130.41.68.136","Mozilla/5.0 (Windows NT 10.0; Win64; x64) AppleWebKit/537.36 (KHTML, like Gecko) Chrome/118.0.0.0 Safari/537.36 Edg/118.0.2088.61","WebKit","Edge","118.0.2088.61","Windows","10.0","null","en-US,en;q=0.9,es;q=0.8","true","568","tones/880hz_short.mp3","s","","","tone_number_task","1025","38","tones/880hz_short.mp3","1175","100","0","29",""
"","","","","","html-keyboard-response","170","213936","0.0-201.0-0.0","33","1","2023-10-24 18:13:33","a725c3012b74bf33a1020a98cb69c237","130.41.68.136","Mozilla/5.0 (Windows NT 10.0; Win64; x64) AppleWebKit/537.36 (KHTML, like Gecko) Chrome/118.0.0.0 Safari/537.36 Edg/118.0.2088.61","WebKit","Edge","118.0.2088.61","Windows","10.0","null","en-US,en;q=0.9,es;q=0.8","true","null","","null","","","delay_block","","","","","","0","29",""
"","","","","","html-keyboard-response","171","214090","0.0-201.0-1.0","33","1","2023-10-24 18:13:33","a725c3012b74bf33a1020a98cb69c237","130.41.68.136","Mozilla/5.0 (Windows NT 10.0; Win64; x64) AppleWebKit/537.36 (KHTML, like Gecko) Chrome/118.0.0.0 Safari/537.36 Edg/118.0.2088.61","WebKit","Edge","118.0.2088.61","Windows","10.0","null","en-US,en;q=0.9,es;q=0.8","true","null","<p id=""stimulus"" style=""font-size:100px;"">38</p>","null","","","tone_number_task_remaining_before_delay","","38","","607","100","0","29",""
"","","","","","html-keyboard-response","172","214497","0.0-204.0-0.0","33","1","2023-10-24 18:13:33","a725c3012b74bf33a1020a98cb69c237","130.41.68.136","Mozilla/5.0 (Windows NT 10.0; Win64; x64) AppleWebKit/537.36 (KHTML, like Gecko) Chrome/118.0.0.0 Safari/537.36 Edg/118.0.2088.61","WebKit","Edge","118.0.2088.61","Windows","10.0","null","en-US,en;q=0.9,es;q=0.8","true","404","<p id=""stimulus"" style=""font-size:100px;"">38</p>","j","","","empty_block","","38","","","","0","29",""
"","","","","","html-keyboard-response","173","217469","0.0-205.0","33","1","2023-10-24 18:13:33","a725c3012b74bf33a1020a98cb69c237","130.41.68.136","Mozilla/5.0 (Windows NT 10.0; Win64; x64) AppleWebKit/537.36 (KHTML, like Gecko) Chrome/118.0.0.0 Safari/537.36 Edg/118.0.2088.61","WebKit","Edge","118.0.2088.61","Windows","10.0","null","en-US,en;q=0.9,es;q=0.8","true","null","<div style=""font-size:100px;"">X</div>","null","","","fixation","","","","","","","",""
"","","","","","audio-keyboard-response","174","218261","0.0-206.0","33","1","2023-10-24 18:13:33","a725c3012b74bf33a1020a98cb69c237","130.41.68.136","Mozilla/5.0 (Windows NT 10.0; Win64; x64) AppleWebKit/537.36 (KHTML, like Gecko) Chrome/118.0.0.0 Safari/537.36 Edg/118.0.2088.61","WebKit","Edge","118.0.2088.61","Windows","10.0","null","en-US,en;q=0.9,es;q=0.8","true","789","tones/880hz_short.mp3","s","","","tone_number_task","992.5","35","tones/880hz_short.mp3","1142.5","100","0","30",""
"","","","","","html-keyboard-response","175","218470","0.0-207.0-0.0","33","1","2023-10-24 18:13:33","a725c3012b74bf33a1020a98cb69c237","130.41.68.136","Mozilla/5.0 (Windows NT 10.0; Win64; x64) AppleWebKit/537.36 (KHTML, like Gecko) Chrome/118.0.0.0 Safari/537.36 Edg/118.0.2088.61","WebKit","Edge","118.0.2088.61","Windows","10.0","null","en-US,en;q=0.9,es;q=0.8","true","null","","null","","","delay_block","","","","","","0","30",""
"","","","","","html-keyboard-response","176","218626","0.0-207.0-1.0","33","1","2023-10-24 18:13:33","a725c3012b74bf33a1020a98cb69c237","130.41.68.136","Mozilla/5.0 (Windows NT 10.0; Win64; x64) AppleWebKit/537.36 (KHTML, like Gecko) Chrome/118.0.0.0 Safari/537.36 Edg/118.0.2088.61","WebKit","Edge","118.0.2088.61","Windows","10.0","null","en-US,en;q=0.9,es;q=0.8","true","null","<p id=""stimulus"" style=""font-size:100px;"">35</p>","null","","","tone_number_task_remaining_before_delay","","35","","353.5","100","0","30",""
"","","","","","html-keyboard-response","177","219010","0.0-210.0-0.0","33","1","2023-10-24 18:13:33","a725c3012b74bf33a1020a98cb69c237","130.41.68.136","Mozilla/5.0 (Windows NT 10.0; Win64; x64) AppleWebKit/537.36 (KHTML, like Gecko) Chrome/118.0.0.0 Safari/537.36 Edg/118.0.2088.61","WebKit","Edge","118.0.2088.61","Windows","10.0","null","en-US,en;q=0.9,es;q=0.8","true","378","<p id=""stimulus"" style=""font-size:100px;"">35</p>","j","","","empty_block","","35","","","","0","30",""
"","","","","","html-keyboard-response","178","221979","0.0-211.0","33","1","2023-10-24 18:13:33","a725c3012b74bf33a1020a98cb69c237","130.41.68.136","Mozilla/5.0 (Windows NT 10.0; Win64; x64) AppleWebKit/537.36 (KHTML, like Gecko) Chrome/118.0.0.0 Safari/537.36 Edg/118.0.2088.61","WebKit","Edge","118.0.2088.61","Windows","10.0","null","en-US,en;q=0.9,es;q=0.8","true","null","<div style=""font-size:100px;"">X</div>","null","","","fixation","","","","","","","",""
"","","","","","audio-keyboard-response","179","222135","0.0-212.0","33","1","2023-10-24 18:13:33","a725c3012b74bf33a1020a98cb69c237","130.41.68.136","Mozilla/5.0 (Windows NT 10.0; Win64; x64) AppleWebKit/537.36 (KHTML, like Gecko) Chrome/118.0.0.0 Safari/537.36 Edg/118.0.2088.61","WebKit","Edge","118.0.2088.61","Windows","10.0","null","en-US,en;q=0.9,es;q=0.8","true","null","tones/440hz_short.mp3","null","","","tone_number_task","0","34","tones/440hz_short.mp3","150","100","0","31",""
"","","","","","html-keyboard-response","180","222504","0.0-215.0-0.0","33","1","2023-10-24 18:13:33","a725c3012b74bf33a1020a98cb69c237","130.41.68.136","Mozilla/5.0 (Windows NT 10.0; Win64; x64) AppleWebKit/537.36 (KHTML, like Gecko) Chrome/118.0.0.0 Safari/537.36 Edg/118.0.2088.61","WebKit","Edge","118.0.2088.61","Windows","10.0","null","en-US,en;q=0.9,es;q=0.8","true","366","tones/440hz_short.mp3","a","","","empty_block","","34","","","","0","31",""
"","","","","","html-keyboard-response","181","222824","0.0-215.0-1.0","33","1","2023-10-24 18:13:33","a725c3012b74bf33a1020a98cb69c237","130.41.68.136","Mozilla/5.0 (Windows NT 10.0; Win64; x64) AppleWebKit/537.36 (KHTML, like Gecko) Chrome/118.0.0.0 Safari/537.36 Edg/118.0.2088.61","WebKit","Edge","118.0.2088.61","Windows","10.0","null","en-US,en;q=0.9,es;q=0.8","true","317","tones/440hz_short.mp3","j","","","empty_block","","34","","","","0","31",""
"","","","","","html-keyboard-response","182","225794","0.0-217.0","33","1","2023-10-24 18:13:33","a725c3012b74bf33a1020a98cb69c237","130.41.68.136","Mozilla/5.0 (Windows NT 10.0; Win64; x64) AppleWebKit/537.36 (KHTML, like Gecko) Chrome/118.0.0.0 Safari/537.36 Edg/118.0.2088.61","WebKit","Edge","118.0.2088.61","Windows","10.0","null","en-US,en;q=0.9,es;q=0.8","true","null","<div style=""font-size:100px;"">X</div>","null","","","fixation","","","","","","","",""
"","","","","","audio-keyboard-response","183","226052","0.0-218.0","33","1","2023-10-24 18:13:33","a725c3012b74bf33a1020a98cb69c237","130.41.68.136","Mozilla/5.0 (Windows NT 10.0; Win64; x64) AppleWebKit/537.36 (KHTML, like Gecko) Chrome/118.0.0.0 Safari/537.36 Edg/118.0.2088.61","WebKit","Edge","118.0.2088.61","Windows","10.0","null","en-US,en;q=0.9,es;q=0.8","true","null","tones/880hz_short.mp3","null","","","tone_number_task","102.5","56","tones/880hz_short.mp3","252.5","100","0","32",""
"","","","","","html-keyboard-response","184","226630","0.0-221.0-0.0","33","1","2023-10-24 18:13:33","a725c3012b74bf33a1020a98cb69c237","130.41.68.136","Mozilla/5.0 (Windows NT 10.0; Win64; x64) AppleWebKit/537.36 (KHTML, like Gecko) Chrome/118.0.0.0 Safari/537.36 Edg/118.0.2088.61","WebKit","Edge","118.0.2088.61","Windows","10.0","null","en-US,en;q=0.9,es;q=0.8","true","574","tones/880hz_short.mp3","s","","","empty_block","","56","","","","0","32",""
"","","","","","html-keyboard-response","185","227132","0.0-221.0-1.0","33","1","2023-10-24 18:13:33","a725c3012b74bf33a1020a98cb69c237","130.41.68.136","Mozilla/5.0 (Windows NT 10.0; Win64; x64) AppleWebKit/537.36 (KHTML, like Gecko) Chrome/118.0.0.0 Safari/537.36 Edg/118.0.2088.61","WebKit","Edge","118.0.2088.61","Windows","10.0","null","en-US,en;q=0.9,es;q=0.8","true","497","tones/880hz_short.mp3","k","","","empty_block","","56","","","","0","32",""
"","","","","","html-keyboard-response","186","230105","0.0-223.0","33","1","2023-10-24 18:13:33","a725c3012b74bf33a1020a98cb69c237","130.41.68.136","Mozilla/5.0 (Windows NT 10.0; Win64; x64) AppleWebKit/537.36 (KHTML, like Gecko) Chrome/118.0.0.0 Safari/537.36 Edg/118.0.2088.61","WebKit","Edge","118.0.2088.61","Windows","10.0","null","en-US,en;q=0.9,es;q=0.8","true","null","<div style=""font-size:100px;"">X</div>","null","","","fixation","","","","","","","",""
"","","","","","audio-keyboard-response","187","230259","0.0-224.0","33","1","2023-10-24 18:13:33","a725c3012b74bf33a1020a98cb69c237","130.41.68.136","Mozilla/5.0 (Windows NT 10.0; Win64; x64) AppleWebKit/537.36 (KHTML, like Gecko) Chrome/118.0.0.0 Safari/537.36 Edg/118.0.2088.61","WebKit","Edge","118.0.2088.61","Windows","10.0","null","en-US,en;q=0.9,es;q=0.8","true","null","tones/440hz_short.mp3","null","","","tone_number_task","0","48","tones/440hz_short.mp3","150","100","0","33",""
"","","","","","html-keyboard-response","188","230963","0.0-227.0-0.0","33","1","2023-10-24 18:13:33","a725c3012b74bf33a1020a98cb69c237","130.41.68.136","Mozilla/5.0 (Windows NT 10.0; Win64; x64) AppleWebKit/537.36 (KHTML, like Gecko) Chrome/118.0.0.0 Safari/537.36 Edg/118.0.2088.61","WebKit","Edge","118.0.2088.61","Windows","10.0","null","en-US,en;q=0.9,es;q=0.8","true","699","tones/440hz_short.mp3","a","","","empty_block","","48","","","","0","33",""
"","","","","","html-keyboard-response","189","231582","0.0-227.0-1.0","33","1","2023-10-24 18:13:33","a725c3012b74bf33a1020a98cb69c237","130.41.68.136","Mozilla/5.0 (Windows NT 10.0; Win64; x64) AppleWebKit/537.36 (KHTML, like Gecko) Chrome/118.0.0.0 Safari/537.36 Edg/118.0.2088.61","WebKit","Edge","118.0.2088.61","Windows","10.0","null","en-US,en;q=0.9,es;q=0.8","true","616","tones/440hz_short.mp3","k","","","empty_block","","48","","","","0","33",""
"","","","","","html-keyboard-response","190","234552","0.0-229.0","33","1","2023-10-24 18:13:33","a725c3012b74bf33a1020a98cb69c237","130.41.68.136","Mozilla/5.0 (Windows NT 10.0; Win64; x64) AppleWebKit/537.36 (KHTML, like Gecko) Chrome/118.0.0.0 Safari/537.36 Edg/118.0.2088.61","WebKit","Edge","118.0.2088.61","Windows","10.0","null","en-US,en;q=0.9,es;q=0.8","true","null","<div style=""font-size:100px;"">X</div>","null","","","fixation","","","","","","","",""
"","","","","","audio-keyboard-response","191","235161","0.0-230.0","33","1","2023-10-24 18:13:33","a725c3012b74bf33a1020a98cb69c237","130.41.68.136","Mozilla/5.0 (Windows NT 10.0; Win64; x64) AppleWebKit/537.36 (KHTML, like Gecko) Chrome/118.0.0.0 Safari/537.36 Edg/118.0.2088.61","WebKit","Edge","118.0.2088.61","Windows","10.0","null","en-US,en;q=0.9,es;q=0.8","true","600","tones/880hz_short.mp3","s","","","tone_number_task","1025","33","tones/880hz_short.mp3","1175","100","0","34",""
"","","","","","html-keyboard-response","192","235591","0.0-231.0-0.0","33","1","2023-10-24 18:13:33","a725c3012b74bf33a1020a98cb69c237","130.41.68.136","Mozilla/5.0 (Windows NT 10.0; Win64; x64) AppleWebKit/537.36 (KHTML, like Gecko) Chrome/118.0.0.0 Safari/537.36 Edg/118.0.2088.61","WebKit","Edge","118.0.2088.61","Windows","10.0","null","en-US,en;q=0.9,es;q=0.8","true","null","","null","","","delay_block","","","","","","0","34",""
"","","","","","html-keyboard-response","193","235748","0.0-231.0-1.0","33","1","2023-10-24 18:13:33","a725c3012b74bf33a1020a98cb69c237","130.41.68.136","Mozilla/5.0 (Windows NT 10.0; Win64; x64) AppleWebKit/537.36 (KHTML, like Gecko) Chrome/118.0.0.0 Safari/537.36 Edg/118.0.2088.61","WebKit","Edge","118.0.2088.61","Windows","10.0","null","en-US,en;q=0.9,es;q=0.8","true","null","<p id=""stimulus"" style=""font-size:100px;"">33</p>","null","","","tone_number_task_remaining_before_delay","","33","","575","100","0","34",""
"","","","","","html-keyboard-response","194","236178","0.0-234.0-0.0","33","1","2023-10-24 18:13:33","a725c3012b74bf33a1020a98cb69c237","130.41.68.136","Mozilla/5.0 (Windows NT 10.0; Win64; x64) AppleWebKit/537.36 (KHTML, like Gecko) Chrome/118.0.0.0 Safari/537.36 Edg/118.0.2088.61","WebKit","Edge","118.0.2088.61","Windows","10.0","null","en-US,en;q=0.9,es;q=0.8","true","425","<p id=""stimulus"" style=""font-size:100px;"">33</p>","j","","","empty_block","","33","","","","0","34",""
"","","","","","html-keyboard-response","195","239147","0.0-235.0","33","1","2023-10-24 18:13:33","a725c3012b74bf33a1020a98cb69c237","130.41.68.136","Mozilla/5.0 (Windows NT 10.0; Win64; x64) AppleWebKit/537.36 (KHTML, like Gecko) Chrome/118.0.0.0 Safari/537.36 Edg/118.0.2088.61","WebKit","Edge","118.0.2088.61","Windows","10.0","null","en-US,en;q=0.9,es;q=0.8","true","null","<div style=""font-size:100px;"">X</div>","null","","","fixation","","","","","","","",""
"","","","","","audio-keyboard-response","196","239402","0.0-236.0","33","1","2023-10-24 18:13:33","a725c3012b74bf33a1020a98cb69c237","130.41.68.136","Mozilla/5.0 (Windows NT 10.0; Win64; x64) AppleWebKit/537.36 (KHTML, like Gecko) Chrome/118.0.0.0 Safari/537.36 Edg/118.0.2088.61","WebKit","Edge","118.0.2088.61","Windows","10.0","null","en-US,en;q=0.9,es;q=0.8","true","null","tones/880hz_short.mp3","null","","","tone_number_task","102.5","25","tones/880hz_short.mp3","252.5","100","0","35",""
"","","","","","html-keyboard-response","197","239716","0.0-239.0-0.0","33","1","2023-10-24 18:13:33","a725c3012b74bf33a1020a98cb69c237","130.41.68.136","Mozilla/5.0 (Windows NT 10.0; Win64; x64) AppleWebKit/537.36 (KHTML, like Gecko) Chrome/118.0.0.0 Safari/537.36 Edg/118.0.2088.61","WebKit","Edge","118.0.2088.61","Windows","10.0","null","en-US,en;q=0.9,es;q=0.8","true","308","tones/880hz_short.mp3","s","","","empty_block","","25","","","","0","35",""
"","","","","","html-keyboard-response","198","240237","0.0-239.0-1.0","33","1","2023-10-24 18:13:33","a725c3012b74bf33a1020a98cb69c237","130.41.68.136","Mozilla/5.0 (Windows NT 10.0; Win64; x64) AppleWebKit/537.36 (KHTML, like Gecko) Chrome/118.0.0.0 Safari/537.36 Edg/118.0.2088.61","WebKit","Edge","118.0.2088.61","Windows","10.0","null","en-US,en;q=0.9,es;q=0.8","true","518","tones/880hz_short.mp3","j","","","empty_block","","25","","","","0","35",""
"","","","","","html-keyboard-response","199","243206","0.0-241.0","33","1","2023-10-24 18:13:33","a725c3012b74bf33a1020a98cb69c237","130.41.68.136","Mozilla/5.0 (Windows NT 10.0; Win64; x64) AppleWebKit/537.36 (KHTML, like Gecko) Chrome/118.0.0.0 Safari/537.36 Edg/118.0.2088.61","WebKit","Edge","118.0.2088.61","Windows","10.0","null","en-US,en;q=0.9,es;q=0.8","true","null","<div style=""font-size:100px;"">X</div>","null","","","fixation","","","","","","","",""
"","","","","","audio-keyboard-response","200","243461","0.0-242.0","33","1","2023-10-24 18:13:33","a725c3012b74bf33a1020a98cb69c237","130.41.68.136","Mozilla/5.0 (Windows NT 10.0; Win64; x64) AppleWebKit/537.36 (KHTML, like Gecko) Chrome/118.0.0.0 Safari/537.36 Edg/118.0.2088.61","WebKit","Edge","118.0.2088.61","Windows","10.0","null","en-US,en;q=0.9,es;q=0.8","true","null","tones/880hz_short.mp3","null","","","tone_number_task","102.5","53","tones/880hz_short.mp3","252.5","100","0","36",""
"","","","","","html-keyboard-response","201","244243","0.0-245.0-0.0","33","1","2023-10-24 18:13:33","a725c3012b74bf33a1020a98cb69c237","130.41.68.136","Mozilla/5.0 (Windows NT 10.0; Win64; x64) AppleWebKit/537.36 (KHTML, like Gecko) Chrome/118.0.0.0 Safari/537.36 Edg/118.0.2088.61","WebKit","Edge","118.0.2088.61","Windows","10.0","null","en-US,en;q=0.9,es;q=0.8","true","776","tones/880hz_short.mp3","s","","","empty_block","","53","","","","0","36",""
"","","","","","html-keyboard-response","202","244425","0.0-245.0-1.0","33","1","2023-10-24 18:13:33","a725c3012b74bf33a1020a98cb69c237","130.41.68.136","Mozilla/5.0 (Windows NT 10.0; Win64; x64) AppleWebKit/537.36 (KHTML, like Gecko) Chrome/118.0.0.0 Safari/537.36 Edg/118.0.2088.61","WebKit","Edge","118.0.2088.61","Windows","10.0","null","en-US,en;q=0.9,es;q=0.8","true","177","tones/880hz_short.mp3","k","","","empty_block","","53","","","","0","36",""
"","","","","","html-keyboard-response","203","247394","0.0-247.0","33","1","2023-10-24 18:13:33","a725c3012b74bf33a1020a98cb69c237","130.41.68.136","Mozilla/5.0 (Windows NT 10.0; Win64; x64) AppleWebKit/537.36 (KHTML, like Gecko) Chrome/118.0.0.0 Safari/537.36 Edg/118.0.2088.61","WebKit","Edge","118.0.2088.61","Windows","10.0","null","en-US,en;q=0.9,es;q=0.8","true","null","<div style=""font-size:100px;"">X</div>","null","","","fixation","","","","","","","",""
"","","","","","audio-keyboard-response","204","248150","0.0-248.0","33","1","2023-10-24 18:13:33","a725c3012b74bf33a1020a98cb69c237","130.41.68.136","Mozilla/5.0 (Windows NT 10.0; Win64; x64) AppleWebKit/537.36 (KHTML, like Gecko) Chrome/118.0.0.0 Safari/537.36 Edg/118.0.2088.61","WebKit","Edge","118.0.2088.61","Windows","10.0","null","en-US,en;q=0.9,es;q=0.8","true","752","tones/880hz_short.mp3","s","","","tone_number_task","992.5","67","tones/880hz_short.mp3","1142.5","100","0","37",""
"","","","","","html-keyboard-response","205","248396","0.0-249.0-0.0","33","1","2023-10-24 18:13:33","a725c3012b74bf33a1020a98cb69c237","130.41.68.136","Mozilla/5.0 (Windows NT 10.0; Win64; x64) AppleWebKit/537.36 (KHTML, like Gecko) Chrome/118.0.0.0 Safari/537.36 Edg/118.0.2088.61","WebKit","Edge","118.0.2088.61","Windows","10.0","null","en-US,en;q=0.9,es;q=0.8","true","null","","null","","","delay_block","","","","","","0","37",""
"","","","","","html-keyboard-response","206","248552","0.0-249.0-1.0","33","1","2023-10-24 18:13:33","a725c3012b74bf33a1020a98cb69c237","130.41.68.136","Mozilla/5.0 (Windows NT 10.0; Win64; x64) AppleWebKit/537.36 (KHTML, like Gecko) Chrome/118.0.0.0 Safari/537.36 Edg/118.0.2088.61","WebKit","Edge","118.0.2088.61","Windows","10.0","null","en-US,en;q=0.9,es;q=0.8","true","null","<p id=""stimulus"" style=""font-size:100px;"">67</p>","null","","","tone_number_task_remaining_before_delay","","67","","390.5","100","0","37",""
"","","","","","html-keyboard-response","207","248885","0.0-252.0-0.0","33","1","2023-10-24 18:13:33","a725c3012b74bf33a1020a98cb69c237","130.41.68.136","Mozilla/5.0 (Windows NT 10.0; Win64; x64) AppleWebKit/537.36 (KHTML, like Gecko) Chrome/118.0.0.0 Safari/537.36 Edg/118.0.2088.61","WebKit","Edge","118.0.2088.61","Windows","10.0","null","en-US,en;q=0.9,es;q=0.8","true","327","<p id=""stimulus"" style=""font-size:100px;"">67</p>","k","","","empty_block","","67","","","","0","37",""
