"success","timeout","failed_images","failed_audio","failed_video","trial_type","trial_index","time_elapsed","internal_node_id","run_id","condition","recorded_at","source_code_version","ip","user_agent","device","browser","browser_version","platform","platform_version","referer","accept_language","check","rt","stimulus","response","question_order","url","task","delay","number","audioFile","trial_duration","font_size","block","round","value"
"true","false","[]","[]","[]","preload","0","346","0.0-0.0","65","1","2023-11-01 18:12:01","a725c3012b74bf33a1020a98cb69c237","201.231.237.246","Mozilla/5.0 (Windows NT 10.0; Win64; x64) AppleWebKit/537.36 (KHTML, like Gecko) Chrome/118.0.0.0 Safari/537.36","WebKit","Chrome","118.0.0.0","Windows","10.0","null","es-ES,es;q=0.8","true","","","","","","","","","","","","","",""
"true","","","","","fullscreen","1","5846","0.0-1.0","65","1","2023-11-01 18:12:01","a725c3012b74bf33a1020a98cb69c237","201.231.237.246","Mozilla/5.0 (Windows NT 10.0; Win64; x64) AppleWebKit/537.36 (KHTML, like Gecko) Chrome/118.0.0.0 Safari/537.36","WebKit","Chrome","118.0.0.0","Windows","10.0","null","es-ES,es;q=0.8","true","","","","","","","","","","","","","",""
"","","","","","html-button-response","2","7902","0.0-2.0","65","1","2023-11-01 18:12:01","a725c3012b74bf33a1020a98cb69c237","201.231.237.246","Mozilla/5.0 (Windows NT 10.0; Win64; x64) AppleWebKit/537.36 (KHTML, like Gecko) Chrome/118.0.0.0 Safari/537.36","WebKit","Chrome","118.0.0.0","Windows","10.0","null","es-ES,es;q=0.8","true","2055","<p style=""font-size:24px; color:red;"">Cosas importantes a tener en cuenta antes de comenzar el experimento:</p>","0","","","","","","","","","","",""
"","","","","","html-button-response","3","12421","0.0-3.0","65","1","2023-11-01 18:12:01","a725c3012b74bf33a1020a98cb69c237","201.231.237.246","Mozilla/5.0 (Windows NT 10.0; Win64; x64) AppleWebKit/537.36 (KHTML, like Gecko) Chrome/118.0.0.0 Safari/537.36","WebKit","Chrome","118.0.0.0","Windows","10.0","null","es-ES,es;q=0.8","true","4518","<p style=""font-size:24px;"">El experimento dura aproximadamente 15 minutos.</p><p style=""font-size:24px;"">Por favor, no cierres la ventana del navegador durante el experimento.</p><p style=""font-size:24px;"">Si se completa de forma parcial, no se guardará ningún resultado.</p>","0","","","","","","","","","","",""
"","","","","","html-button-response","4","20976","0.0-4.0","65","1","2023-11-01 18:12:01","a725c3012b74bf33a1020a98cb69c237","201.231.237.246","Mozilla/5.0 (Windows NT 10.0; Win64; x64) AppleWebKit/537.36 (KHTML, like Gecko) Chrome/118.0.0.0 Safari/537.36","WebKit","Chrome","118.0.0.0","Windows","10.0","null","es-ES,es;q=0.8","true","8555","<p style=""font-size:24px;"">El experimento contiene estímulos sonoros.</p>","0","","","","","","","","","","",""
"","","","","","audio-button-response","5","26338","0.0-5.0-0.0","65","1","2023-11-01 18:12:01","a725c3012b74bf33a1020a98cb69c237","201.231.237.246","Mozilla/5.0 (Windows NT 10.0; Win64; x64) AppleWebKit/537.36 (KHTML, like Gecko) Chrome/118.0.0.0 Safari/537.36","WebKit","Chrome","118.0.0.0","Windows","10.0","null","es-ES,es;q=0.8","true","5331","tones/440hz_short.mp3","0","","","","","","","","","","",""
"","","","","","audio-button-response","6","27070","0.0-5.1-0.1","65","1","2023-11-01 18:12:01","a725c3012b74bf33a1020a98cb69c237","201.231.237.246","Mozilla/5.0 (Windows NT 10.0; Win64; x64) AppleWebKit/537.36 (KHTML, like Gecko) Chrome/118.0.0.0 Safari/537.36","WebKit","Chrome","118.0.0.0","Windows","10.0","null","es-ES,es;q=0.8","true","731","tones/440hz_short.mp3","0","","","","","","","","","","",""
"","","","","","audio-button-response","7","27391","0.0-5.2-0.2","65","1","2023-11-01 18:12:01","a725c3012b74bf33a1020a98cb69c237","201.231.237.246","Mozilla/5.0 (Windows NT 10.0; Win64; x64) AppleWebKit/537.36 (KHTML, like Gecko) Chrome/118.0.0.0 Safari/537.36","WebKit","Chrome","118.0.0.0","Windows","10.0","null","es-ES,es;q=0.8","true","320","tones/440hz_short.mp3","0","","","","","","","","","","",""
"","","","","","audio-button-response","8","27828","0.0-5.3-0.3","65","1","2023-11-01 18:12:01","a725c3012b74bf33a1020a98cb69c237","201.231.237.246","Mozilla/5.0 (Windows NT 10.0; Win64; x64) AppleWebKit/537.36 (KHTML, like Gecko) Chrome/118.0.0.0 Safari/537.36","WebKit","Chrome","118.0.0.0","Windows","10.0","null","es-ES,es;q=0.8","true","432","tones/440hz_short.mp3","1","","","","","","","","","","",""
"","","","","","audio-button-response","9","28851","0.0-6.0-0.0","65","1","2023-11-01 18:12:01","a725c3012b74bf33a1020a98cb69c237","201.231.237.246","Mozilla/5.0 (Windows NT 10.0; Win64; x64) AppleWebKit/537.36 (KHTML, like Gecko) Chrome/118.0.0.0 Safari/537.36","WebKit","Chrome","118.0.0.0","Windows","10.0","null","es-ES,es;q=0.8","true","1019","tones/880hz_short.mp3","1","","","","","","","","","","",""
"","","","","","survey-html-form","10","32275","0.0-7.0","65","1","2023-11-01 18:12:01","a725c3012b74bf33a1020a98cb69c237","201.231.237.246","Mozilla/5.0 (Windows NT 10.0; Win64; x64) AppleWebKit/537.36 (KHTML, like Gecko) Chrome/118.0.0.0 Safari/537.36","WebKit","Chrome","118.0.0.0","Windows","10.0","null","es-ES,es;q=0.8","true","3419","","{""response"":""27""}","","","","","","","","","","",""
"","","","","","survey-multi-choice","11","36093","0.0-8.0","65","1","2023-11-01 18:12:01","a725c3012b74bf33a1020a98cb69c237","201.231.237.246","Mozilla/5.0 (Windows NT 10.0; Win64; x64) AppleWebKit/537.36 (KHTML, like Gecko) Chrome/118.0.0.0 Safari/537.36","WebKit","Chrome","118.0.0.0","Windows","10.0","null","es-ES,es;q=0.8","true","3816","","{""gender"":""Hombre"",""hand"":""Derecha""}","[0,1]","","","","","","","","","",""
"","","","","","external-html","12","94600","0.0-9.0","65","1","2023-11-01 18:12:01","a725c3012b74bf33a1020a98cb69c237","201.231.237.246","Mozilla/5.0 (Windows NT 10.0; Win64; x64) AppleWebKit/537.36 (KHTML, like Gecko) Chrome/118.0.0.0 Safari/537.36","WebKit","Chrome","118.0.0.0","Windows","10.0","null","es-ES,es;q=0.8","true","58228","","","","instructions/instructions.html","","","","","","","","",""
"","","","","","external-html","13","118954","0.0-10.0","65","1","2023-11-01 18:12:01","a725c3012b74bf33a1020a98cb69c237","201.231.237.246","Mozilla/5.0 (Windows NT 10.0; Win64; x64) AppleWebKit/537.36 (KHTML, like Gecko) Chrome/118.0.0.0 Safari/537.36","WebKit","Chrome","118.0.0.0","Windows","10.0","null","es-ES,es;q=0.8","true","24075","","","","instructions/animation.html","","","","","","","","",""
"","","","","","html-keyboard-response","14","121938","0.0-11.0-0.0","65","1","2023-11-01 18:12:01","a725c3012b74bf33a1020a98cb69c237","201.231.237.246","Mozilla/5.0 (Windows NT 10.0; Win64; x64) AppleWebKit/537.36 (KHTML, like Gecko) Chrome/118.0.0.0 Safari/537.36","WebKit","Chrome","118.0.0.0","Windows","10.0","null","es-ES,es;q=0.8","true","null","<div style=""font-size:100px;"">X</div>","null","","","fixation","","","","","","","",""
"","","","","","audio-keyboard-response","15","122904","0.0-11.0-1.0","65","1","2023-11-01 18:12:01","a725c3012b74bf33a1020a98cb69c237","201.231.237.246","Mozilla/5.0 (Windows NT 10.0; Win64; x64) AppleWebKit/537.36 (KHTML, like Gecko) Chrome/118.0.0.0 Safari/537.36","WebKit","Chrome","118.0.0.0","Windows","10.0","null","es-ES,es;q=0.8","true","960","tones/880hz_short.mp3","a","","","tone_number_task","1000","34","tones/880hz_short.mp3","1150","100","null","null",""
"","","","","","html-keyboard-response","16","122946","0.0-11.0-2.0-0.0","65","1","2023-11-01 18:12:01","a725c3012b74bf33a1020a98cb69c237","201.231.237.246","Mozilla/5.0 (Windows NT 10.0; Win64; x64) AppleWebKit/537.36 (KHTML, like Gecko) Chrome/118.0.0.0 Safari/537.36","WebKit","Chrome","118.0.0.0","Windows","10.0","null","es-ES,es;q=0.8","true","null","","null","","","delay_block","","","","","","null","null",""
"","","","","","html-keyboard-response","17","123098","0.0-11.0-2.0-1.0","65","1","2023-11-01 18:12:01","a725c3012b74bf33a1020a98cb69c237","201.231.237.246","Mozilla/5.0 (Windows NT 10.0; Win64; x64) AppleWebKit/537.36 (KHTML, like Gecko) Chrome/118.0.0.0 Safari/537.36","WebKit","Chrome","118.0.0.0","Windows","10.0","null","es-ES,es;q=0.8","true","null","<p id=""stimulus"" style=""font-size:100px;"">34</p>","null","","","tone_number_task_remaining_before_delay","","34","","190","100","null","null",""
"","","","","","html-keyboard-response","18","126074","0.0-11.0-5.0-0.0","65","1","2023-11-01 18:12:01","a725c3012b74bf33a1020a98cb69c237","201.231.237.246","Mozilla/5.0 (Windows NT 10.0; Win64; x64) AppleWebKit/537.36 (KHTML, like Gecko) Chrome/118.0.0.0 Safari/537.36","WebKit","Chrome","118.0.0.0","Windows","10.0","null","es-ES,es;q=0.8","true","2975","<p id=""stimulus"" style=""font-size:100px;"">34</p>","j","","","empty_block","","34","","","","null","null",""
"","","","","","html-button-response","19","131651","0.0-11.0-6.0-0.0","65","1","2023-11-01 18:12:01","a725c3012b74bf33a1020a98cb69c237","201.231.237.246","Mozilla/5.0 (Windows NT 10.0; Win64; x64) AppleWebKit/537.36 (KHTML, like Gecko) Chrome/118.0.0.0 Safari/537.36","WebKit","Chrome","118.0.0.0","Windows","10.0","null","es-ES,es;q=0.8","true","5575","
  '<p style=""font-size:24px; color:red;"">Incorrecto</p><p> Respondiste alguno de los estímulos de manera incorrecta.</p><p>Por favor, repasá las instrucciones y seguimos desde donde nos quedamos. </p>
  ","0","","","","","","","","","","",""
"","","","","","external-html","20","153678","0.0-11.0-6.0-1.0","65","1","2023-11-01 18:12:01","a725c3012b74bf33a1020a98cb69c237","201.231.237.246","Mozilla/5.0 (Windows NT 10.0; Win64; x64) AppleWebKit/537.36 (KHTML, like Gecko) Chrome/118.0.0.0 Safari/537.36","WebKit","Chrome","118.0.0.0","Windows","10.0","null","es-ES,es;q=0.8","true","21745","","","","instructions/instructions_B.html","","","","","","","","",""
"","","","","","html-keyboard-response","21","156663","0.0-11.1-0.1","65","1","2023-11-01 18:12:01","a725c3012b74bf33a1020a98cb69c237","201.231.237.246","Mozilla/5.0 (Windows NT 10.0; Win64; x64) AppleWebKit/537.36 (KHTML, like Gecko) Chrome/118.0.0.0 Safari/537.36","WebKit","Chrome","118.0.0.0","Windows","10.0","null","es-ES,es;q=0.8","true","null","<div style=""font-size:100px;"">X</div>","null","","","fixation","","","","","","","",""
"","","","","","audio-keyboard-response","22","157204","0.0-11.1-1.1","65","1","2023-11-01 18:12:01","a725c3012b74bf33a1020a98cb69c237","201.231.237.246","Mozilla/5.0 (Windows NT 10.0; Win64; x64) AppleWebKit/537.36 (KHTML, like Gecko) Chrome/118.0.0.0 Safari/537.36","WebKit","Chrome","118.0.0.0","Windows","10.0","null","es-ES,es;q=0.8","true","541","tones/880hz_short.mp3","s","","","tone_number_task","1000","34","tones/880hz_short.mp3","1150","100","null","null",""
"","","","","","html-keyboard-response","23","157665","0.0-11.1-2.1-0.1","65","1","2023-11-01 18:12:01","a725c3012b74bf33a1020a98cb69c237","201.231.237.246","Mozilla/5.0 (Windows NT 10.0; Win64; x64) AppleWebKit/537.36 (KHTML, like Gecko) Chrome/118.0.0.0 Safari/537.36","WebKit","Chrome","118.0.0.0","Windows","10.0","null","es-ES,es;q=0.8","true","null","","null","","","delay_block","","","","","","null","null",""
"","","","","","html-keyboard-response","24","157821","0.0-11.1-2.1-1.1","65","1","2023-11-01 18:12:01","a725c3012b74bf33a1020a98cb69c237","201.231.237.246","Mozilla/5.0 (Windows NT 10.0; Win64; x64) AppleWebKit/537.36 (KHTML, like Gecko) Chrome/118.0.0.0 Safari/537.36","WebKit","Chrome","118.0.0.0","Windows","10.0","null","es-ES,es;q=0.8","true","null","<p id=""stimulus"" style=""font-size:100px;"">34</p>","null","","","tone_number_task_remaining_before_delay","","34","","609","100","null","null",""
"","","","","","html-keyboard-response","25","158174","0.0-11.1-5.1-0.1","65","1","2023-11-01 18:12:01","a725c3012b74bf33a1020a98cb69c237","201.231.237.246","Mozilla/5.0 (Windows NT 10.0; Win64; x64) AppleWebKit/537.36 (KHTML, like Gecko) Chrome/118.0.0.0 Safari/537.36","WebKit","Chrome","118.0.0.0","Windows","10.0","null","es-ES,es;q=0.8","true","353","<p id=""stimulus"" style=""font-size:100px;"">34</p>","j","","","empty_block","","34","","","","null","null",""
"","","","","","html-keyboard-response","26","161157","0.0-13.0-0.0","65","1","2023-11-01 18:12:01","a725c3012b74bf33a1020a98cb69c237","201.231.237.246","Mozilla/5.0 (Windows NT 10.0; Win64; x64) AppleWebKit/537.36 (KHTML, like Gecko) Chrome/118.0.0.0 Safari/537.36","WebKit","Chrome","118.0.0.0","Windows","10.0","null","es-ES,es;q=0.8","true","null","<div style=""font-size:100px;"">X</div>","null","","","fixation","","","","","","","",""
"","","","","","audio-keyboard-response","27","161810","0.0-13.0-1.0","65","1","2023-11-01 18:12:01","a725c3012b74bf33a1020a98cb69c237","201.231.237.246","Mozilla/5.0 (Windows NT 10.0; Win64; x64) AppleWebKit/537.36 (KHTML, like Gecko) Chrome/118.0.0.0 Safari/537.36","WebKit","Chrome","118.0.0.0","Windows","10.0","null","es-ES,es;q=0.8","true","null","tones/440hz_short.mp3","null","","","tone_number_task","500","62","tones/440hz_short.mp3","650","100","null","null",""
"","","","","","html-keyboard-response","28","163164","0.0-13.0-4.0-0.0","65","1","2023-11-01 18:12:01","a725c3012b74bf33a1020a98cb69c237","201.231.237.246","Mozilla/5.0 (Windows NT 10.0; Win64; x64) AppleWebKit/537.36 (KHTML, like Gecko) Chrome/118.0.0.0 Safari/537.36","WebKit","Chrome","118.0.0.0","Windows","10.0","null","es-ES,es;q=0.8","true","1353","tones/440hz_short.mp3","s","","","empty_block","","62","","","","null","null",""
"","","","","","html-keyboard-response","29","163174","0.0-13.0-4.0-1.0","65","1","2023-11-01 18:12:01","a725c3012b74bf33a1020a98cb69c237","201.231.237.246","Mozilla/5.0 (Windows NT 10.0; Win64; x64) AppleWebKit/537.36 (KHTML, like Gecko) Chrome/118.0.0.0 Safari/537.36","WebKit","Chrome","118.0.0.0","Windows","10.0","null","es-ES,es;q=0.8","true","9","tones/440hz_short.mp3","k","","","empty_block","","62","","","","null","null",""
"","","","","","html-button-response","30","167204","0.0-13.0-6.0-0.0","65","1","2023-11-01 18:12:01","a725c3012b74bf33a1020a98cb69c237","201.231.237.246","Mozilla/5.0 (Windows NT 10.0; Win64; x64) AppleWebKit/537.36 (KHTML, like Gecko) Chrome/118.0.0.0 Safari/537.36","WebKit","Chrome","118.0.0.0","Windows","10.0","null","es-ES,es;q=0.8","true","4029","
  '<p style=""font-size:24px; color:red;"">Incorrecto</p><p> Respondiste alguno de los estímulos de manera incorrecta.</p><p>Por favor, repasá las instrucciones y seguimos desde donde nos quedamos. </p>
  ","0","","","","","","","","","","",""
"","","","","","external-html","31","190260","0.0-13.0-6.0-1.0","65","1","2023-11-01 18:12:01","a725c3012b74bf33a1020a98cb69c237","201.231.237.246","Mozilla/5.0 (Windows NT 10.0; Win64; x64) AppleWebKit/537.36 (KHTML, like Gecko) Chrome/118.0.0.0 Safari/537.36","WebKit","Chrome","118.0.0.0","Windows","10.0","null","es-ES,es;q=0.8","true","22795","","","","instructions/instructions_B.html","","","","","","","","",""
"","","","","","html-keyboard-response","32","193244","0.0-13.1-0.1","65","1","2023-11-01 18:12:01","a725c3012b74bf33a1020a98cb69c237","201.231.237.246","Mozilla/5.0 (Windows NT 10.0; Win64; x64) AppleWebKit/537.36 (KHTML, like Gecko) Chrome/118.0.0.0 Safari/537.36","WebKit","Chrome","118.0.0.0","Windows","10.0","null","es-ES,es;q=0.8","true","null","<div style=""font-size:100px;"">X</div>","null","","","fixation","","","","","","","",""
"","","","","","audio-keyboard-response","33","193897","0.0-13.1-1.1","65","1","2023-11-01 18:12:01","a725c3012b74bf33a1020a98cb69c237","201.231.237.246","Mozilla/5.0 (Windows NT 10.0; Win64; x64) AppleWebKit/537.36 (KHTML, like Gecko) Chrome/118.0.0.0 Safari/537.36","WebKit","Chrome","118.0.0.0","Windows","10.0","null","es-ES,es;q=0.8","true","null","tones/440hz_short.mp3","null","","","tone_number_task","500","62","tones/440hz_short.mp3","650","100","null","null",""
"","","","","","html-keyboard-response","34","194494","0.0-13.1-4.1-0.1","65","1","2023-11-01 18:12:01","a725c3012b74bf33a1020a98cb69c237","201.231.237.246","Mozilla/5.0 (Windows NT 10.0; Win64; x64) AppleWebKit/537.36 (KHTML, like Gecko) Chrome/118.0.0.0 Safari/537.36","WebKit","Chrome","118.0.0.0","Windows","10.0","null","es-ES,es;q=0.8","true","596","tones/440hz_short.mp3","a","","","empty_block","","62","","","","null","null",""
"","","","","","html-keyboard-response","35","194824","0.0-13.1-4.1-1.1","65","1","2023-11-01 18:12:01","a725c3012b74bf33a1020a98cb69c237","201.231.237.246","Mozilla/5.0 (Windows NT 10.0; Win64; x64) AppleWebKit/537.36 (KHTML, like Gecko) Chrome/118.0.0.0 Safari/537.36","WebKit","Chrome","118.0.0.0","Windows","10.0","null","es-ES,es;q=0.8","true","328","tones/440hz_short.mp3","k","","","empty_block","","62","","","","null","null",""
"","","","","","html-keyboard-response","36","197807","0.0-15.0-0.0","65","1","2023-11-01 18:12:01","a725c3012b74bf33a1020a98cb69c237","201.231.237.246","Mozilla/5.0 (Windows NT 10.0; Win64; x64) AppleWebKit/537.36 (KHTML, like Gecko) Chrome/118.0.0.0 Safari/537.36","WebKit","Chrome","118.0.0.0","Windows","10.0","null","es-ES,es;q=0.8","true","null","<div style=""font-size:100px;"">X</div>","null","","","fixation","","","","","","","",""
"","","","","","audio-keyboard-response","37","198109","0.0-15.0-1.0","65","1","2023-11-01 18:12:01","a725c3012b74bf33a1020a98cb69c237","201.231.237.246","Mozilla/5.0 (Windows NT 10.0; Win64; x64) AppleWebKit/537.36 (KHTML, like Gecko) Chrome/118.0.0.0 Safari/537.36","WebKit","Chrome","118.0.0.0","Windows","10.0","null","es-ES,es;q=0.8","true","null","tones/440hz_short.mp3","null","","","tone_number_task","150","55","tones/440hz_short.mp3","300","100","null","null",""
"","","","","","html-keyboard-response","38","198654","0.0-15.0-4.0-0.0","65","1","2023-11-01 18:12:01","a725c3012b74bf33a1020a98cb69c237","201.231.237.246","Mozilla/5.0 (Windows NT 10.0; Win64; x64) AppleWebKit/537.36 (KHTML, like Gecko) Chrome/118.0.0.0 Safari/537.36","WebKit","Chrome","118.0.0.0","Windows","10.0","null","es-ES,es;q=0.8","true","545","tones/440hz_short.mp3","a","","","empty_block","","55","","","","null","null",""
"","","","","","html-keyboard-response","39","198984","0.0-15.0-4.0-1.0","65","1","2023-11-01 18:12:01","a725c3012b74bf33a1020a98cb69c237","201.231.237.246","Mozilla/5.0 (Windows NT 10.0; Win64; x64) AppleWebKit/537.36 (KHTML, like Gecko) Chrome/118.0.0.0 Safari/537.36","WebKit","Chrome","118.0.0.0","Windows","10.0","null","es-ES,es;q=0.8","true","328","tones/440hz_short.mp3","k","","","empty_block","","55","","","","null","null",""
"","","","","","html-keyboard-response","40","201967","0.0-17.0-0.0","65","1","2023-11-01 18:12:01","a725c3012b74bf33a1020a98cb69c237","201.231.237.246","Mozilla/5.0 (Windows NT 10.0; Win64; x64) AppleWebKit/537.36 (KHTML, like Gecko) Chrome/118.0.0.0 Safari/537.36","WebKit","Chrome","118.0.0.0","Windows","10.0","null","es-ES,es;q=0.8","true","null","<div style=""font-size:100px;"">X</div>","null","","","fixation","","","","","","","",""
"","","","","","audio-keyboard-response","41","202171","0.0-17.0-1.0","65","1","2023-11-01 18:12:01","a725c3012b74bf33a1020a98cb69c237","201.231.237.246","Mozilla/5.0 (Windows NT 10.0; Win64; x64) AppleWebKit/537.36 (KHTML, like Gecko) Chrome/118.0.0.0 Safari/537.36","WebKit","Chrome","118.0.0.0","Windows","10.0","null","es-ES,es;q=0.8","true","null","tones/880hz_short.mp3","null","","","tone_number_task","50","21","tones/880hz_short.mp3","200","100","null","null",""
"","","","","","html-keyboard-response","42","202734","0.0-17.0-4.0-0.0","65","1","2023-11-01 18:12:01","a725c3012b74bf33a1020a98cb69c237","201.231.237.246","Mozilla/5.0 (Windows NT 10.0; Win64; x64) AppleWebKit/537.36 (KHTML, like Gecko) Chrome/118.0.0.0 Safari/537.36","WebKit","Chrome","118.0.0.0","Windows","10.0","null","es-ES,es;q=0.8","true","562","tones/880hz_short.mp3","s","","","empty_block","","21","","","","null","null",""
"","","","","","html-keyboard-response","43","203244","0.0-17.0-4.0-1.0","65","1","2023-11-01 18:12:01","a725c3012b74bf33a1020a98cb69c237","201.231.237.246","Mozilla/5.0 (Windows NT 10.0; Win64; x64) AppleWebKit/537.36 (KHTML, like Gecko) Chrome/118.0.0.0 Safari/537.36","WebKit","Chrome","118.0.0.0","Windows","10.0","null","es-ES,es;q=0.8","true","509","tones/880hz_short.mp3","j","","","empty_block","","21","","","","null","null",""
"","","","","","html-button-response","44","212471","0.0-19.0","65","1","2023-11-01 18:12:01","a725c3012b74bf33a1020a98cb69c237","201.231.237.246","Mozilla/5.0 (Windows NT 10.0; Win64; x64) AppleWebKit/537.36 (KHTML, like Gecko) Chrome/118.0.0.0 Safari/537.36","WebKit","Chrome","118.0.0.0","Windows","10.0","null","es-ES,es;q=0.8","true","9226","
  <h1> Muy bien </h1>
  <p> Ahora, en vez de ser presentados en dígitos, los números vendrán escritos en palabras. </p>
  <p> Por ejemplo, en vez de 44 te aparecerá ""cuarenta y cuatro"". </p>
  ","0","","","","","","","","","","",""
"","","","","","html-keyboard-response","45","215455","0.0-20.0-0.0","65","1","2023-11-01 18:12:01","a725c3012b74bf33a1020a98cb69c237","201.231.237.246","Mozilla/5.0 (Windows NT 10.0; Win64; x64) AppleWebKit/537.36 (KHTML, like Gecko) Chrome/118.0.0.0 Safari/537.36","WebKit","Chrome","118.0.0.0","Windows","10.0","null","es-ES,es;q=0.8","true","null","<div style=""font-size:100px;"">X</div>","null","","","fixation","","","","","","","",""
"","","","","","audio-keyboard-response","46","216094","0.0-20.0-1.0","65","1","2023-11-01 18:12:01","a725c3012b74bf33a1020a98cb69c237","201.231.237.246","Mozilla/5.0 (Windows NT 10.0; Win64; x64) AppleWebKit/537.36 (KHTML, like Gecko) Chrome/118.0.0.0 Safari/537.36","WebKit","Chrome","118.0.0.0","Windows","10.0","null","es-ES,es;q=0.8","true","629","tones/880hz_short.mp3","s","","","tone_number_task","1000","cincuenta y siete","tones/880hz_short.mp3","1150","60","null","null",""
"","","","","","html-keyboard-response","47","216468","0.0-20.0-2.0-0.0","65","1","2023-11-01 18:12:01","a725c3012b74bf33a1020a98cb69c237","201.231.237.246","Mozilla/5.0 (Windows NT 10.0; Win64; x64) AppleWebKit/537.36 (KHTML, like Gecko) Chrome/118.0.0.0 Safari/537.36","WebKit","Chrome","118.0.0.0","Windows","10.0","null","es-ES,es;q=0.8","true","null","","null","","","delay_block","","","","","","null","null",""
"","","","","","html-keyboard-response","48","216620","0.0-20.0-2.0-1.0","65","1","2023-11-01 18:12:01","a725c3012b74bf33a1020a98cb69c237","201.231.237.246","Mozilla/5.0 (Windows NT 10.0; Win64; x64) AppleWebKit/537.36 (KHTML, like Gecko) Chrome/118.0.0.0 Safari/537.36","WebKit","Chrome","118.0.0.0","Windows","10.0","null","es-ES,es;q=0.8","true","null","<p id=""stimulus"" style=""font-size:60px;"">cincuenta y siete</p>","null","","","tone_number_task_remaining_before_delay","","cincuenta y siete","","521","60","null","null",""
"","","","","","html-keyboard-response","49","217314","0.0-20.0-5.0-0.0","65","1","2023-11-01 18:12:01","a725c3012b74bf33a1020a98cb69c237","201.231.237.246","Mozilla/5.0 (Windows NT 10.0; Win64; x64) AppleWebKit/537.36 (KHTML, like Gecko) Chrome/118.0.0.0 Safari/537.36","WebKit","Chrome","118.0.0.0","Windows","10.0","null","es-ES,es;q=0.8","true","691","<p id=""stimulus"" style=""font-size:60px;"">cincuenta y siete</p>","k","","","empty_block","","cincuenta y siete","","","","null","null",""
"","","","","","html-button-response","50","225942","0.0-22.0","65","1","2023-11-01 18:12:01","a725c3012b74bf33a1020a98cb69c237","201.231.237.246","Mozilla/5.0 (Windows NT 10.0; Win64; x64) AppleWebKit/537.36 (KHTML, like Gecko) Chrome/118.0.0.0 Safari/537.36","WebKit","Chrome","118.0.0.0","Windows","10.0","null","es-ES,es;q=0.8","true","8626","
  <h1> Fin del Entrenamiento </h1>
  <p> ¡Felicitaciones, terminaste el entrenamiento! Ahora vamos a comenzar con el experimento. </p>
  <p> Es importante tener en cuenta que consta de cuatro bloques.</p>
  <p> Podés aprovechar los momentos entre bloques para tomar un breve descanso o tomar agua entre cada uno</p>
  <p> Recordá que tenés que responder lo más rápido que puedas, pero sin equivocarte. </p>
  ","0","","","","","","","","","","",""
"","","","","","external-html","51","231841","0.0-23.0","65","1","2023-11-01 18:12:01","a725c3012b74bf33a1020a98cb69c237","201.231.237.246","Mozilla/5.0 (Windows NT 10.0; Win64; x64) AppleWebKit/537.36 (KHTML, like Gecko) Chrome/118.0.0.0 Safari/537.36","WebKit","Chrome","118.0.0.0","Windows","10.0","null","es-ES,es;q=0.8","true","5624","","","","instructions/instructions_words_first.html","","","","","","","","",""
"","","","","","call-function","52","231844","0.0-24.0","65","1","2023-11-01 18:12:01","a725c3012b74bf33a1020a98cb69c237","201.231.237.246","Mozilla/5.0 (Windows NT 10.0; Win64; x64) AppleWebKit/537.36 (KHTML, like Gecko) Chrome/118.0.0.0 Safari/537.36","WebKit","Chrome","118.0.0.0","Windows","10.0","null","es-ES,es;q=0.8","true","","","","","","","","","","","","","",""
"","","","","","html-keyboard-response","53","234828","0.0-25.0","65","1","2023-11-01 18:12:01","a725c3012b74bf33a1020a98cb69c237","201.231.237.246","Mozilla/5.0 (Windows NT 10.0; Win64; x64) AppleWebKit/537.36 (KHTML, like Gecko) Chrome/118.0.0.0 Safari/537.36","WebKit","Chrome","118.0.0.0","Windows","10.0","null","es-ES,es;q=0.8","true","null","<div style=""font-size:100px;"">X</div>","null","","","fixation","","","","","","","",""
"","","","","","audio-keyboard-response","54","235081","0.0-26.0","65","1","2023-11-01 18:12:01","a725c3012b74bf33a1020a98cb69c237","201.231.237.246","Mozilla/5.0 (Windows NT 10.0; Win64; x64) AppleWebKit/537.36 (KHTML, like Gecko) Chrome/118.0.0.0 Safari/537.36","WebKit","Chrome","118.0.0.0","Windows","10.0","null","es-ES,es;q=0.8","true","null","tones/880hz_short.mp3","null","","","tone_number_task","102.5","treinta","tones/880hz_short.mp3","252.5","60","2","0",""
"","","","","","html-keyboard-response","55","236284","0.0-29.0-0.0","65","1","2023-11-01 18:12:01","a725c3012b74bf33a1020a98cb69c237","201.231.237.246","Mozilla/5.0 (Windows NT 10.0; Win64; x64) AppleWebKit/537.36 (KHTML, like Gecko) Chrome/118.0.0.0 Safari/537.36","WebKit","Chrome","118.0.0.0","Windows","10.0","null","es-ES,es;q=0.8","true","null","tones/880hz_short.mp3","null","","","empty_block","","treinta","","","","2","0",""
"","","","","","html-keyboard-response","56","236454","0.0-29.0-1.0","65","1","2023-11-01 18:12:01","a725c3012b74bf33a1020a98cb69c237","201.231.237.246","Mozilla/5.0 (Windows NT 10.0; Win64; x64) AppleWebKit/537.36 (KHTML, like Gecko) Chrome/118.0.0.0 Safari/537.36","WebKit","Chrome","118.0.0.0","Windows","10.0","null","es-ES,es;q=0.8","true","169","tones/880hz_short.mp3","a","","","empty_block","","treinta","","","","2","0",""
"","","","","","html-keyboard-response","57","239437","0.0-31.0","65","1","2023-11-01 18:12:01","a725c3012b74bf33a1020a98cb69c237","201.231.237.246","Mozilla/5.0 (Windows NT 10.0; Win64; x64) AppleWebKit/537.36 (KHTML, like Gecko) Chrome/118.0.0.0 Safari/537.36","WebKit","Chrome","118.0.0.0","Windows","10.0","null","es-ES,es;q=0.8","true","null","<div style=""font-size:100px;"">X</div>","null","","","fixation","","","","","","","",""
"","","","","","audio-keyboard-response","58","240505","0.0-32.0","65","1","2023-11-01 18:12:01","a725c3012b74bf33a1020a98cb69c237","201.231.237.246","Mozilla/5.0 (Windows NT 10.0; Win64; x64) AppleWebKit/537.36 (KHTML, like Gecko) Chrome/118.0.0.0 Safari/537.36","WebKit","Chrome","118.0.0.0","Windows","10.0","null","es-ES,es;q=0.8","true","1059","tones/880hz_short.mp3","s","","","tone_number_task","1025","cincuenta y ocho","tones/880hz_short.mp3","1175","60","2","1",""
"","","","","","html-keyboard-response","59","240630","0.0-34.0-0.0","65","1","2023-11-01 18:12:01","a725c3012b74bf33a1020a98cb69c237","201.231.237.246","Mozilla/5.0 (Windows NT 10.0; Win64; x64) AppleWebKit/537.36 (KHTML, like Gecko) Chrome/118.0.0.0 Safari/537.36","WebKit","Chrome","118.0.0.0","Windows","10.0","null","es-ES,es;q=0.8","true","null","<p id=""stimulus"" style=""font-size:60px;"">cincuenta y ocho</p>","null","","","tone_number_task_remaining_after_delay","","cincuenta y ocho","","","60","2","1",""
"","","","","","html-keyboard-response","60","240934","0.0-36.0-0.0","65","1","2023-11-01 18:12:01","a725c3012b74bf33a1020a98cb69c237","201.231.237.246","Mozilla/5.0 (Windows NT 10.0; Win64; x64) AppleWebKit/537.36 (KHTML, like Gecko) Chrome/118.0.0.0 Safari/537.36","WebKit","Chrome","118.0.0.0","Windows","10.0","null","es-ES,es;q=0.8","true","301","<p id=""stimulus"" style=""font-size:60px;"">cincuenta y ocho</p>","k","","","empty_block","","cincuenta y ocho","","","","2","1",""
"","","","","","html-keyboard-response","61","243917","0.0-37.0","65","1","2023-11-01 18:12:01","a725c3012b74bf33a1020a98cb69c237","201.231.237.246","Mozilla/5.0 (Windows NT 10.0; Win64; x64) AppleWebKit/537.36 (KHTML, like Gecko) Chrome/118.0.0.0 Safari/537.36","WebKit","Chrome","118.0.0.0","Windows","10.0","null","es-ES,es;q=0.8","true","null","<div style=""font-size:100px;"">X</div>","null","","","fixation","","","","","","","",""
"","","","","","audio-keyboard-response","62","244485","0.0-38.0","65","1","2023-11-01 18:12:01","a725c3012b74bf33a1020a98cb69c237","201.231.237.246","Mozilla/5.0 (Windows NT 10.0; Win64; x64) AppleWebKit/537.36 (KHTML, like Gecko) Chrome/118.0.0.0 Safari/537.36","WebKit","Chrome","118.0.0.0","Windows","10.0","null","es-ES,es;q=0.8","true","560","tones/440hz_short.mp3","a","","","tone_number_task","992.5","cincuenta y uno","tones/440hz_short.mp3","1142.5","60","2","2",""
"","","","","","html-keyboard-response","63","244920","0.0-39.0-0.0","65","1","2023-11-01 18:12:01","a725c3012b74bf33a1020a98cb69c237","201.231.237.246","Mozilla/5.0 (Windows NT 10.0; Win64; x64) AppleWebKit/537.36 (KHTML, like Gecko) Chrome/118.0.0.0 Safari/537.36","WebKit","Chrome","118.0.0.0","Windows","10.0","null","es-ES,es;q=0.8","true","null","","null","","","delay_block","","","","","","2","2",""
"","","","","","html-keyboard-response","64","245072","0.0-39.0-1.0","65","1","2023-11-01 18:12:01","a725c3012b74bf33a1020a98cb69c237","201.231.237.246","Mozilla/5.0 (Windows NT 10.0; Win64; x64) AppleWebKit/537.36 (KHTML, like Gecko) Chrome/118.0.0.0 Safari/537.36","WebKit","Chrome","118.0.0.0","Windows","10.0","null","es-ES,es;q=0.8","true","null","<p id=""stimulus"" style=""font-size:60px;"">cincuenta y uno</p>","null","","","tone_number_task_remaining_before_delay","","cincuenta y uno","","582.5","60","2","2",""
"","","","","","html-keyboard-response","65","245484","0.0-42.0-0.0","65","1","2023-11-01 18:12:01","a725c3012b74bf33a1020a98cb69c237","201.231.237.246","Mozilla/5.0 (Windows NT 10.0; Win64; x64) AppleWebKit/537.36 (KHTML, like Gecko) Chrome/118.0.0.0 Safari/537.36","WebKit","Chrome","118.0.0.0","Windows","10.0","null","es-ES,es;q=0.8","true","410","<p id=""stimulus"" style=""font-size:60px;"">cincuenta y uno</p>","k","","","empty_block","","cincuenta y uno","","","","2","2",""
"","","","","","html-keyboard-response","66","248467","0.0-43.0","65","1","2023-11-01 18:12:01","a725c3012b74bf33a1020a98cb69c237","201.231.237.246","Mozilla/5.0 (Windows NT 10.0; Win64; x64) AppleWebKit/537.36 (KHTML, like Gecko) Chrome/118.0.0.0 Safari/537.36","WebKit","Chrome","118.0.0.0","Windows","10.0","null","es-ES,es;q=0.8","true","null","<div style=""font-size:100px;"">X</div>","null","","","fixation","","","","","","","",""
"","","","","","audio-keyboard-response","67","249125","0.0-44.0","65","1","2023-11-01 18:12:01","a725c3012b74bf33a1020a98cb69c237","201.231.237.246","Mozilla/5.0 (Windows NT 10.0; Win64; x64) AppleWebKit/537.36 (KHTML, like Gecko) Chrome/118.0.0.0 Safari/537.36","WebKit","Chrome","118.0.0.0","Windows","10.0","null","es-ES,es;q=0.8","true","651","tones/440hz_short.mp3","a","","","tone_number_task","1025","treinta","tones/440hz_short.mp3","1175","60","2","3",""
"","","","","","html-keyboard-response","68","249502","0.0-45.0-0.0","65","1","2023-11-01 18:12:01","a725c3012b74bf33a1020a98cb69c237","201.231.237.246","Mozilla/5.0 (Windows NT 10.0; Win64; x64) AppleWebKit/537.36 (KHTML, like Gecko) Chrome/118.0.0.0 Safari/537.36","WebKit","Chrome","118.0.0.0","Windows","10.0","null","es-ES,es;q=0.8","true","null","","null","","","delay_block","","","","","","2","3",""
"","","","","","html-keyboard-response","69","249656","0.0-45.0-1.0","65","1","2023-11-01 18:12:01","a725c3012b74bf33a1020a98cb69c237","201.231.237.246","Mozilla/5.0 (Windows NT 10.0; Win64; x64) AppleWebKit/537.36 (KHTML, like Gecko) Chrome/118.0.0.0 Safari/537.36","WebKit","Chrome","118.0.0.0","Windows","10.0","null","es-ES,es;q=0.8","true","null","<p id=""stimulus"" style=""font-size:60px;"">treinta</p>","null","","","tone_number_task_remaining_before_delay","","treinta","","524","60","2","3",""
"","","","","","html-keyboard-response","70","249985","0.0-48.0-0.0","65","1","2023-11-01 18:12:01","a725c3012b74bf33a1020a98cb69c237","201.231.237.246","Mozilla/5.0 (Windows NT 10.0; Win64; x64) AppleWebKit/537.36 (KHTML, like Gecko) Chrome/118.0.0.0 Safari/537.36","WebKit","Chrome","118.0.0.0","Windows","10.0","null","es-ES,es;q=0.8","true","327","<p id=""stimulus"" style=""font-size:60px;"">treinta</p>","k","","","empty_block","","treinta","","","","2","3",""
"","","","","","html-keyboard-response","71","252968","0.0-49.0","65","1","2023-11-01 18:12:01","a725c3012b74bf33a1020a98cb69c237","201.231.237.246","Mozilla/5.0 (Windows NT 10.0; Win64; x64) AppleWebKit/537.36 (KHTML, like Gecko) Chrome/118.0.0.0 Safari/537.36","WebKit","Chrome","118.0.0.0","Windows","10.0","null","es-ES,es;q=0.8","true","null","<div style=""font-size:100px;"">X</div>","null","","","fixation","","","","","","","",""
"","","","","","audio-keyboard-response","72","253575","0.0-50.0","65","1","2023-11-01 18:12:01","a725c3012b74bf33a1020a98cb69c237","201.231.237.246","Mozilla/5.0 (Windows NT 10.0; Win64; x64) AppleWebKit/537.36 (KHTML, like Gecko) Chrome/118.0.0.0 Safari/537.36","WebKit","Chrome","118.0.0.0","Windows","10.0","null","es-ES,es;q=0.8","true","611","tones/880hz_short.mp3","s","","","tone_number_task","992.5","cuarenta y tres","tones/880hz_short.mp3","1142.5","60","2","4",""
"","","","","","html-keyboard-response","73","253959","0.0-51.0-0.0","65","1","2023-11-01 18:12:01","a725c3012b74bf33a1020a98cb69c237","201.231.237.246","Mozilla/5.0 (Windows NT 10.0; Win64; x64) AppleWebKit/537.36 (KHTML, like Gecko) Chrome/118.0.0.0 Safari/537.36","WebKit","Chrome","118.0.0.0","Windows","10.0","null","es-ES,es;q=0.8","true","null","","null","","","delay_block","","","","","","2","4",""
"","","","","","html-keyboard-response","74","254112","0.0-51.0-1.0","65","1","2023-11-01 18:12:01","a725c3012b74bf33a1020a98cb69c237","201.231.237.246","Mozilla/5.0 (Windows NT 10.0; Win64; x64) AppleWebKit/537.36 (KHTML, like Gecko) Chrome/118.0.0.0 Safari/537.36","WebKit","Chrome","118.0.0.0","Windows","10.0","null","es-ES,es;q=0.8","true","null","<p id=""stimulus"" style=""font-size:60px;"">cuarenta y tres</p>","null","","","tone_number_task_remaining_before_delay","","cuarenta y tres","","531.5","60","2","4",""
"","","","","","html-keyboard-response","75","254515","0.0-54.0-0.0","65","1","2023-11-01 18:12:01","a725c3012b74bf33a1020a98cb69c237","201.231.237.246","Mozilla/5.0 (Windows NT 10.0; Win64; x64) AppleWebKit/537.36 (KHTML, like Gecko) Chrome/118.0.0.0 Safari/537.36","WebKit","Chrome","118.0.0.0","Windows","10.0","null","es-ES,es;q=0.8","true","401","<p id=""stimulus"" style=""font-size:60px;"">cuarenta y tres</p>","k","","","empty_block","","cuarenta y tres","","","","2","4",""
"","","","","","html-keyboard-response","76","257499","0.0-55.0","65","1","2023-11-01 18:12:01","a725c3012b74bf33a1020a98cb69c237","201.231.237.246","Mozilla/5.0 (Windows NT 10.0; Win64; x64) AppleWebKit/537.36 (KHTML, like Gecko) Chrome/118.0.0.0 Safari/537.36","WebKit","Chrome","118.0.0.0","Windows","10.0","null","es-ES,es;q=0.8","true","null","<div style=""font-size:100px;"">X</div>","null","","","fixation","","","","","","","",""
"","","","","","audio-keyboard-response","77","258085","0.0-56.0","65","1","2023-11-01 18:12:01","a725c3012b74bf33a1020a98cb69c237","201.231.237.246","Mozilla/5.0 (Windows NT 10.0; Win64; x64) AppleWebKit/537.36 (KHTML, like Gecko) Chrome/118.0.0.0 Safari/537.36","WebKit","Chrome","118.0.0.0","Windows","10.0","null","es-ES,es;q=0.8","true","581","tones/880hz_short.mp3","s","","","tone_number_task","992.5","treinta y tres","tones/880hz_short.mp3","1142.5","60","2","5",""
"","","","","","html-keyboard-response","78","258498","0.0-57.0-0.0","65","1","2023-11-01 18:12:01","a725c3012b74bf33a1020a98cb69c237","201.231.237.246","Mozilla/5.0 (Windows NT 10.0; Win64; x64) AppleWebKit/537.36 (KHTML, like Gecko) Chrome/118.0.0.0 Safari/537.36","WebKit","Chrome","118.0.0.0","Windows","10.0","null","es-ES,es;q=0.8","true","null","","null","","","delay_block","","","","","","2","5",""
"","","","","","html-keyboard-response","79","258651","0.0-57.0-1.0","65","1","2023-11-01 18:12:01","a725c3012b74bf33a1020a98cb69c237","201.231.237.246","Mozilla/5.0 (Windows NT 10.0; Win64; x64) AppleWebKit/537.36 (KHTML, like Gecko) Chrome/118.0.0.0 Safari/537.36","WebKit","Chrome","118.0.0.0","Windows","10.0","null","es-ES,es;q=0.8","true","null","<p id=""stimulus"" style=""font-size:60px;"">treinta y tres</p>","null","","","tone_number_task_remaining_before_delay","","treinta y tres","","561.5","60","2","5",""
"","","","","","html-keyboard-response","80","259065","0.0-60.0-0.0","65","1","2023-11-01 18:12:01","a725c3012b74bf33a1020a98cb69c237","201.231.237.246","Mozilla/5.0 (Windows NT 10.0; Win64; x64) AppleWebKit/537.36 (KHTML, like Gecko) Chrome/118.0.0.0 Safari/537.36","WebKit","Chrome","118.0.0.0","Windows","10.0","null","es-ES,es;q=0.8","true","412","<p id=""stimulus"" style=""font-size:60px;"">treinta y tres</p>","j","","","empty_block","","treinta y tres","","","","2","5",""
"","","","","","html-keyboard-response","81","262049","0.0-61.0","65","1","2023-11-01 18:12:01","a725c3012b74bf33a1020a98cb69c237","201.231.237.246","Mozilla/5.0 (Windows NT 10.0; Win64; x64) AppleWebKit/537.36 (KHTML, like Gecko) Chrome/118.0.0.0 Safari/537.36","WebKit","Chrome","118.0.0.0","Windows","10.0","null","es-ES,es;q=0.8","true","null","<div style=""font-size:100px;"">X</div>","null","","","fixation","","","","","","","",""
"","","","","","audio-keyboard-response","82","262304","0.0-62.0","65","1","2023-11-01 18:12:01","a725c3012b74bf33a1020a98cb69c237","201.231.237.246","Mozilla/5.0 (Windows NT 10.0; Win64; x64) AppleWebKit/537.36 (KHTML, like Gecko) Chrome/118.0.0.0 Safari/537.36","WebKit","Chrome","118.0.0.0","Windows","10.0","null","es-ES,es;q=0.8","true","null","tones/880hz_short.mp3","null","","","tone_number_task","102.5","veinticinco","tones/880hz_short.mp3","252.5","60","2","6",""
"","","","","","html-keyboard-response","83","263506","0.0-65.0-0.0","65","1","2023-11-01 18:12:01","a725c3012b74bf33a1020a98cb69c237","201.231.237.246","Mozilla/5.0 (Windows NT 10.0; Win64; x64) AppleWebKit/537.36 (KHTML, like Gecko) Chrome/118.0.0.0 Safari/537.36","WebKit","Chrome","118.0.0.0","Windows","10.0","null","es-ES,es;q=0.8","true","null","tones/880hz_short.mp3","null","","","empty_block","","veinticinco","","","","2","6",""
"","","","","","html-keyboard-response","84","263945","0.0-65.0-1.0","65","1","2023-11-01 18:12:01","a725c3012b74bf33a1020a98cb69c237","201.231.237.246","Mozilla/5.0 (Windows NT 10.0; Win64; x64) AppleWebKit/537.36 (KHTML, like Gecko) Chrome/118.0.0.0 Safari/537.36","WebKit","Chrome","118.0.0.0","Windows","10.0","null","es-ES,es;q=0.8","true","435","tones/880hz_short.mp3","s","","","empty_block","","veinticinco","","","","2","6",""
"","","","","","html-keyboard-response","85","266928","0.0-67.0","65","1","2023-11-01 18:12:01","a725c3012b74bf33a1020a98cb69c237","201.231.237.246","Mozilla/5.0 (Windows NT 10.0; Win64; x64) AppleWebKit/537.36 (KHTML, like Gecko) Chrome/118.0.0.0 Safari/537.36","WebKit","Chrome","118.0.0.0","Windows","10.0","null","es-ES,es;q=0.8","true","null","<div style=""font-size:100px;"">X</div>","null","","","fixation","","","","","","","",""
"","","","","","audio-keyboard-response","86","267745","0.0-68.0","65","1","2023-11-01 18:12:01","a725c3012b74bf33a1020a98cb69c237","201.231.237.246","Mozilla/5.0 (Windows NT 10.0; Win64; x64) AppleWebKit/537.36 (KHTML, like Gecko) Chrome/118.0.0.0 Safari/537.36","WebKit","Chrome","118.0.0.0","Windows","10.0","null","es-ES,es;q=0.8","true","821","tones/880hz_short.mp3","s","","","tone_number_task","992.5","treinta y tres","tones/880hz_short.mp3","1142.5","60","2","7",""
"","","","","","html-keyboard-response","87","267919","0.0-69.0-0.0","65","1","2023-11-01 18:12:01","a725c3012b74bf33a1020a98cb69c237","201.231.237.246","Mozilla/5.0 (Windows NT 10.0; Win64; x64) AppleWebKit/537.36 (KHTML, like Gecko) Chrome/118.0.0.0 Safari/537.36","WebKit","Chrome","118.0.0.0","Windows","10.0","null","es-ES,es;q=0.8","true","null","","null","","","delay_block","","","","","","2","7",""
"","","","","","html-keyboard-response","88","268072","0.0-69.0-1.0","65","1","2023-11-01 18:12:01","a725c3012b74bf33a1020a98cb69c237","201.231.237.246","Mozilla/5.0 (Windows NT 10.0; Win64; x64) AppleWebKit/537.36 (KHTML, like Gecko) Chrome/118.0.0.0 Safari/537.36","WebKit","Chrome","118.0.0.0","Windows","10.0","null","es-ES,es;q=0.8","true","null","<p id=""stimulus"" style=""font-size:60px;"">treinta y tres</p>","null","","","tone_number_task_remaining_before_delay","","treinta y tres","","321.5","60","2","7",""
"","","","","","html-keyboard-response","89","268795","0.0-72.0-0.0","65","1","2023-11-01 18:12:01","a725c3012b74bf33a1020a98cb69c237","201.231.237.246","Mozilla/5.0 (Windows NT 10.0; Win64; x64) AppleWebKit/537.36 (KHTML, like Gecko) Chrome/118.0.0.0 Safari/537.36","WebKit","Chrome","118.0.0.0","Windows","10.0","null","es-ES,es;q=0.8","true","721","<p id=""stimulus"" style=""font-size:60px;"">treinta y tres</p>","j","","","empty_block","","treinta y tres","","","","2","7",""
"","","","","","html-keyboard-response","90","271778","0.0-73.0","65","1","2023-11-01 18:12:01","a725c3012b74bf33a1020a98cb69c237","201.231.237.246","Mozilla/5.0 (Windows NT 10.0; Win64; x64) AppleWebKit/537.36 (KHTML, like Gecko) Chrome/118.0.0.0 Safari/537.36","WebKit","Chrome","118.0.0.0","Windows","10.0","null","es-ES,es;q=0.8","true","null","<div style=""font-size:100px;"">X</div>","null","","","fixation","","","","","","","",""
"","","","","","audio-keyboard-response","91","271930","0.0-74.0","65","1","2023-11-01 18:12:01","a725c3012b74bf33a1020a98cb69c237","201.231.237.246","Mozilla/5.0 (Windows NT 10.0; Win64; x64) AppleWebKit/537.36 (KHTML, like Gecko) Chrome/118.0.0.0 Safari/537.36","WebKit","Chrome","118.0.0.0","Windows","10.0","null","es-ES,es;q=0.8","true","null","tones/880hz_short.mp3","null","","","tone_number_task","0","sesenta y nueve","tones/880hz_short.mp3","150","60","2","8",""
"","","","","","html-keyboard-response","92","272605","0.0-77.0-0.0","65","1","2023-11-01 18:12:01","a725c3012b74bf33a1020a98cb69c237","201.231.237.246","Mozilla/5.0 (Windows NT 10.0; Win64; x64) AppleWebKit/537.36 (KHTML, like Gecko) Chrome/118.0.0.0 Safari/537.36","WebKit","Chrome","118.0.0.0","Windows","10.0","null","es-ES,es;q=0.8","true","673","tones/880hz_short.mp3","s","","","empty_block","","sesenta y nueve","","","","2","8",""
"","","","","","html-keyboard-response","93","273155","0.0-77.0-1.0","65","1","2023-11-01 18:12:01","a725c3012b74bf33a1020a98cb69c237","201.231.237.246","Mozilla/5.0 (Windows NT 10.0; Win64; x64) AppleWebKit/537.36 (KHTML, like Gecko) Chrome/118.0.0.0 Safari/537.36","WebKit","Chrome","118.0.0.0","Windows","10.0","null","es-ES,es;q=0.8","true","548","tones/880hz_short.mp3","k","","","empty_block","","sesenta y nueve","","","","2","8",""
"","","","","","html-keyboard-response","94","276139","0.0-79.0","65","1","2023-11-01 18:12:01","a725c3012b74bf33a1020a98cb69c237","201.231.237.246","Mozilla/5.0 (Windows NT 10.0; Win64; x64) AppleWebKit/537.36 (KHTML, like Gecko) Chrome/118.0.0.0 Safari/537.36","WebKit","Chrome","118.0.0.0","Windows","10.0","null","es-ES,es;q=0.8","true","null","<div style=""font-size:100px;"">X</div>","null","","","fixation","","","","","","","",""
"","","","","","audio-keyboard-response","95","276395","0.0-80.0","65","1","2023-11-01 18:12:01","a725c3012b74bf33a1020a98cb69c237","201.231.237.246","Mozilla/5.0 (Windows NT 10.0; Win64; x64) AppleWebKit/537.36 (KHTML, like Gecko) Chrome/118.0.0.0 Safari/537.36","WebKit","Chrome","118.0.0.0","Windows","10.0","null","es-ES,es;q=0.8","true","null","tones/880hz_short.mp3","null","","","tone_number_task","102.5","cuarenta y nueve","tones/880hz_short.mp3","252.5","60","2","9",""
"","","","","","html-keyboard-response","96","276585","0.0-83.0-0.0","65","1","2023-11-01 18:12:01","a725c3012b74bf33a1020a98cb69c237","201.231.237.246","Mozilla/5.0 (Windows NT 10.0; Win64; x64) AppleWebKit/537.36 (KHTML, like Gecko) Chrome/118.0.0.0 Safari/537.36","WebKit","Chrome","118.0.0.0","Windows","10.0","null","es-ES,es;q=0.8","true","188","tones/880hz_short.mp3","s","","","empty_block","","cuarenta y nueve","","","","2","9",""
"","","","","","html-keyboard-response","97","277015","0.0-83.0-1.0","65","1","2023-11-01 18:12:01","a725c3012b74bf33a1020a98cb69c237","201.231.237.246","Mozilla/5.0 (Windows NT 10.0; Win64; x64) AppleWebKit/537.36 (KHTML, like Gecko) Chrome/118.0.0.0 Safari/537.36","WebKit","Chrome","118.0.0.0","Windows","10.0","null","es-ES,es;q=0.8","true","428","tones/880hz_short.mp3","k","","","empty_block","","cuarenta y nueve","","","","2","9",""
"","","","","","html-keyboard-response","98","279999","0.0-85.0","65","1","2023-11-01 18:12:01","a725c3012b74bf33a1020a98cb69c237","201.231.237.246","Mozilla/5.0 (Windows NT 10.0; Win64; x64) AppleWebKit/537.36 (KHTML, like Gecko) Chrome/118.0.0.0 Safari/537.36","WebKit","Chrome","118.0.0.0","Windows","10.0","null","es-ES,es;q=0.8","true","null","<div style=""font-size:100px;"">X</div>","null","","","fixation","","","","","","","",""
"","","","","","audio-keyboard-response","99","280615","0.0-86.0","65","1","2023-11-01 18:12:01","a725c3012b74bf33a1020a98cb69c237","201.231.237.246","Mozilla/5.0 (Windows NT 10.0; Win64; x64) AppleWebKit/537.36 (KHTML, like Gecko) Chrome/118.0.0.0 Safari/537.36","WebKit","Chrome","118.0.0.0","Windows","10.0","null","es-ES,es;q=0.8","true","608","tones/440hz_short.mp3","a","","","tone_number_task","992.5","treinta y tres","tones/440hz_short.mp3","1142.5","60","2","10",""
"","","","","","html-keyboard-response","100","281002","0.0-87.0-0.0","65","1","2023-11-01 18:12:01","a725c3012b74bf33a1020a98cb69c237","201.231.237.246","Mozilla/5.0 (Windows NT 10.0; Win64; x64) AppleWebKit/537.36 (KHTML, like Gecko) Chrome/118.0.0.0 Safari/537.36","WebKit","Chrome","118.0.0.0","Windows","10.0","null","es-ES,es;q=0.8","true","null","","null","","","delay_block","","","","","","2","10",""
"","","","","","html-keyboard-response","101","281155","0.0-87.0-1.0","65","1","2023-11-01 18:12:01","a725c3012b74bf33a1020a98cb69c237","201.231.237.246","Mozilla/5.0 (Windows NT 10.0; Win64; x64) AppleWebKit/537.36 (KHTML, like Gecko) Chrome/118.0.0.0 Safari/537.36","WebKit","Chrome","118.0.0.0","Windows","10.0","null","es-ES,es;q=0.8","true","null","<p id=""stimulus"" style=""font-size:60px;"">treinta y tres</p>","null","","","tone_number_task_remaining_before_delay","","treinta y tres","","534.5","60","2","10",""
"","","","","","html-keyboard-response","102","281635","0.0-90.0-0.0","65","1","2023-11-01 18:12:01","a725c3012b74bf33a1020a98cb69c237","201.231.237.246","Mozilla/5.0 (Windows NT 10.0; Win64; x64) AppleWebKit/537.36 (KHTML, like Gecko) Chrome/118.0.0.0 Safari/537.36","WebKit","Chrome","118.0.0.0","Windows","10.0","null","es-ES,es;q=0.8","true","477","<p id=""stimulus"" style=""font-size:60px;"">treinta y tres</p>","j","","","empty_block","","treinta y tres","","","","2","10",""
"","","","","","html-keyboard-response","103","284619","0.0-91.0","65","1","2023-11-01 18:12:01","a725c3012b74bf33a1020a98cb69c237","201.231.237.246","Mozilla/5.0 (Windows NT 10.0; Win64; x64) AppleWebKit/537.36 (KHTML, like Gecko) Chrome/118.0.0.0 Safari/537.36","WebKit","Chrome","118.0.0.0","Windows","10.0","null","es-ES,es;q=0.8","true","null","<div style=""font-size:100px;"">X</div>","null","","","fixation","","","","","","","",""
"","","","","","audio-keyboard-response","104","285165","0.0-92.0","65","1","2023-11-01 18:12:01","a725c3012b74bf33a1020a98cb69c237","201.231.237.246","Mozilla/5.0 (Windows NT 10.0; Win64; x64) AppleWebKit/537.36 (KHTML, like Gecko) Chrome/118.0.0.0 Safari/537.36","WebKit","Chrome","118.0.0.0","Windows","10.0","null","es-ES,es;q=0.8","true","549","tones/880hz_short.mp3","s","","","tone_number_task","992.5","veintitres","tones/880hz_short.mp3","1142.5","60","2","11",""
"","","","","","html-keyboard-response","105","285611","0.0-93.0-0.0","65","1","2023-11-01 18:12:01","a725c3012b74bf33a1020a98cb69c237","201.231.237.246","Mozilla/5.0 (Windows NT 10.0; Win64; x64) AppleWebKit/537.36 (KHTML, like Gecko) Chrome/118.0.0.0 Safari/537.36","WebKit","Chrome","118.0.0.0","Windows","10.0","null","es-ES,es;q=0.8","true","null","","null","","","delay_block","","","","","","2","11",""
"","","","","","html-keyboard-response","106","285765","0.0-93.0-1.0","65","1","2023-11-01 18:12:01","a725c3012b74bf33a1020a98cb69c237","201.231.237.246","Mozilla/5.0 (Windows NT 10.0; Win64; x64) AppleWebKit/537.36 (KHTML, like Gecko) Chrome/118.0.0.0 Safari/537.36","WebKit","Chrome","118.0.0.0","Windows","10.0","null","es-ES,es;q=0.8","true","null","<p id=""stimulus"" style=""font-size:60px;"">veintitres</p>","null","","","tone_number_task_remaining_before_delay","","veintitres","","593.5","60","2","11",""
"","","","","","html-keyboard-response","107","286245","0.0-96.0-0.0","65","1","2023-11-01 18:12:01","a725c3012b74bf33a1020a98cb69c237","201.231.237.246","Mozilla/5.0 (Windows NT 10.0; Win64; x64) AppleWebKit/537.36 (KHTML, like Gecko) Chrome/118.0.0.0 Safari/537.36","WebKit","Chrome","118.0.0.0","Windows","10.0","null","es-ES,es;q=0.8","true","478","<p id=""stimulus"" style=""font-size:60px;"">veintitres</p>","j","","","empty_block","","veintitres","","","","2","11",""
"","","","","","html-keyboard-response","108","289231","0.0-97.0","65","1","2023-11-01 18:12:01","a725c3012b74bf33a1020a98cb69c237","201.231.237.246","Mozilla/5.0 (Windows NT 10.0; Win64; x64) AppleWebKit/537.36 (KHTML, like Gecko) Chrome/118.0.0.0 Safari/537.36","WebKit","Chrome","118.0.0.0","Windows","10.0","null","es-ES,es;q=0.8","true","null","<div style=""font-size:100px;"">X</div>","null","","","fixation","","","","","","","",""
"","","","","","audio-keyboard-response","109","289895","0.0-98.0","65","1","2023-11-01 18:12:01","a725c3012b74bf33a1020a98cb69c237","201.231.237.246","Mozilla/5.0 (Windows NT 10.0; Win64; x64) AppleWebKit/537.36 (KHTML, like Gecko) Chrome/118.0.0.0 Safari/537.36","WebKit","Chrome","118.0.0.0","Windows","10.0","null","es-ES,es;q=0.8","true","669","tones/880hz_short.mp3","s","","","tone_number_task","1025","cincuenta","tones/880hz_short.mp3","1175","60","2","12",""
"","","","","","html-keyboard-response","110","290254","0.0-99.0-0.0","65","1","2023-11-01 18:12:01","a725c3012b74bf33a1020a98cb69c237","201.231.237.246","Mozilla/5.0 (Windows NT 10.0; Win64; x64) AppleWebKit/537.36 (KHTML, like Gecko) Chrome/118.0.0.0 Safari/537.36","WebKit","Chrome","118.0.0.0","Windows","10.0","null","es-ES,es;q=0.8","true","null","","null","","","delay_block","","","","","","2","12",""
"","","","","","html-keyboard-response","111","290407","0.0-99.0-1.0","65","1","2023-11-01 18:12:01","a725c3012b74bf33a1020a98cb69c237","201.231.237.246","Mozilla/5.0 (Windows NT 10.0; Win64; x64) AppleWebKit/537.36 (KHTML, like Gecko) Chrome/118.0.0.0 Safari/537.36","WebKit","Chrome","118.0.0.0","Windows","10.0","null","es-ES,es;q=0.8","true","null","<p id=""stimulus"" style=""font-size:60px;"">cincuenta</p>","null","","","tone_number_task_remaining_before_delay","","cincuenta","","506","60","2","12",""
"","","","","","html-keyboard-response","112","290785","0.0-102.0-0.0","65","1","2023-11-01 18:12:01","a725c3012b74bf33a1020a98cb69c237","201.231.237.246","Mozilla/5.0 (Windows NT 10.0; Win64; x64) AppleWebKit/537.36 (KHTML, like Gecko) Chrome/118.0.0.0 Safari/537.36","WebKit","Chrome","118.0.0.0","Windows","10.0","null","es-ES,es;q=0.8","true","376","<p id=""stimulus"" style=""font-size:60px;"">cincuenta</p>","k","","","empty_block","","cincuenta","","","","2","12",""
"","","","","","html-keyboard-response","113","293769","0.0-103.0","65","1","2023-11-01 18:12:01","a725c3012b74bf33a1020a98cb69c237","201.231.237.246","Mozilla/5.0 (Windows NT 10.0; Win64; x64) AppleWebKit/537.36 (KHTML, like Gecko) Chrome/118.0.0.0 Safari/537.36","WebKit","Chrome","118.0.0.0","Windows","10.0","null","es-ES,es;q=0.8","true","null","<div style=""font-size:100px;"">X</div>","null","","","fixation","","","","","","","",""
"","","","","","audio-keyboard-response","114","293922","0.0-104.0","65","1","2023-11-01 18:12:01","a725c3012b74bf33a1020a98cb69c237","201.231.237.246","Mozilla/5.0 (Windows NT 10.0; Win64; x64) AppleWebKit/537.36 (KHTML, like Gecko) Chrome/118.0.0.0 Safari/537.36","WebKit","Chrome","118.0.0.0","Windows","10.0","null","es-ES,es;q=0.8","true","null","tones/880hz_short.mp3","null","","","tone_number_task","0","treinta y siete","tones/880hz_short.mp3","150","60","2","13",""
"","","","","","html-keyboard-response","115","294335","0.0-107.0-0.0","65","1","2023-11-01 18:12:01","a725c3012b74bf33a1020a98cb69c237","201.231.237.246","Mozilla/5.0 (Windows NT 10.0; Win64; x64) AppleWebKit/537.36 (KHTML, like Gecko) Chrome/118.0.0.0 Safari/537.36","WebKit","Chrome","118.0.0.0","Windows","10.0","null","es-ES,es;q=0.8","true","412","tones/880hz_short.mp3","s","","","empty_block","","treinta y siete","","","","2","13",""
"","","","","","html-keyboard-response","116","294595","0.0-107.0-1.0","65","1","2023-11-01 18:12:01","a725c3012b74bf33a1020a98cb69c237","201.231.237.246","Mozilla/5.0 (Windows NT 10.0; Win64; x64) AppleWebKit/537.36 (KHTML, like Gecko) Chrome/118.0.0.0 Safari/537.36","WebKit","Chrome","118.0.0.0","Windows","10.0","null","es-ES,es;q=0.8","true","257","tones/880hz_short.mp3","k","","","empty_block","","treinta y siete","","","","2","13",""
"","","","","","html-keyboard-response","117","297578","0.0-109.0","65","1","2023-11-01 18:12:01","a725c3012b74bf33a1020a98cb69c237","201.231.237.246","Mozilla/5.0 (Windows NT 10.0; Win64; x64) AppleWebKit/537.36 (KHTML, like Gecko) Chrome/118.0.0.0 Safari/537.36","WebKit","Chrome","118.0.0.0","Windows","10.0","null","es-ES,es;q=0.8","true","null","<div style=""font-size:100px;"">X</div>","null","","","fixation","","","","","","","",""
"","","","","","audio-keyboard-response","118","298005","0.0-110.0","65","1","2023-11-01 18:12:01","a725c3012b74bf33a1020a98cb69c237","201.231.237.246","Mozilla/5.0 (Windows NT 10.0; Win64; x64) AppleWebKit/537.36 (KHTML, like Gecko) Chrome/118.0.0.0 Safari/537.36","WebKit","Chrome","118.0.0.0","Windows","10.0","null","es-ES,es;q=0.8","true","421","tones/880hz_short.mp3","s","","","tone_number_task","992.5","cuarenta y uno","tones/880hz_short.mp3","1142.5","60","2","14",""
"","","","","","html-keyboard-response","119","298578","0.0-111.0-0.0","65","1","2023-11-01 18:12:01","a725c3012b74bf33a1020a98cb69c237","201.231.237.246","Mozilla/5.0 (Windows NT 10.0; Win64; x64) AppleWebKit/537.36 (KHTML, like Gecko) Chrome/118.0.0.0 Safari/537.36","WebKit","Chrome","118.0.0.0","Windows","10.0","null","es-ES,es;q=0.8","true","null","","null","","","delay_block","","","","","","2","14",""
"","","","","","html-keyboard-response","120","298731","0.0-111.0-1.0","65","1","2023-11-01 18:12:01","a725c3012b74bf33a1020a98cb69c237","201.231.237.246","Mozilla/5.0 (Windows NT 10.0; Win64; x64) AppleWebKit/537.36 (KHTML, like Gecko) Chrome/118.0.0.0 Safari/537.36","WebKit","Chrome","118.0.0.0","Windows","10.0","null","es-ES,es;q=0.8","true","null","<p id=""stimulus"" style=""font-size:60px;"">cuarenta y uno</p>","null","","","tone_number_task_remaining_before_delay","","cuarenta y uno","","721.5","60","2","14",""
"","","","","","html-keyboard-response","121","299105","0.0-114.0-0.0","65","1","2023-11-01 18:12:01","a725c3012b74bf33a1020a98cb69c237","201.231.237.246","Mozilla/5.0 (Windows NT 10.0; Win64; x64) AppleWebKit/537.36 (KHTML, like Gecko) Chrome/118.0.0.0 Safari/537.36","WebKit","Chrome","118.0.0.0","Windows","10.0","null","es-ES,es;q=0.8","true","371","<p id=""stimulus"" style=""font-size:60px;"">cuarenta y uno</p>","k","","","empty_block","","cuarenta y uno","","","","2","14",""
"","","","","","html-keyboard-response","122","302089","0.0-115.0","65","1","2023-11-01 18:12:01","a725c3012b74bf33a1020a98cb69c237","201.231.237.246","Mozilla/5.0 (Windows NT 10.0; Win64; x64) AppleWebKit/537.36 (KHTML, like Gecko) Chrome/118.0.0.0 Safari/537.36","WebKit","Chrome","118.0.0.0","Windows","10.0","null","es-ES,es;q=0.8","true","null","<div style=""font-size:100px;"">X</div>","null","","","fixation","","","","","","","",""
"","","","","","audio-keyboard-response","123","302505","0.0-116.0","65","1","2023-11-01 18:12:01","a725c3012b74bf33a1020a98cb69c237","201.231.237.246","Mozilla/5.0 (Windows NT 10.0; Win64; x64) AppleWebKit/537.36 (KHTML, like Gecko) Chrome/118.0.0.0 Safari/537.36","WebKit","Chrome","118.0.0.0","Windows","10.0","null","es-ES,es;q=0.8","true","411","tones/880hz_short.mp3","s","","","tone_number_task","1025","cincuenta y nueve","tones/880hz_short.mp3","1175","60","2","15",""
"","","","","","html-keyboard-response","124","303122","0.0-117.0-0.0","65","1","2023-11-01 18:12:01","a725c3012b74bf33a1020a98cb69c237","201.231.237.246","Mozilla/5.0 (Windows NT 10.0; Win64; x64) AppleWebKit/537.36 (KHTML, like Gecko) Chrome/118.0.0.0 Safari/537.36","WebKit","Chrome","118.0.0.0","Windows","10.0","null","es-ES,es;q=0.8","true","null","","null","","","delay_block","","","","","","2","15",""
"","","","","","html-keyboard-response","125","303277","0.0-117.0-1.0","65","1","2023-11-01 18:12:01","a725c3012b74bf33a1020a98cb69c237","201.231.237.246","Mozilla/5.0 (Windows NT 10.0; Win64; x64) AppleWebKit/537.36 (KHTML, like Gecko) Chrome/118.0.0.0 Safari/537.36","WebKit","Chrome","118.0.0.0","Windows","10.0","null","es-ES,es;q=0.8","true","null","<p id=""stimulus"" style=""font-size:60px;"">cincuenta y nueve</p>","null","","","tone_number_task_remaining_before_delay","","cincuenta y nueve","","764","60","2","15",""
"","","","","","html-keyboard-response","126","303655","0.0-120.0-0.0","65","1","2023-11-01 18:12:01","a725c3012b74bf33a1020a98cb69c237","201.231.237.246","Mozilla/5.0 (Windows NT 10.0; Win64; x64) AppleWebKit/537.36 (KHTML, like Gecko) Chrome/118.0.0.0 Safari/537.36","WebKit","Chrome","118.0.0.0","Windows","10.0","null","es-ES,es;q=0.8","true","376","<p id=""stimulus"" style=""font-size:60px;"">cincuenta y nueve</p>","k","","","empty_block","","cincuenta y nueve","","","","2","15",""
"","","","","","html-keyboard-response","127","306639","0.0-121.0","65","1","2023-11-01 18:12:01","a725c3012b74bf33a1020a98cb69c237","201.231.237.246","Mozilla/5.0 (Windows NT 10.0; Win64; x64) AppleWebKit/537.36 (KHTML, like Gecko) Chrome/118.0.0.0 Safari/537.36","WebKit","Chrome","118.0.0.0","Windows","10.0","null","es-ES,es;q=0.8","true","null","<div style=""font-size:100px;"">X</div>","null","","","fixation","","","","","","","",""
"","","","","","audio-keyboard-response","128","306791","0.0-122.0","65","1","2023-11-01 18:12:01","a725c3012b74bf33a1020a98cb69c237","201.231.237.246","Mozilla/5.0 (Windows NT 10.0; Win64; x64) AppleWebKit/537.36 (KHTML, like Gecko) Chrome/118.0.0.0 Safari/537.36","WebKit","Chrome","118.0.0.0","Windows","10.0","null","es-ES,es;q=0.8","true","null","tones/880hz_short.mp3","null","","","tone_number_task","0","sesenta y seis","tones/880hz_short.mp3","150","60","2","16",""
"","","","","","html-keyboard-response","129","307125","0.0-125.0-0.0","65","1","2023-11-01 18:12:01","a725c3012b74bf33a1020a98cb69c237","201.231.237.246","Mozilla/5.0 (Windows NT 10.0; Win64; x64) AppleWebKit/537.36 (KHTML, like Gecko) Chrome/118.0.0.0 Safari/537.36","WebKit","Chrome","118.0.0.0","Windows","10.0","null","es-ES,es;q=0.8","true","332","tones/880hz_short.mp3","s","","","empty_block","","sesenta y seis","","","","2","16",""
"","","","","","html-keyboard-response","130","307925","0.0-125.0-1.0","65","1","2023-11-01 18:12:01","a725c3012b74bf33a1020a98cb69c237","201.231.237.246","Mozilla/5.0 (Windows NT 10.0; Win64; x64) AppleWebKit/537.36 (KHTML, like Gecko) Chrome/118.0.0.0 Safari/537.36","WebKit","Chrome","118.0.0.0","Windows","10.0","null","es-ES,es;q=0.8","true","798","tones/880hz_short.mp3","k","","","empty_block","","sesenta y seis","","","","2","16",""
"","","","","","html-keyboard-response","131","310909","0.0-127.0","65","1","2023-11-01 18:12:01","a725c3012b74bf33a1020a98cb69c237","201.231.237.246","Mozilla/5.0 (Windows NT 10.0; Win64; x64) AppleWebKit/537.36 (KHTML, like Gecko) Chrome/118.0.0.0 Safari/537.36","WebKit","Chrome","118.0.0.0","Windows","10.0","null","es-ES,es;q=0.8","true","null","<div style=""font-size:100px;"">X</div>","null","","","fixation","","","","","","","",""
"","","","","","audio-keyboard-response","132","311275","0.0-128.0","65","1","2023-11-01 18:12:01","a725c3012b74bf33a1020a98cb69c237","201.231.237.246","Mozilla/5.0 (Windows NT 10.0; Win64; x64) AppleWebKit/537.36 (KHTML, like Gecko) Chrome/118.0.0.0 Safari/537.36","WebKit","Chrome","118.0.0.0","Windows","10.0","null","es-ES,es;q=0.8","true","360","tones/880hz_short.mp3","s","","","tone_number_task","992.5","cincuenta y nueve","tones/880hz_short.mp3","1142.5","60","2","17",""
"","","","","","html-keyboard-response","133","311910","0.0-129.0-0.0","65","1","2023-11-01 18:12:01","a725c3012b74bf33a1020a98cb69c237","201.231.237.246","Mozilla/5.0 (Windows NT 10.0; Win64; x64) AppleWebKit/537.36 (KHTML, like Gecko) Chrome/118.0.0.0 Safari/537.36","WebKit","Chrome","118.0.0.0","Windows","10.0","null","es-ES,es;q=0.8","true","null","","null","","","delay_block","","","","","","2","17",""
"","","","","","html-keyboard-response","134","312063","0.0-129.0-1.0","65","1","2023-11-01 18:12:01","a725c3012b74bf33a1020a98cb69c237","201.231.237.246","Mozilla/5.0 (Windows NT 10.0; Win64; x64) AppleWebKit/537.36 (KHTML, like Gecko) Chrome/118.0.0.0 Safari/537.36","WebKit","Chrome","118.0.0.0","Windows","10.0","null","es-ES,es;q=0.8","true","null","<p id=""stimulus"" style=""font-size:60px;"">cincuenta y nueve</p>","null","","","tone_number_task_remaining_before_delay","","cincuenta y nueve","","782.5","60","2","17",""
"","","","","","html-keyboard-response","135","312335","0.0-132.0-0.0","65","1","2023-11-01 18:12:01","a725c3012b74bf33a1020a98cb69c237","201.231.237.246","Mozilla/5.0 (Windows NT 10.0; Win64; x64) AppleWebKit/537.36 (KHTML, like Gecko) Chrome/118.0.0.0 Safari/537.36","WebKit","Chrome","118.0.0.0","Windows","10.0","null","es-ES,es;q=0.8","true","268","<p id=""stimulus"" style=""font-size:60px;"">cincuenta y nueve</p>","k","","","empty_block","","cincuenta y nueve","","","","2","17",""
"","","","","","html-keyboard-response","136","315320","0.0-133.0","65","1","2023-11-01 18:12:01","a725c3012b74bf33a1020a98cb69c237","201.231.237.246","Mozilla/5.0 (Windows NT 10.0; Win64; x64) AppleWebKit/537.36 (KHTML, like Gecko) Chrome/118.0.0.0 Safari/537.36","WebKit","Chrome","118.0.0.0","Windows","10.0","null","es-ES,es;q=0.8","true","null","<div style=""font-size:100px;"">X</div>","null","","","fixation","","","","","","","",""
"","","","","","audio-keyboard-response","137","315576","0.0-134.0","65","1","2023-11-01 18:12:01","a725c3012b74bf33a1020a98cb69c237","201.231.237.246","Mozilla/5.0 (Windows NT 10.0; Win64; x64) AppleWebKit/537.36 (KHTML, like Gecko) Chrome/118.0.0.0 Safari/537.36","WebKit","Chrome","118.0.0.0","Windows","10.0","null","es-ES,es;q=0.8","true","null","tones/880hz_short.mp3","null","","","tone_number_task","102.5","sesenta y ocho","tones/880hz_short.mp3","252.5","60","2","18",""
"","","","","","html-keyboard-response","138","315685","0.0-137.0-0.0","65","1","2023-11-01 18:12:01","a725c3012b74bf33a1020a98cb69c237","201.231.237.246","Mozilla/5.0 (Windows NT 10.0; Win64; x64) AppleWebKit/537.36 (KHTML, like Gecko) Chrome/118.0.0.0 Safari/537.36","WebKit","Chrome","118.0.0.0","Windows","10.0","null","es-ES,es;q=0.8","true","105","tones/880hz_short.mp3","s","","","empty_block","","sesenta y ocho","","","","2","18",""
"","","","","","html-keyboard-response","139","316045","0.0-137.0-1.0","65","1","2023-11-01 18:12:01","a725c3012b74bf33a1020a98cb69c237","201.231.237.246","Mozilla/5.0 (Windows NT 10.0; Win64; x64) AppleWebKit/537.36 (KHTML, like Gecko) Chrome/118.0.0.0 Safari/537.36","WebKit","Chrome","118.0.0.0","Windows","10.0","null","es-ES,es;q=0.8","true","358","tones/880hz_short.mp3","k","","","empty_block","","sesenta y ocho","","","","2","18",""
"","","","","","html-keyboard-response","140","319029","0.0-139.0","65","1","2023-11-01 18:12:01","a725c3012b74bf33a1020a98cb69c237","201.231.237.246","Mozilla/5.0 (Windows NT 10.0; Win64; x64) AppleWebKit/537.36 (KHTML, like Gecko) Chrome/118.0.0.0 Safari/537.36","WebKit","Chrome","118.0.0.0","Windows","10.0","null","es-ES,es;q=0.8","true","null","<div style=""font-size:100px;"">X</div>","null","","","fixation","","","","","","","",""
"","","","","","audio-keyboard-response","141","319181","0.0-140.0","65","1","2023-11-01 18:12:01","a725c3012b74bf33a1020a98cb69c237","201.231.237.246","Mozilla/5.0 (Windows NT 10.0; Win64; x64) AppleWebKit/537.36 (KHTML, like Gecko) Chrome/118.0.0.0 Safari/537.36","WebKit","Chrome","118.0.0.0","Windows","10.0","null","es-ES,es;q=0.8","true","null","tones/880hz_short.mp3","null","","","tone_number_task","0","treinta y nueve","tones/880hz_short.mp3","150","60","2","19",""
"","","","","","html-keyboard-response","142","319325","0.0-143.0-0.0","65","1","2023-11-01 18:12:01","a725c3012b74bf33a1020a98cb69c237","201.231.237.246","Mozilla/5.0 (Windows NT 10.0; Win64; x64) AppleWebKit/537.36 (KHTML, like Gecko) Chrome/118.0.0.0 Safari/537.36","WebKit","Chrome","118.0.0.0","Windows","10.0","null","es-ES,es;q=0.8","true","140","tones/880hz_short.mp3","s","","","empty_block","","treinta y nueve","","","","2","19",""
"","","","","","html-keyboard-response","143","319695","0.0-143.0-1.0","65","1","2023-11-01 18:12:01","a725c3012b74bf33a1020a98cb69c237","201.231.237.246","Mozilla/5.0 (Windows NT 10.0; Win64; x64) AppleWebKit/537.36 (KHTML, like Gecko) Chrome/118.0.0.0 Safari/537.36","WebKit","Chrome","118.0.0.0","Windows","10.0","null","es-ES,es;q=0.8","true","368","tones/880hz_short.mp3","j","","","empty_block","","treinta y nueve","","","","2","19",""
"","","","","","html-keyboard-response","144","322679","0.0-145.0","65","1","2023-11-01 18:12:01","a725c3012b74bf33a1020a98cb69c237","201.231.237.246","Mozilla/5.0 (Windows NT 10.0; Win64; x64) AppleWebKit/537.36 (KHTML, like Gecko) Chrome/118.0.0.0 Safari/537.36","WebKit","Chrome","118.0.0.0","Windows","10.0","null","es-ES,es;q=0.8","true","null","<div style=""font-size:100px;"">X</div>","null","","","fixation","","","","","","","",""
"","","","","","audio-keyboard-response","145","322934","0.0-146.0","65","1","2023-11-01 18:12:01","a725c3012b74bf33a1020a98cb69c237","201.231.237.246","Mozilla/5.0 (Windows NT 10.0; Win64; x64) AppleWebKit/537.36 (KHTML, like Gecko) Chrome/118.0.0.0 Safari/537.36","WebKit","Chrome","118.0.0.0","Windows","10.0","null","es-ES,es;q=0.8","true","null","tones/880hz_short.mp3","null","","","tone_number_task","102.5","sesenta y ocho","tones/880hz_short.mp3","252.5","60","2","20",""
"","","","","","html-keyboard-response","146","323135","0.0-149.0-0.0","65","1","2023-11-01 18:12:01","a725c3012b74bf33a1020a98cb69c237","201.231.237.246","Mozilla/5.0 (Windows NT 10.0; Win64; x64) AppleWebKit/537.36 (KHTML, like Gecko) Chrome/118.0.0.0 Safari/537.36","WebKit","Chrome","118.0.0.0","Windows","10.0","null","es-ES,es;q=0.8","true","198","tones/880hz_short.mp3","s","","","empty_block","","sesenta y ocho","","","","2","20",""
"","","","","","html-keyboard-response","147","323466","0.0-149.0-1.0","65","1","2023-11-01 18:12:01","a725c3012b74bf33a1020a98cb69c237","201.231.237.246","Mozilla/5.0 (Windows NT 10.0; Win64; x64) AppleWebKit/537.36 (KHTML, like Gecko) Chrome/118.0.0.0 Safari/537.36","WebKit","Chrome","118.0.0.0","Windows","10.0","null","es-ES,es;q=0.8","true","328","tones/880hz_short.mp3","k","","","empty_block","","sesenta y ocho","","","","2","20",""
"","","","","","html-keyboard-response","148","326450","0.0-151.0","65","1","2023-11-01 18:12:01","a725c3012b74bf33a1020a98cb69c237","201.231.237.246","Mozilla/5.0 (Windows NT 10.0; Win64; x64) AppleWebKit/537.36 (KHTML, like Gecko) Chrome/118.0.0.0 Safari/537.36","WebKit","Chrome","118.0.0.0","Windows","10.0","null","es-ES,es;q=0.8","true","null","<div style=""font-size:100px;"">X</div>","null","","","fixation","","","","","","","",""
"","","","","","audio-keyboard-response","149","326603","0.0-152.0","65","1","2023-11-01 18:12:01","a725c3012b74bf33a1020a98cb69c237","201.231.237.246","Mozilla/5.0 (Windows NT 10.0; Win64; x64) AppleWebKit/537.36 (KHTML, like Gecko) Chrome/118.0.0.0 Safari/537.36","WebKit","Chrome","118.0.0.0","Windows","10.0","null","es-ES,es;q=0.8","true","null","tones/880hz_short.mp3","null","","","tone_number_task","0","veintiocho","tones/880hz_short.mp3","150","60","2","21",""
"","","","","","html-keyboard-response","150","326895","0.0-155.0-0.0","65","1","2023-11-01 18:12:01","a725c3012b74bf33a1020a98cb69c237","201.231.237.246","Mozilla/5.0 (Windows NT 10.0; Win64; x64) AppleWebKit/537.36 (KHTML, like Gecko) Chrome/118.0.0.0 Safari/537.36","WebKit","Chrome","118.0.0.0","Windows","10.0","null","es-ES,es;q=0.8","true","290","tones/880hz_short.mp3","s","","","empty_block","","veintiocho","","","","2","21",""
"","","","","","html-keyboard-response","151","327195","0.0-155.0-1.0","65","1","2023-11-01 18:12:01","a725c3012b74bf33a1020a98cb69c237","201.231.237.246","Mozilla/5.0 (Windows NT 10.0; Win64; x64) AppleWebKit/537.36 (KHTML, like Gecko) Chrome/118.0.0.0 Safari/537.36","WebKit","Chrome","118.0.0.0","Windows","10.0","null","es-ES,es;q=0.8","true","298","tones/880hz_short.mp3","j","","","empty_block","","veintiocho","","","","2","21",""
"","","","","","html-keyboard-response","152","330180","0.0-157.0","65","1","2023-11-01 18:12:01","a725c3012b74bf33a1020a98cb69c237","201.231.237.246","Mozilla/5.0 (Windows NT 10.0; Win64; x64) AppleWebKit/537.36 (KHTML, like Gecko) Chrome/118.0.0.0 Safari/537.36","WebKit","Chrome","118.0.0.0","Windows","10.0","null","es-ES,es;q=0.8","true","null","<div style=""font-size:100px;"">X</div>","null","","","fixation","","","","","","","",""
"","","","","","audio-keyboard-response","153","330475","0.0-158.0","65","1","2023-11-01 18:12:01","a725c3012b74bf33a1020a98cb69c237","201.231.237.246","Mozilla/5.0 (Windows NT 10.0; Win64; x64) AppleWebKit/537.36 (KHTML, like Gecko) Chrome/118.0.0.0 Safari/537.36","WebKit","Chrome","118.0.0.0","Windows","10.0","null","es-ES,es;q=0.8","true","291","tones/440hz_short.mp3","a","","","tone_number_task","1025","treinta y uno","tones/440hz_short.mp3","1175","60","2","22",""
"","","","","","html-keyboard-response","154","331220","0.0-159.0-0.0","65","1","2023-11-01 18:12:01","a725c3012b74bf33a1020a98cb69c237","201.231.237.246","Mozilla/5.0 (Windows NT 10.0; Win64; x64) AppleWebKit/537.36 (KHTML, like Gecko) Chrome/118.0.0.0 Safari/537.36","WebKit","Chrome","118.0.0.0","Windows","10.0","null","es-ES,es;q=0.8","true","null","","null","","","delay_block","","","","","","2","22",""
"","","","","","html-keyboard-response","155","331373","0.0-159.0-1.0","65","1","2023-11-01 18:12:01","a725c3012b74bf33a1020a98cb69c237","201.231.237.246","Mozilla/5.0 (Windows NT 10.0; Win64; x64) AppleWebKit/537.36 (KHTML, like Gecko) Chrome/118.0.0.0 Safari/537.36","WebKit","Chrome","118.0.0.0","Windows","10.0","null","es-ES,es;q=0.8","true","null","<p id=""stimulus"" style=""font-size:60px;"">treinta y uno</p>","null","","","tone_number_task_remaining_before_delay","","treinta y uno","","884","60","2","22",""
"","","","","","html-keyboard-response","156","331705","0.0-162.0-0.0","65","1","2023-11-01 18:12:01","a725c3012b74bf33a1020a98cb69c237","201.231.237.246","Mozilla/5.0 (Windows NT 10.0; Win64; x64) AppleWebKit/537.36 (KHTML, like Gecko) Chrome/118.0.0.0 Safari/537.36","WebKit","Chrome","118.0.0.0","Windows","10.0","null","es-ES,es;q=0.8","true","328","<p id=""stimulus"" style=""font-size:60px;"">treinta y uno</p>","j","","","empty_block","","treinta y uno","","","","2","22",""
"","","","","","html-keyboard-response","157","334689","0.0-163.0","65","1","2023-11-01 18:12:01","a725c3012b74bf33a1020a98cb69c237","201.231.237.246","Mozilla/5.0 (Windows NT 10.0; Win64; x64) AppleWebKit/537.36 (KHTML, like Gecko) Chrome/118.0.0.0 Safari/537.36","WebKit","Chrome","118.0.0.0","Windows","10.0","null","es-ES,es;q=0.8","true","null","<div style=""font-size:100px;"">X</div>","null","","","fixation","","","","","","","",""
"","","","","","audio-keyboard-response","158","335175","0.0-164.0","65","1","2023-11-01 18:12:01","a725c3012b74bf33a1020a98cb69c237","201.231.237.246","Mozilla/5.0 (Windows NT 10.0; Win64; x64) AppleWebKit/537.36 (KHTML, like Gecko) Chrome/118.0.0.0 Safari/537.36","WebKit","Chrome","118.0.0.0","Windows","10.0","null","es-ES,es;q=0.8","true","480","tones/880hz_short.mp3","s","","","tone_number_task","992.5","treinta y cuatro","tones/880hz_short.mp3","1142.5","60","2","23",""
"","","","","","html-keyboard-response","159","335690","0.0-165.0-0.0","65","1","2023-11-01 18:12:01","a725c3012b74bf33a1020a98cb69c237","201.231.237.246","Mozilla/5.0 (Windows NT 10.0; Win64; x64) AppleWebKit/537.36 (KHTML, like Gecko) Chrome/118.0.0.0 Safari/537.36","WebKit","Chrome","118.0.0.0","Windows","10.0","null","es-ES,es;q=0.8","true","null","","null","","","delay_block","","","","","","2","23",""
"","","","","","html-keyboard-response","160","335843","0.0-165.0-1.0","65","1","2023-11-01 18:12:01","a725c3012b74bf33a1020a98cb69c237","201.231.237.246","Mozilla/5.0 (Windows NT 10.0; Win64; x64) AppleWebKit/537.36 (KHTML, like Gecko) Chrome/118.0.0.0 Safari/537.36","WebKit","Chrome","118.0.0.0","Windows","10.0","null","es-ES,es;q=0.8","true","null","<p id=""stimulus"" style=""font-size:60px;"">treinta y cuatro</p>","null","","","tone_number_task_remaining_before_delay","","treinta y cuatro","","662.5","60","2","23",""
"","","","","","html-keyboard-response","161","336285","0.0-168.0-0.0","65","1","2023-11-01 18:12:01","a725c3012b74bf33a1020a98cb69c237","201.231.237.246","Mozilla/5.0 (Windows NT 10.0; Win64; x64) AppleWebKit/537.36 (KHTML, like Gecko) Chrome/118.0.0.0 Safari/537.36","WebKit","Chrome","118.0.0.0","Windows","10.0","null","es-ES,es;q=0.8","true","439","<p id=""stimulus"" style=""font-size:60px;"">treinta y cuatro</p>","j","","","empty_block","","treinta y cuatro","","","","2","23",""
"","","","","","html-keyboard-response","162","339269","0.0-169.0","65","1","2023-11-01 18:12:01","a725c3012b74bf33a1020a98cb69c237","201.231.237.246","Mozilla/5.0 (Windows NT 10.0; Win64; x64) AppleWebKit/537.36 (KHTML, like Gecko) Chrome/118.0.0.0 Safari/537.36","WebKit","Chrome","118.0.0.0","Windows","10.0","null","es-ES,es;q=0.8","true","null","<div style=""font-size:100px;"">X</div>","null","","","fixation","","","","","","","",""
"","","","","","audio-keyboard-response","163","339945","0.0-170.0","65","1","2023-11-01 18:12:01","a725c3012b74bf33a1020a98cb69c237","201.231.237.246","Mozilla/5.0 (Windows NT 10.0; Win64; x64) AppleWebKit/537.36 (KHTML, like Gecko) Chrome/118.0.0.0 Safari/537.36","WebKit","Chrome","118.0.0.0","Windows","10.0","null","es-ES,es;q=0.8","true","669","tones/880hz_short.mp3","s","","","tone_number_task","1025","cincuenta y nueve","tones/880hz_short.mp3","1175","60","2","24",""
"","","","","","html-keyboard-response","164","340304","0.0-171.0-0.0","65","1","2023-11-01 18:12:01","a725c3012b74bf33a1020a98cb69c237","201.231.237.246","Mozilla/5.0 (Windows NT 10.0; Win64; x64) AppleWebKit/537.36 (KHTML, like Gecko) Chrome/118.0.0.0 Safari/537.36","WebKit","Chrome","118.0.0.0","Windows","10.0","null","es-ES,es;q=0.8","true","null","","null","","","delay_block","","","","","","2","24",""
"","","","","","html-keyboard-response","165","340458","0.0-171.0-1.0","65","1","2023-11-01 18:12:01","a725c3012b74bf33a1020a98cb69c237","201.231.237.246","Mozilla/5.0 (Windows NT 10.0; Win64; x64) AppleWebKit/537.36 (KHTML, like Gecko) Chrome/118.0.0.0 Safari/537.36","WebKit","Chrome","118.0.0.0","Windows","10.0","null","es-ES,es;q=0.8","true","null","<p id=""stimulus"" style=""font-size:60px;"">cincuenta y nueve</p>","null","","","tone_number_task_remaining_before_delay","","cincuenta y nueve","","506","60","2","24",""
"","","","","","html-keyboard-response","166","340845","0.0-174.0-0.0","65","1","2023-11-01 18:12:01","a725c3012b74bf33a1020a98cb69c237","201.231.237.246","Mozilla/5.0 (Windows NT 10.0; Win64; x64) AppleWebKit/537.36 (KHTML, like Gecko) Chrome/118.0.0.0 Safari/537.36","WebKit","Chrome","118.0.0.0","Windows","10.0","null","es-ES,es;q=0.8","true","383","<p id=""stimulus"" style=""font-size:60px;"">cincuenta y nueve</p>","k","","","empty_block","","cincuenta y nueve","","","","2","24",""
"","","","","","html-keyboard-response","167","343828","0.0-175.0","65","1","2023-11-01 18:12:01","a725c3012b74bf33a1020a98cb69c237","201.231.237.246","Mozilla/5.0 (Windows NT 10.0; Win64; x64) AppleWebKit/537.36 (KHTML, like Gecko) Chrome/118.0.0.0 Safari/537.36","WebKit","Chrome","118.0.0.0","Windows","10.0","null","es-ES,es;q=0.8","true","null","<div style=""font-size:100px;"">X</div>","null","","","fixation","","","","","","","",""
"","","","","","audio-keyboard-response","168","344085","0.0-176.0","65","1","2023-11-01 18:12:01","a725c3012b74bf33a1020a98cb69c237","201.231.237.246","Mozilla/5.0 (Windows NT 10.0; Win64; x64) AppleWebKit/537.36 (KHTML, like Gecko) Chrome/118.0.0.0 Safari/537.36","WebKit","Chrome","118.0.0.0","Windows","10.0","null","es-ES,es;q=0.8","true","null","tones/440hz_short.mp3","null","","","tone_number_task","102.5","sesenta y cinco","tones/440hz_short.mp3","252.5","60","2","25",""
"","","","","","html-keyboard-response","169","344345","0.0-179.0-0.0","65","1","2023-11-01 18:12:01","a725c3012b74bf33a1020a98cb69c237","201.231.237.246","Mozilla/5.0 (Windows NT 10.0; Win64; x64) AppleWebKit/537.36 (KHTML, like Gecko) Chrome/118.0.0.0 Safari/537.36","WebKit","Chrome","118.0.0.0","Windows","10.0","null","es-ES,es;q=0.8","true","257","tones/440hz_short.mp3","a","","","empty_block","","sesenta y cinco","","","","2","25",""
"","","","","","html-keyboard-response","170","344715","0.0-179.0-1.0","65","1","2023-11-01 18:12:01","a725c3012b74bf33a1020a98cb69c237","201.231.237.246","Mozilla/5.0 (Windows NT 10.0; Win64; x64) AppleWebKit/537.36 (KHTML, like Gecko) Chrome/118.0.0.0 Safari/537.36","WebKit","Chrome","118.0.0.0","Windows","10.0","null","es-ES,es;q=0.8","true","368","tones/440hz_short.mp3","k","","","empty_block","","sesenta y cinco","","","","2","25",""
"","","","","","html-keyboard-response","171","347699","0.0-181.0","65","1","2023-11-01 18:12:01","a725c3012b74bf33a1020a98cb69c237","201.231.237.246","Mozilla/5.0 (Windows NT 10.0; Win64; x64) AppleWebKit/537.36 (KHTML, like Gecko) Chrome/118.0.0.0 Safari/537.36","WebKit","Chrome","118.0.0.0","Windows","10.0","null","es-ES,es;q=0.8","true","null","<div style=""font-size:100px;"">X</div>","null","","","fixation","","","","","","","",""
"","","","","","audio-keyboard-response","172","347955","0.0-182.0","65","1","2023-11-01 18:12:01","a725c3012b74bf33a1020a98cb69c237","201.231.237.246","Mozilla/5.0 (Windows NT 10.0; Win64; x64) AppleWebKit/537.36 (KHTML, like Gecko) Chrome/118.0.0.0 Safari/537.36","WebKit","Chrome","118.0.0.0","Windows","10.0","null","es-ES,es;q=0.8","true","null","tones/440hz_short.mp3","null","","","tone_number_task","102.5","cincuenta y uno","tones/440hz_short.mp3","252.5","60","2","26",""
"","","","","","html-keyboard-response","173","348545","0.0-185.0-0.0","65","1","2023-11-01 18:12:01","a725c3012b74bf33a1020a98cb69c237","201.231.237.246","Mozilla/5.0 (Windows NT 10.0; Win64; x64) AppleWebKit/537.36 (KHTML, like Gecko) Chrome/118.0.0.0 Safari/537.36","WebKit","Chrome","118.0.0.0","Windows","10.0","null","es-ES,es;q=0.8","true","586","tones/440hz_short.mp3","a","","","empty_block","","cincuenta y uno","","","","2","26",""
"","","","","","html-keyboard-response","174","348745","0.0-185.0-1.0","65","1","2023-11-01 18:12:01","a725c3012b74bf33a1020a98cb69c237","201.231.237.246","Mozilla/5.0 (Windows NT 10.0; Win64; x64) AppleWebKit/537.36 (KHTML, like Gecko) Chrome/118.0.0.0 Safari/537.36","WebKit","Chrome","118.0.0.0","Windows","10.0","null","es-ES,es;q=0.8","true","198","tones/440hz_short.mp3","j","","","empty_block","","cincuenta y uno","","","","2","26",""
"","","","","","html-keyboard-response","175","351729","0.0-187.0","65","1","2023-11-01 18:12:01","a725c3012b74bf33a1020a98cb69c237","201.231.237.246","Mozilla/5.0 (Windows NT 10.0; Win64; x64) AppleWebKit/537.36 (KHTML, like Gecko) Chrome/118.0.0.0 Safari/537.36","WebKit","Chrome","118.0.0.0","Windows","10.0","null","es-ES,es;q=0.8","true","null","<div style=""font-size:100px;"">X</div>","null","","","fixation","","","","","","","",""
"","","","","","audio-keyboard-response","176","351985","0.0-188.0","65","1","2023-11-01 18:12:01","a725c3012b74bf33a1020a98cb69c237","201.231.237.246","Mozilla/5.0 (Windows NT 10.0; Win64; x64) AppleWebKit/537.36 (KHTML, like Gecko) Chrome/118.0.0.0 Safari/537.36","WebKit","Chrome","118.0.0.0","Windows","10.0","null","es-ES,es;q=0.8","true","null","tones/440hz_short.mp3","null","","","tone_number_task","102.5","veintitres","tones/440hz_short.mp3","252.5","60","2","27",""
"","","","","","html-keyboard-response","177","352275","0.0-191.0-0.0","65","1","2023-11-01 18:12:01","a725c3012b74bf33a1020a98cb69c237","201.231.237.246","Mozilla/5.0 (Windows NT 10.0; Win64; x64) AppleWebKit/537.36 (KHTML, like Gecko) Chrome/118.0.0.0 Safari/537.36","WebKit","Chrome","118.0.0.0","Windows","10.0","null","es-ES,es;q=0.8","true","285","tones/440hz_short.mp3","a","","","empty_block","","veintitres","","","","2","27",""
"","","","","","html-keyboard-response","178","352565","0.0-191.0-1.0","65","1","2023-11-01 18:12:01","a725c3012b74bf33a1020a98cb69c237","201.231.237.246","Mozilla/5.0 (Windows NT 10.0; Win64; x64) AppleWebKit/537.36 (KHTML, like Gecko) Chrome/118.0.0.0 Safari/537.36","WebKit","Chrome","118.0.0.0","Windows","10.0","null","es-ES,es;q=0.8","true","287","tones/440hz_short.mp3","k","","","empty_block","","veintitres","","","","2","27",""
"","","","","","html-keyboard-response","179","355549","0.0-193.0","65","1","2023-11-01 18:12:01","a725c3012b74bf33a1020a98cb69c237","201.231.237.246","Mozilla/5.0 (Windows NT 10.0; Win64; x64) AppleWebKit/537.36 (KHTML, like Gecko) Chrome/118.0.0.0 Safari/537.36","WebKit","Chrome","118.0.0.0","Windows","10.0","null","es-ES,es;q=0.8","true","null","<div style=""font-size:100px;"">X</div>","null","","","fixation","","","","","","","",""
"","","","","","audio-keyboard-response","180","355985","0.0-194.0","65","1","2023-11-01 18:12:01","a725c3012b74bf33a1020a98cb69c237","201.231.237.246","Mozilla/5.0 (Windows NT 10.0; Win64; x64) AppleWebKit/537.36 (KHTML, like Gecko) Chrome/118.0.0.0 Safari/537.36","WebKit","Chrome","118.0.0.0","Windows","10.0","null","es-ES,es;q=0.8","true","440","tones/440hz_short.mp3","a","","","tone_number_task","1025","treinta y siete","tones/440hz_short.mp3","1175","60","2","28",""
"","","","","","html-keyboard-response","181","356575","0.0-195.0-0.0","65","1","2023-11-01 18:12:01","a725c3012b74bf33a1020a98cb69c237","201.231.237.246","Mozilla/5.0 (Windows NT 10.0; Win64; x64) AppleWebKit/537.36 (KHTML, like Gecko) Chrome/118.0.0.0 Safari/537.36","WebKit","Chrome","118.0.0.0","Windows","10.0","null","es-ES,es;q=0.8","true","null","","null","","","delay_block","","","","","","2","28",""
"","","","","","html-keyboard-response","182","356729","0.0-195.0-1.0","65","1","2023-11-01 18:12:01","a725c3012b74bf33a1020a98cb69c237","201.231.237.246","Mozilla/5.0 (Windows NT 10.0; Win64; x64) AppleWebKit/537.36 (KHTML, like Gecko) Chrome/118.0.0.0 Safari/537.36","WebKit","Chrome","118.0.0.0","Windows","10.0","null","es-ES,es;q=0.8","true","null","<p id=""stimulus"" style=""font-size:60px;"">treinta y siete</p>","null","","","tone_number_task_remaining_before_delay","","treinta y siete","","735","60","2","28",""
"","","","","","html-keyboard-response","183","357085","0.0-198.0-0.0","65","1","2023-11-01 18:12:01","a725c3012b74bf33a1020a98cb69c237","201.231.237.246","Mozilla/5.0 (Windows NT 10.0; Win64; x64) AppleWebKit/537.36 (KHTML, like Gecko) Chrome/118.0.0.0 Safari/537.36","WebKit","Chrome","118.0.0.0","Windows","10.0","null","es-ES,es;q=0.8","true","352","<p id=""stimulus"" style=""font-size:60px;"">treinta y siete</p>","j","","","empty_block","","treinta y siete","","","","2","28",""
"","","","","","html-keyboard-response","184","360069","0.0-199.0","65","1","2023-11-01 18:12:01","a725c3012b74bf33a1020a98cb69c237","201.231.237.246","Mozilla/5.0 (Windows NT 10.0; Win64; x64) AppleWebKit/537.36 (KHTML, like Gecko) Chrome/118.0.0.0 Safari/537.36","WebKit","Chrome","118.0.0.0","Windows","10.0","null","es-ES,es;q=0.8","true","null","<div style=""font-size:100px;"">X</div>","null","","","fixation","","","","","","","",""
"","","","","","audio-keyboard-response","185","360555","0.0-200.0","65","1","2023-11-01 18:12:01","a725c3012b74bf33a1020a98cb69c237","201.231.237.246","Mozilla/5.0 (Windows NT 10.0; Win64; x64) AppleWebKit/537.36 (KHTML, like Gecko) Chrome/118.0.0.0 Safari/537.36","WebKit","Chrome","118.0.0.0","Windows","10.0","null","es-ES,es;q=0.8","true","480","tones/880hz_short.mp3","s","","","tone_number_task","1025","sesenta y dos","tones/880hz_short.mp3","1175","60","2","29",""
"","","","","","html-keyboard-response","186","361104","0.0-201.0-0.0","65","1","2023-11-01 18:12:01","a725c3012b74bf33a1020a98cb69c237","201.231.237.246","Mozilla/5.0 (Windows NT 10.0; Win64; x64) AppleWebKit/537.36 (KHTML, like Gecko) Chrome/118.0.0.0 Safari/537.36","WebKit","Chrome","118.0.0.0","Windows","10.0","null","es-ES,es;q=0.8","true","null","","null","","","delay_block","","","","","","2","29",""
"","","","","","html-keyboard-response","187","361259","0.0-201.0-1.0","65","1","2023-11-01 18:12:01","a725c3012b74bf33a1020a98cb69c237","201.231.237.246","Mozilla/5.0 (Windows NT 10.0; Win64; x64) AppleWebKit/537.36 (KHTML, like Gecko) Chrome/118.0.0.0 Safari/537.36","WebKit","Chrome","118.0.0.0","Windows","10.0","null","es-ES,es;q=0.8","true","null","<p id=""stimulus"" style=""font-size:60px;"">sesenta y dos</p>","null","","","tone_number_task_remaining_before_delay","","sesenta y dos","","695","60","2","29",""
"","","","","","html-keyboard-response","188","361655","0.0-204.0-0.0","65","1","2023-11-01 18:12:01","a725c3012b74bf33a1020a98cb69c237","201.231.237.246","Mozilla/5.0 (Windows NT 10.0; Win64; x64) AppleWebKit/537.36 (KHTML, like Gecko) Chrome/118.0.0.0 Safari/537.36","WebKit","Chrome","118.0.0.0","Windows","10.0","null","es-ES,es;q=0.8","true","394","<p id=""stimulus"" style=""font-size:60px;"">sesenta y dos</p>","k","","","empty_block","","sesenta y dos","","","","2","29",""
"","","","","","html-keyboard-response","189","364639","0.0-205.0","65","1","2023-11-01 18:12:01","a725c3012b74bf33a1020a98cb69c237","201.231.237.246","Mozilla/5.0 (Windows NT 10.0; Win64; x64) AppleWebKit/537.36 (KHTML, like Gecko) Chrome/118.0.0.0 Safari/537.36","WebKit","Chrome","118.0.0.0","Windows","10.0","null","es-ES,es;q=0.8","true","null","<div style=""font-size:100px;"">X</div>","null","","","fixation","","","","","","","",""
"","","","","","audio-keyboard-response","190","365335","0.0-206.0","65","1","2023-11-01 18:12:01","a725c3012b74bf33a1020a98cb69c237","201.231.237.246","Mozilla/5.0 (Windows NT 10.0; Win64; x64) AppleWebKit/537.36 (KHTML, like Gecko) Chrome/118.0.0.0 Safari/537.36","WebKit","Chrome","118.0.0.0","Windows","10.0","null","es-ES,es;q=0.8","true","699","tones/440hz_short.mp3","a","","","tone_number_task","1025","veintiocho","tones/440hz_short.mp3","1175","60","2","30",""
"","","","","","html-keyboard-response","191","365666","0.0-207.0-0.0","65","1","2023-11-01 18:12:01","a725c3012b74bf33a1020a98cb69c237","201.231.237.246","Mozilla/5.0 (Windows NT 10.0; Win64; x64) AppleWebKit/537.36 (KHTML, like Gecko) Chrome/118.0.0.0 Safari/537.36","WebKit","Chrome","118.0.0.0","Windows","10.0","null","es-ES,es;q=0.8","true","null","","null","","","delay_block","","","","","","2","30",""
"","","","","","html-keyboard-response","192","365820","0.0-207.0-1.0","65","1","2023-11-01 18:12:01","a725c3012b74bf33a1020a98cb69c237","201.231.237.246","Mozilla/5.0 (Windows NT 10.0; Win64; x64) AppleWebKit/537.36 (KHTML, like Gecko) Chrome/118.0.0.0 Safari/537.36","WebKit","Chrome","118.0.0.0","Windows","10.0","null","es-ES,es;q=0.8","true","null","<p id=""stimulus"" style=""font-size:60px;"">veintiocho</p>","null","","","tone_number_task_remaining_before_delay","","veintiocho","","476","60","2","30",""
"","","","","","html-keyboard-response","193","366205","0.0-210.0-0.0","65","1","2023-11-01 18:12:01","a725c3012b74bf33a1020a98cb69c237","201.231.237.246","Mozilla/5.0 (Windows NT 10.0; Win64; x64) AppleWebKit/537.36 (KHTML, like Gecko) Chrome/118.0.0.0 Safari/537.36","WebKit","Chrome","118.0.0.0","Windows","10.0","null","es-ES,es;q=0.8","true","382","<p id=""stimulus"" style=""font-size:60px;"">veintiocho</p>","j","","","empty_block","","veintiocho","","","","2","30",""
"","","","","","html-keyboard-response","194","369190","0.0-211.0","65","1","2023-11-01 18:12:01","a725c3012b74bf33a1020a98cb69c237","201.231.237.246","Mozilla/5.0 (Windows NT 10.0; Win64; x64) AppleWebKit/537.36 (KHTML, like Gecko) Chrome/118.0.0.0 Safari/537.36","WebKit","Chrome","118.0.0.0","Windows","10.0","null","es-ES,es;q=0.8","true","null","<div style=""font-size:100px;"">X</div>","null","","","fixation","","","","","","","",""
"","","","","","audio-keyboard-response","195","369343","0.0-212.0","65","1","2023-11-01 18:12:01","a725c3012b74bf33a1020a98cb69c237","201.231.237.246","Mozilla/5.0 (Windows NT 10.0; Win64; x64) AppleWebKit/537.36 (KHTML, like Gecko) Chrome/118.0.0.0 Safari/537.36","WebKit","Chrome","118.0.0.0","Windows","10.0","null","es-ES,es;q=0.8","true","null","tones/880hz_short.mp3","null","","","tone_number_task","0","veintiuno","tones/880hz_short.mp3","150","60","2","31",""
"","","","","","html-keyboard-response","196","370155","0.0-215.0-0.0","65","1","2023-11-01 18:12:01","a725c3012b74bf33a1020a98cb69c237","201.231.237.246","Mozilla/5.0 (Windows NT 10.0; Win64; x64) AppleWebKit/537.36 (KHTML, like Gecko) Chrome/118.0.0.0 Safari/537.36","WebKit","Chrome","118.0.0.0","Windows","10.0","null","es-ES,es;q=0.8","true","809","tones/880hz_short.mp3","s","","","empty_block","","veintiuno","","","","2","31",""
"","","","","","html-keyboard-response","197","370295","0.0-215.0-1.0","65","1","2023-11-01 18:12:01","a725c3012b74bf33a1020a98cb69c237","201.231.237.246","Mozilla/5.0 (Windows NT 10.0; Win64; x64) AppleWebKit/537.36 (KHTML, like Gecko) Chrome/118.0.0.0 Safari/537.36","WebKit","Chrome","118.0.0.0","Windows","10.0","null","es-ES,es;q=0.8","true","137","tones/880hz_short.mp3","j","","","empty_block","","veintiuno","","","","2","31",""
"","","","","","html-keyboard-response","198","373280","0.0-217.0","65","1","2023-11-01 18:12:01","a725c3012b74bf33a1020a98cb69c237","201.231.237.246","Mozilla/5.0 (Windows NT 10.0; Win64; x64) AppleWebKit/537.36 (KHTML, like Gecko) Chrome/118.0.0.0 Safari/537.36","WebKit","Chrome","118.0.0.0","Windows","10.0","null","es-ES,es;q=0.8","true","null","<div style=""font-size:100px;"">X</div>","null","","","fixation","","","","","","","",""
"","","","","","audio-keyboard-response","199","373535","0.0-218.0","65","1","2023-11-01 18:12:01","a725c3012b74bf33a1020a98cb69c237","201.231.237.246","Mozilla/5.0 (Windows NT 10.0; Win64; x64) AppleWebKit/537.36 (KHTML, like Gecko) Chrome/118.0.0.0 Safari/537.36","WebKit","Chrome","118.0.0.0","Windows","10.0","null","es-ES,es;q=0.8","true","null","tones/880hz_short.mp3","null","","","tone_number_task","102.5","cincuenta","tones/880hz_short.mp3","252.5","60","2","32",""
"","","","","","html-keyboard-response","200","373765","0.0-221.0-0.0","65","1","2023-11-01 18:12:01","a725c3012b74bf33a1020a98cb69c237","201.231.237.246","Mozilla/5.0 (Windows NT 10.0; Win64; x64) AppleWebKit/537.36 (KHTML, like Gecko) Chrome/118.0.0.0 Safari/537.36","WebKit","Chrome","118.0.0.0","Windows","10.0","null","es-ES,es;q=0.8","true","225","tones/880hz_short.mp3","a","","","empty_block","","cincuenta","","","","2","32",""
"","","","","","html-keyboard-response","201","374095","0.0-221.0-1.0","65","1","2023-11-01 18:12:01","a725c3012b74bf33a1020a98cb69c237","201.231.237.246","Mozilla/5.0 (Windows NT 10.0; Win64; x64) AppleWebKit/537.36 (KHTML, like Gecko) Chrome/118.0.0.0 Safari/537.36","WebKit","Chrome","118.0.0.0","Windows","10.0","null","es-ES,es;q=0.8","true","326","tones/880hz_short.mp3","j","","","empty_block","","cincuenta","","","","2","32",""
"","","","","","html-keyboard-response","202","377080","0.0-223.0","65","1","2023-11-01 18:12:01","a725c3012b74bf33a1020a98cb69c237","201.231.237.246","Mozilla/5.0 (Windows NT 10.0; Win64; x64) AppleWebKit/537.36 (KHTML, like Gecko) Chrome/118.0.0.0 Safari/537.36","WebKit","Chrome","118.0.0.0","Windows","10.0","null","es-ES,es;q=0.8","true","null","<div style=""font-size:100px;"">X</div>","null","","","fixation","","","","","","","",""
"","","","","","audio-keyboard-response","203","377234","0.0-224.0","65","1","2023-11-01 18:12:01","a725c3012b74bf33a1020a98cb69c237","201.231.237.246","Mozilla/5.0 (Windows NT 10.0; Win64; x64) AppleWebKit/537.36 (KHTML, like Gecko) Chrome/118.0.0.0 Safari/537.36","WebKit","Chrome","118.0.0.0","Windows","10.0","null","es-ES,es;q=0.8","true","null","tones/440hz_short.mp3","null","","","tone_number_task","0","veintinueve","tones/440hz_short.mp3","150","60","2","33",""
"","","","","","html-keyboard-response","204","377595","0.0-227.0-0.0","65","1","2023-11-01 18:12:01","a725c3012b74bf33a1020a98cb69c237","201.231.237.246","Mozilla/5.0 (Windows NT 10.0; Win64; x64) AppleWebKit/537.36 (KHTML, like Gecko) Chrome/118.0.0.0 Safari/537.36","WebKit","Chrome","118.0.0.0","Windows","10.0","null","es-ES,es;q=0.8","true","357","tones/440hz_short.mp3","a","","","empty_block","","veintinueve","","","","2","33",""
"","","","","","html-keyboard-response","205","377915","0.0-227.0-1.0","65","1","2023-11-01 18:12:01","a725c3012b74bf33a1020a98cb69c237","201.231.237.246","Mozilla/5.0 (Windows NT 10.0; Win64; x64) AppleWebKit/537.36 (KHTML, like Gecko) Chrome/118.0.0.0 Safari/537.36","WebKit","Chrome","118.0.0.0","Windows","10.0","null","es-ES,es;q=0.8","true","317","tones/440hz_short.mp3","k","","","empty_block","","veintinueve","","","","2","33",""
"","","","","","html-keyboard-response","206","380900","0.0-229.0","65","1","2023-11-01 18:12:01","a725c3012b74bf33a1020a98cb69c237","201.231.237.246","Mozilla/5.0 (Windows NT 10.0; Win64; x64) AppleWebKit/537.36 (KHTML, like Gecko) Chrome/118.0.0.0 Safari/537.36","WebKit","Chrome","118.0.0.0","Windows","10.0","null","es-ES,es;q=0.8","true","null","<div style=""font-size:100px;"">X</div>","null","","","fixation","","","","","","","",""
"","","","","","audio-keyboard-response","207","381053","0.0-230.0","65","1","2023-11-01 18:12:01","a725c3012b74bf33a1020a98cb69c237","201.231.237.246","Mozilla/5.0 (Windows NT 10.0; Win64; x64) AppleWebKit/537.36 (KHTML, like Gecko) Chrome/118.0.0.0 Safari/537.36","WebKit","Chrome","118.0.0.0","Windows","10.0","null","es-ES,es;q=0.8","true","null","tones/880hz_short.mp3","null","","","tone_number_task","0","treinta y seis","tones/880hz_short.mp3","150","60","2","34",""
"","","","","","html-keyboard-response","208","381575","0.0-233.0-0.0","65","1","2023-11-01 18:12:01","a725c3012b74bf33a1020a98cb69c237","201.231.237.246","Mozilla/5.0 (Windows NT 10.0; Win64; x64) AppleWebKit/537.36 (KHTML, like Gecko) Chrome/118.0.0.0 Safari/537.36","WebKit","Chrome","118.0.0.0","Windows","10.0","null","es-ES,es;q=0.8","true","519","tones/880hz_short.mp3","s","","","empty_block","","treinta y seis","","","","2","34",""
"","","","","","html-keyboard-response","209","381765","0.0-233.0-1.0","65","1","2023-11-01 18:12:01","a725c3012b74bf33a1020a98cb69c237","201.231.237.246","Mozilla/5.0 (Windows NT 10.0; Win64; x64) AppleWebKit/537.36 (KHTML, like Gecko) Chrome/118.0.0.0 Safari/537.36","WebKit","Chrome","118.0.0.0","Windows","10.0","null","es-ES,es;q=0.8","true","187","tones/880hz_short.mp3","j","","","empty_block","","treinta y seis","","","","2","34",""
"","","","","","html-keyboard-response","210","384750","0.0-235.0","65","1","2023-11-01 18:12:01","a725c3012b74bf33a1020a98cb69c237","201.231.237.246","Mozilla/5.0 (Windows NT 10.0; Win64; x64) AppleWebKit/537.36 (KHTML, like Gecko) Chrome/118.0.0.0 Safari/537.36","WebKit","Chrome","118.0.0.0","Windows","10.0","null","es-ES,es;q=0.8","true","null","<div style=""font-size:100px;"">X</div>","null","","","fixation","","","","","","","",""
"","","","","","audio-keyboard-response","211","385435","0.0-236.0","65","1","2023-11-01 18:12:01","a725c3012b74bf33a1020a98cb69c237","201.231.237.246","Mozilla/5.0 (Windows NT 10.0; Win64; x64) AppleWebKit/537.36 (KHTML, like Gecko) Chrome/118.0.0.0 Safari/537.36","WebKit","Chrome","118.0.0.0","Windows","10.0","null","es-ES,es;q=0.8","true","680","tones/440hz_short.mp3","a","","","tone_number_task","992.5","sesenta","tones/440hz_short.mp3","1142.5","60","2","35",""
"","","","","","html-keyboard-response","212","385751","0.0-237.0-0.0","65","1","2023-11-01 18:12:01","a725c3012b74bf33a1020a98cb69c237","201.231.237.246","Mozilla/5.0 (Windows NT 10.0; Win64; x64) AppleWebKit/537.36 (KHTML, like Gecko) Chrome/118.0.0.0 Safari/537.36","WebKit","Chrome","118.0.0.0","Windows","10.0","null","es-ES,es;q=0.8","true","null","","null","","","delay_block","","","","","","2","35",""
"","","","","","html-keyboard-response","213","385906","0.0-237.0-1.0","65","1","2023-11-01 18:12:01","a725c3012b74bf33a1020a98cb69c237","201.231.237.246","Mozilla/5.0 (Windows NT 10.0; Win64; x64) AppleWebKit/537.36 (KHTML, like Gecko) Chrome/118.0.0.0 Safari/537.36","WebKit","Chrome","118.0.0.0","Windows","10.0","null","es-ES,es;q=0.8","true","null","<p id=""stimulus"" style=""font-size:60px;"">sesenta</p>","null","","","tone_number_task_remaining_before_delay","","sesenta","","462.5","60","2","35",""
"","","","","","html-keyboard-response","214","386215","0.0-240.0-0.0","65","1","2023-11-01 18:12:01","a725c3012b74bf33a1020a98cb69c237","201.231.237.246","Mozilla/5.0 (Windows NT 10.0; Win64; x64) AppleWebKit/537.36 (KHTML, like Gecko) Chrome/118.0.0.0 Safari/537.36","WebKit","Chrome","118.0.0.0","Windows","10.0","null","es-ES,es;q=0.8","true","306","<p id=""stimulus"" style=""font-size:60px;"">sesenta</p>","k","","","empty_block","","sesenta","","","","2","35",""
"","","","","","html-keyboard-response","215","389200","0.0-241.0","65","1","2023-11-01 18:12:01","a725c3012b74bf33a1020a98cb69c237","201.231.237.246","Mozilla/5.0 (Windows NT 10.0; Win64; x64) AppleWebKit/537.36 (KHTML, like Gecko) Chrome/118.0.0.0 Safari/537.36","WebKit","Chrome","118.0.0.0","Windows","10.0","null","es-ES,es;q=0.8","true","null","<div style=""font-size:100px;"">X</div>","null","","","fixation","","","","","","","",""
