"success","timeout","failed_images","failed_audio","failed_video","trial_type","trial_index","time_elapsed","internal_node_id","run_id","condition","recorded_at","source_code_version","ip","user_agent","device","browser","browser_version","platform","platform_version","referer","accept_language","check","rt","stimulus","response","question_order","url","task","delay","number","audioFile","trial_duration","font_size","block","round","value"
"true","false","[]","[]","[]","preload","0","417","0.0-0.0","64","1","2023-10-25 15:12:02","a725c3012b74bf33a1020a98cb69c237","157.92.14.67","Mozilla/5.0 (X11; Ubuntu; Linux x86_64; rv:109.0) Gecko/20100101 Firefox/118.0","","Firefox","118.0","Ubuntu","","null","es-AR,es;q=0.8,en-US;q=0.5,en;q=0.3","true","","","","","","","","","","","","","",""
"true","","","","","fullscreen","1","367677","0.0-1.0","64","1","2023-10-25 15:12:02","a725c3012b74bf33a1020a98cb69c237","157.92.14.67","Mozilla/5.0 (X11; Ubuntu; Linux x86_64; rv:109.0) Gecko/20100101 Firefox/118.0","","Firefox","118.0","Ubuntu","","null","es-AR,es;q=0.8,en-US;q=0.5,en;q=0.3","true","","","","","","","","","","","","","",""
"","","","","","html-button-response","2","371230","0.0-2.0","64","1","2023-10-25 15:12:02","a725c3012b74bf33a1020a98cb69c237","157.92.14.67","Mozilla/5.0 (X11; Ubuntu; Linux x86_64; rv:109.0) Gecko/20100101 Firefox/118.0","","Firefox","118.0","Ubuntu","","null","es-AR,es;q=0.8,en-US;q=0.5,en;q=0.3","true","3540","<p style=""font-size:24px; color:red;"">Cosas importantes a tener en cuenta antes de comenzar el experimento:</p>","0","","","","","","","","","","",""
"","","","","","html-button-response","3","377291","0.0-3.0","64","1","2023-10-25 15:12:02","a725c3012b74bf33a1020a98cb69c237","157.92.14.67","Mozilla/5.0 (X11; Ubuntu; Linux x86_64; rv:109.0) Gecko/20100101 Firefox/118.0","","Firefox","118.0","Ubuntu","","null","es-AR,es;q=0.8,en-US;q=0.5,en;q=0.3","true","6054","<p style=""font-size:24px;"">El experimento dura aproximadamente 15 minutos.</p><p style=""font-size:24px;"">Por favor, no cierres la ventana del navegador durante el experimento.</p><p style=""font-size:24px;"">Si se completa de forma parcial, no se guardará ningún resultado.</p>","0","","","","","","","","","","",""
"","","","","","html-button-response","4","380212","0.0-4.0","64","1","2023-10-25 15:12:02","a725c3012b74bf33a1020a98cb69c237","157.92.14.67","Mozilla/5.0 (X11; Ubuntu; Linux x86_64; rv:109.0) Gecko/20100101 Firefox/118.0","","Firefox","118.0","Ubuntu","","null","es-AR,es;q=0.8,en-US;q=0.5,en;q=0.3","true","2915","<p style=""font-size:24px;"">El experimento contiene estímulos sonoros.</p>","0","","","","","","","","","","",""
"","","","","","audio-button-response","5","383019","0.0-5.0-0.0","64","1","2023-10-25 15:12:02","a725c3012b74bf33a1020a98cb69c237","157.92.14.67","Mozilla/5.0 (X11; Ubuntu; Linux x86_64; rv:109.0) Gecko/20100101 Firefox/118.0","","Firefox","118.0","Ubuntu","","null","es-AR,es;q=0.8,en-US;q=0.5,en;q=0.3","true","2450","tones/440hz_short.mp3","1","","","","","","","","","","",""
"","","","","","audio-button-response","6","384867","0.0-6.0-0.0","64","1","2023-10-25 15:12:02","a725c3012b74bf33a1020a98cb69c237","157.92.14.67","Mozilla/5.0 (X11; Ubuntu; Linux x86_64; rv:109.0) Gecko/20100101 Firefox/118.0","","Firefox","118.0","Ubuntu","","null","es-AR,es;q=0.8,en-US;q=0.5,en;q=0.3","true","1846","tones/880hz_short.mp3","1","","","","","","","","","","",""
"","","","","","survey-html-form","7","387993","0.0-7.0","64","1","2023-10-25 15:12:02","a725c3012b74bf33a1020a98cb69c237","157.92.14.67","Mozilla/5.0 (X11; Ubuntu; Linux x86_64; rv:109.0) Gecko/20100101 Firefox/118.0","","Firefox","118.0","Ubuntu","","null","es-AR,es;q=0.8,en-US;q=0.5,en;q=0.3","true","3115","","{""response"":""23""}","","","","","","","","","","",""
"","","","","","survey-multi-choice","8","394573","0.0-8.0","64","1","2023-10-25 15:12:02","a725c3012b74bf33a1020a98cb69c237","157.92.14.67","Mozilla/5.0 (X11; Ubuntu; Linux x86_64; rv:109.0) Gecko/20100101 Firefox/118.0","","Firefox","118.0","Ubuntu","","null","es-AR,es;q=0.8,en-US;q=0.5,en;q=0.3","true","6579","","{""gender"":""Mujer"",""hand"":""Derecha""}","[0,1]","","","","","","","","","",""
"","","","","","external-html","9","441108","0.0-9.0","64","1","2023-10-25 15:12:02","a725c3012b74bf33a1020a98cb69c237","157.92.14.67","Mozilla/5.0 (X11; Ubuntu; Linux x86_64; rv:109.0) Gecko/20100101 Firefox/118.0","","Firefox","118.0","Ubuntu","","null","es-AR,es;q=0.8,en-US;q=0.5,en;q=0.3","true","46255","","","","instructions/instructions.html","","","","","","","","",""
"","","","","","external-html","10","470674","0.0-10.0","64","1","2023-10-25 15:12:02","a725c3012b74bf33a1020a98cb69c237","157.92.14.67","Mozilla/5.0 (X11; Ubuntu; Linux x86_64; rv:109.0) Gecko/20100101 Firefox/118.0","","Firefox","118.0","Ubuntu","","null","es-AR,es;q=0.8,en-US;q=0.5,en;q=0.3","true","29262","","","","instructions/animation.html","","","","","","","","",""
"","","","","","html-keyboard-response","11","473486","0.0-11.0-0.0","64","1","2023-10-25 15:12:02","a725c3012b74bf33a1020a98cb69c237","157.92.14.67","Mozilla/5.0 (X11; Ubuntu; Linux x86_64; rv:109.0) Gecko/20100101 Firefox/118.0","","Firefox","118.0","Ubuntu","","null","es-AR,es;q=0.8,en-US;q=0.5,en;q=0.3","true","null","<div style=""font-size:100px;"">X</div>","null","","","fixation","","","","","","","",""
"","","","","","audio-keyboard-response","12","474089","0.0-11.0-1.0","64","1","2023-10-25 15:12:02","a725c3012b74bf33a1020a98cb69c237","157.92.14.67","Mozilla/5.0 (X11; Ubuntu; Linux x86_64; rv:109.0) Gecko/20100101 Firefox/118.0","","Firefox","118.0","Ubuntu","","null","es-AR,es;q=0.8,en-US;q=0.5,en;q=0.3","true","601","tones/880hz_short.mp3","s","","","tone_number_task","1000","44","tones/880hz_short.mp3","1150","100","null","null",""
"","","","","","html-keyboard-response","13","474492","0.0-11.0-2.0-0.0","64","1","2023-10-25 15:12:02","a725c3012b74bf33a1020a98cb69c237","157.92.14.67","Mozilla/5.0 (X11; Ubuntu; Linux x86_64; rv:109.0) Gecko/20100101 Firefox/118.0","","Firefox","118.0","Ubuntu","","null","es-AR,es;q=0.8,en-US;q=0.5,en;q=0.3","true","null","","null","","","delay_block","","","","","","null","null",""
"","","","","","html-keyboard-response","14","474647","0.0-11.0-2.0-1.0","64","1","2023-10-25 15:12:02","a725c3012b74bf33a1020a98cb69c237","157.92.14.67","Mozilla/5.0 (X11; Ubuntu; Linux x86_64; rv:109.0) Gecko/20100101 Firefox/118.0","","Firefox","118.0","Ubuntu","","null","es-AR,es;q=0.8,en-US;q=0.5,en;q=0.3","true","null","<p id=""stimulus"" style=""font-size:100px;"">44</p>","null","","","tone_number_task_remaining_before_delay","","44","","549","100","null","null",""
"","","","","","html-keyboard-response","15","475145","0.0-11.0-5.0-0.0","64","1","2023-10-25 15:12:02","a725c3012b74bf33a1020a98cb69c237","157.92.14.67","Mozilla/5.0 (X11; Ubuntu; Linux x86_64; rv:109.0) Gecko/20100101 Firefox/118.0","","Firefox","118.0","Ubuntu","","null","es-AR,es;q=0.8,en-US;q=0.5,en;q=0.3","true","493","<p id=""stimulus"" style=""font-size:100px;"">44</p>","j","","","empty_block","","44","","","","null","null",""
"","","","","","html-keyboard-response","16","477951","0.0-13.0-0.0","64","1","2023-10-25 15:12:02","a725c3012b74bf33a1020a98cb69c237","157.92.14.67","Mozilla/5.0 (X11; Ubuntu; Linux x86_64; rv:109.0) Gecko/20100101 Firefox/118.0","","Firefox","118.0","Ubuntu","","null","es-AR,es;q=0.8,en-US;q=0.5,en;q=0.3","true","null","<div style=""font-size:100px;"">X</div>","null","","","fixation","","","","","","","",""
"","","","","","audio-keyboard-response","17","478361","0.0-13.0-1.0","64","1","2023-10-25 15:12:02","a725c3012b74bf33a1020a98cb69c237","157.92.14.67","Mozilla/5.0 (X11; Ubuntu; Linux x86_64; rv:109.0) Gecko/20100101 Firefox/118.0","","Firefox","118.0","Ubuntu","","null","es-AR,es;q=0.8,en-US;q=0.5,en;q=0.3","true","406","tones/440hz_short.mp3","a","","","tone_number_task","500","68","tones/440hz_short.mp3","650","100","null","null",""
"","","","","","html-keyboard-response","18","478459","0.0-13.0-2.0-0.0","64","1","2023-10-25 15:12:02","a725c3012b74bf33a1020a98cb69c237","157.92.14.67","Mozilla/5.0 (X11; Ubuntu; Linux x86_64; rv:109.0) Gecko/20100101 Firefox/118.0","","Firefox","118.0","Ubuntu","","null","es-AR,es;q=0.8,en-US;q=0.5,en;q=0.3","true","null","","null","","","delay_block","","","","","","null","null",""
"","","","","","html-keyboard-response","19","478631","0.0-13.0-2.0-1.0","64","1","2023-10-25 15:12:02","a725c3012b74bf33a1020a98cb69c237","157.92.14.67","Mozilla/5.0 (X11; Ubuntu; Linux x86_64; rv:109.0) Gecko/20100101 Firefox/118.0","","Firefox","118.0","Ubuntu","","null","es-AR,es;q=0.8,en-US;q=0.5,en;q=0.3","true","null","<p id=""stimulus"" style=""font-size:100px;"">68</p>","null","","","tone_number_task_remaining_before_delay","","68","","244","100","null","null",""
"","","","","","html-keyboard-response","20","478968","0.0-13.0-5.0-0.0","64","1","2023-10-25 15:12:02","a725c3012b74bf33a1020a98cb69c237","157.92.14.67","Mozilla/5.0 (X11; Ubuntu; Linux x86_64; rv:109.0) Gecko/20100101 Firefox/118.0","","Firefox","118.0","Ubuntu","","null","es-AR,es;q=0.8,en-US;q=0.5,en;q=0.3","true","334","<p id=""stimulus"" style=""font-size:100px;"">68</p>","k","","","empty_block","","68","","","","null","null",""
"","","","","","html-keyboard-response","21","481777","0.0-15.0-0.0","64","1","2023-10-25 15:12:02","a725c3012b74bf33a1020a98cb69c237","157.92.14.67","Mozilla/5.0 (X11; Ubuntu; Linux x86_64; rv:109.0) Gecko/20100101 Firefox/118.0","","Firefox","118.0","Ubuntu","","null","es-AR,es;q=0.8,en-US;q=0.5,en;q=0.3","true","null","<div style=""font-size:100px;"">X</div>","null","","","fixation","","","","","","","",""
"","","","","","audio-keyboard-response","22","482081","0.0-15.0-1.0","64","1","2023-10-25 15:12:02","a725c3012b74bf33a1020a98cb69c237","157.92.14.67","Mozilla/5.0 (X11; Ubuntu; Linux x86_64; rv:109.0) Gecko/20100101 Firefox/118.0","","Firefox","118.0","Ubuntu","","null","es-AR,es;q=0.8,en-US;q=0.5,en;q=0.3","true","null","tones/880hz_short.mp3","null","","","tone_number_task","150","31","tones/880hz_short.mp3","300","100","null","null",""
"","","","","","html-keyboard-response","23","482297","0.0-15.0-4.0-0.0","64","1","2023-10-25 15:12:02","a725c3012b74bf33a1020a98cb69c237","157.92.14.67","Mozilla/5.0 (X11; Ubuntu; Linux x86_64; rv:109.0) Gecko/20100101 Firefox/118.0","","Firefox","118.0","Ubuntu","","null","es-AR,es;q=0.8,en-US;q=0.5,en;q=0.3","true","212","tones/880hz_short.mp3","s","","","empty_block","","31","","","","null","null",""
"","","","","","html-keyboard-response","24","482761","0.0-15.0-4.0-1.0","64","1","2023-10-25 15:12:02","a725c3012b74bf33a1020a98cb69c237","157.92.14.67","Mozilla/5.0 (X11; Ubuntu; Linux x86_64; rv:109.0) Gecko/20100101 Firefox/118.0","","Firefox","118.0","Ubuntu","","null","es-AR,es;q=0.8,en-US;q=0.5,en;q=0.3","true","460","tones/880hz_short.mp3","j","","","empty_block","","31","","","","null","null",""
"","","","","","html-keyboard-response","25","485569","0.0-17.0-0.0","64","1","2023-10-25 15:12:02","a725c3012b74bf33a1020a98cb69c237","157.92.14.67","Mozilla/5.0 (X11; Ubuntu; Linux x86_64; rv:109.0) Gecko/20100101 Firefox/118.0","","Firefox","118.0","Ubuntu","","null","es-AR,es;q=0.8,en-US;q=0.5,en;q=0.3","true","null","<div style=""font-size:100px;"">X</div>","null","","","fixation","","","","","","","",""
"","","","","","audio-keyboard-response","26","485772","0.0-17.0-1.0","64","1","2023-10-25 15:12:02","a725c3012b74bf33a1020a98cb69c237","157.92.14.67","Mozilla/5.0 (X11; Ubuntu; Linux x86_64; rv:109.0) Gecko/20100101 Firefox/118.0","","Firefox","118.0","Ubuntu","","null","es-AR,es;q=0.8,en-US;q=0.5,en;q=0.3","true","null","tones/880hz_short.mp3","null","","","tone_number_task","50","56","tones/880hz_short.mp3","200","100","null","null",""
"","","","","","html-keyboard-response","27","486073","0.0-17.0-4.0-0.0","64","1","2023-10-25 15:12:02","a725c3012b74bf33a1020a98cb69c237","157.92.14.67","Mozilla/5.0 (X11; Ubuntu; Linux x86_64; rv:109.0) Gecko/20100101 Firefox/118.0","","Firefox","118.0","Ubuntu","","null","es-AR,es;q=0.8,en-US;q=0.5,en;q=0.3","true","297","tones/880hz_short.mp3","s","","","empty_block","","56","","","","null","null",""
"","","","","","html-keyboard-response","28","486600","0.0-17.0-4.0-1.0","64","1","2023-10-25 15:12:02","a725c3012b74bf33a1020a98cb69c237","157.92.14.67","Mozilla/5.0 (X11; Ubuntu; Linux x86_64; rv:109.0) Gecko/20100101 Firefox/118.0","","Firefox","118.0","Ubuntu","","null","es-AR,es;q=0.8,en-US;q=0.5,en;q=0.3","true","524","tones/880hz_short.mp3","k","","","empty_block","","56","","","","null","null",""
"","","","","","html-button-response","29","492738","0.0-19.0","64","1","2023-10-25 15:12:02","a725c3012b74bf33a1020a98cb69c237","157.92.14.67","Mozilla/5.0 (X11; Ubuntu; Linux x86_64; rv:109.0) Gecko/20100101 Firefox/118.0","","Firefox","118.0","Ubuntu","","null","es-AR,es;q=0.8,en-US;q=0.5,en;q=0.3","true","6132","
  <h1> Muy bien </h1>
  <p> Ahora, en vez de ser presentados en dígitos, los números vendrán escritos en palabras. </p>
  <p> Por ejemplo, en vez de 44 te aparecerá ""cuarenta y cuatro"". </p>
  ","0","","","","","","","","","","",""
"","","","","","html-keyboard-response","30","495570","0.0-20.0-0.0","64","1","2023-10-25 15:12:02","a725c3012b74bf33a1020a98cb69c237","157.92.14.67","Mozilla/5.0 (X11; Ubuntu; Linux x86_64; rv:109.0) Gecko/20100101 Firefox/118.0","","Firefox","118.0","Ubuntu","","null","es-AR,es;q=0.8,en-US;q=0.5,en;q=0.3","true","null","<div style=""font-size:100px;"">X</div>","null","","","fixation","","","","","","","",""
"","","","","","audio-keyboard-response","31","496056","0.0-20.0-1.0","64","1","2023-10-25 15:12:02","a725c3012b74bf33a1020a98cb69c237","157.92.14.67","Mozilla/5.0 (X11; Ubuntu; Linux x86_64; rv:109.0) Gecko/20100101 Firefox/118.0","","Firefox","118.0","Ubuntu","","null","es-AR,es;q=0.8,en-US;q=0.5,en;q=0.3","true","485","tones/880hz_short.mp3","s","","","tone_number_task","1000","veintiocho","tones/880hz_short.mp3","1150","60","null","null",""
"","","","","","html-keyboard-response","32","496577","0.0-20.0-2.0-0.0","64","1","2023-10-25 15:12:02","a725c3012b74bf33a1020a98cb69c237","157.92.14.67","Mozilla/5.0 (X11; Ubuntu; Linux x86_64; rv:109.0) Gecko/20100101 Firefox/118.0","","Firefox","118.0","Ubuntu","","null","es-AR,es;q=0.8,en-US;q=0.5,en;q=0.3","true","null","","null","","","delay_block","","","","","","null","null",""
"","","","","","html-keyboard-response","33","496732","0.0-20.0-2.0-1.0","64","1","2023-10-25 15:12:02","a725c3012b74bf33a1020a98cb69c237","157.92.14.67","Mozilla/5.0 (X11; Ubuntu; Linux x86_64; rv:109.0) Gecko/20100101 Firefox/118.0","","Firefox","118.0","Ubuntu","","null","es-AR,es;q=0.8,en-US;q=0.5,en;q=0.3","true","null","<p id=""stimulus"" style=""font-size:60px;"">veintiocho</p>","null","","","tone_number_task_remaining_before_delay","","veintiocho","","665","60","null","null",""
"","","","","","html-keyboard-response","34","497400","0.0-20.0-5.0-0.0","64","1","2023-10-25 15:12:02","a725c3012b74bf33a1020a98cb69c237","157.92.14.67","Mozilla/5.0 (X11; Ubuntu; Linux x86_64; rv:109.0) Gecko/20100101 Firefox/118.0","","Firefox","118.0","Ubuntu","","null","es-AR,es;q=0.8,en-US;q=0.5,en;q=0.3","true","663","<p id=""stimulus"" style=""font-size:60px;"">veintiocho</p>","j","","","empty_block","","veintiocho","","","","null","null",""
"","","","","","html-button-response","35","505417","0.0-22.0","64","1","2023-10-25 15:12:02","a725c3012b74bf33a1020a98cb69c237","157.92.14.67","Mozilla/5.0 (X11; Ubuntu; Linux x86_64; rv:109.0) Gecko/20100101 Firefox/118.0","","Firefox","118.0","Ubuntu","","null","es-AR,es;q=0.8,en-US;q=0.5,en;q=0.3","true","8011","
  <h1> Fin del Entrenamiento </h1>
  <p> ¡Felicitaciones, terminaste el entrenamiento! Ahora vamos a comenzar con el experimento. </p>
  <p> Es importante tener en cuenta que consta de cuatro bloques.</p>
  <p> Podés aprovechar los momentos entre bloques para tomar un breve descanso o tomar agua entre cada uno</p>
  <p> Recordá que tenés que responder lo más rápido que puedas, pero sin equivocarte. </p>
  ","0","","","","","","","","","","",""
"","","","","","external-html","36","520602","0.0-23.0","64","1","2023-10-25 15:12:02","a725c3012b74bf33a1020a98cb69c237","157.92.14.67","Mozilla/5.0 (X11; Ubuntu; Linux x86_64; rv:109.0) Gecko/20100101 Firefox/118.0","","Firefox","118.0","Ubuntu","","null","es-AR,es;q=0.8,en-US;q=0.5,en;q=0.3","true","14896","","","","instructions/instructions_words_first.html","","","","","","","","",""
"","","","","","call-function","37","520612","0.0-24.0","64","1","2023-10-25 15:12:02","a725c3012b74bf33a1020a98cb69c237","157.92.14.67","Mozilla/5.0 (X11; Ubuntu; Linux x86_64; rv:109.0) Gecko/20100101 Firefox/118.0","","Firefox","118.0","Ubuntu","","null","es-AR,es;q=0.8,en-US;q=0.5,en;q=0.3","true","","","","","","","","","","","","","",""
"","","","","","html-keyboard-response","38","523421","0.0-25.0","64","1","2023-10-25 15:12:02","a725c3012b74bf33a1020a98cb69c237","157.92.14.67","Mozilla/5.0 (X11; Ubuntu; Linux x86_64; rv:109.0) Gecko/20100101 Firefox/118.0","","Firefox","118.0","Ubuntu","","null","es-AR,es;q=0.8,en-US;q=0.5,en;q=0.3","true","null","<div style=""font-size:100px;"">X</div>","null","","","fixation","","","","","","","",""
"","","","","","audio-keyboard-response","39","523576","0.0-26.0","64","1","2023-10-25 15:12:02","a725c3012b74bf33a1020a98cb69c237","157.92.14.67","Mozilla/5.0 (X11; Ubuntu; Linux x86_64; rv:109.0) Gecko/20100101 Firefox/118.0","","Firefox","118.0","Ubuntu","","null","es-AR,es;q=0.8,en-US;q=0.5,en;q=0.3","true","null","tones/880hz_short.mp3","null","","","tone_number_task","0","treinta y cuatro","tones/880hz_short.mp3","150","60","2","0",""
"","","","","","html-keyboard-response","40","524648","0.0-29.0-0.0","64","1","2023-10-25 15:12:02","a725c3012b74bf33a1020a98cb69c237","157.92.14.67","Mozilla/5.0 (X11; Ubuntu; Linux x86_64; rv:109.0) Gecko/20100101 Firefox/118.0","","Firefox","118.0","Ubuntu","","null","es-AR,es;q=0.8,en-US;q=0.5,en;q=0.3","true","1067","tones/880hz_short.mp3","s","","","empty_block","","treinta y cuatro","","","","2","0",""
"","","","","","html-keyboard-response","41","525048","0.0-29.0-1.0","64","1","2023-10-25 15:12:02","a725c3012b74bf33a1020a98cb69c237","157.92.14.67","Mozilla/5.0 (X11; Ubuntu; Linux x86_64; rv:109.0) Gecko/20100101 Firefox/118.0","","Firefox","118.0","Ubuntu","","null","es-AR,es;q=0.8,en-US;q=0.5,en;q=0.3","true","395","tones/880hz_short.mp3","j","","","empty_block","","treinta y cuatro","","","","2","0",""
"","","","","","html-keyboard-response","42","527857","0.0-31.0","64","1","2023-10-25 15:12:02","a725c3012b74bf33a1020a98cb69c237","157.92.14.67","Mozilla/5.0 (X11; Ubuntu; Linux x86_64; rv:109.0) Gecko/20100101 Firefox/118.0","","Firefox","118.0","Ubuntu","","null","es-AR,es;q=0.8,en-US;q=0.5,en;q=0.3","true","null","<div style=""font-size:100px;"">X</div>","null","","","fixation","","","","","","","",""
"","","","","","audio-keyboard-response","43","528536","0.0-32.0","64","1","2023-10-25 15:12:02","a725c3012b74bf33a1020a98cb69c237","157.92.14.67","Mozilla/5.0 (X11; Ubuntu; Linux x86_64; rv:109.0) Gecko/20100101 Firefox/118.0","","Firefox","118.0","Ubuntu","","null","es-AR,es;q=0.8,en-US;q=0.5,en;q=0.3","true","670","tones/440hz_short.mp3","a","","","tone_number_task","992.5","cincuenta y siete","tones/440hz_short.mp3","1142.5","60","2","1",""
"","","","","","html-keyboard-response","44","528864","0.0-33.0-0.0","64","1","2023-10-25 15:12:02","a725c3012b74bf33a1020a98cb69c237","157.92.14.67","Mozilla/5.0 (X11; Ubuntu; Linux x86_64; rv:109.0) Gecko/20100101 Firefox/118.0","","Firefox","118.0","Ubuntu","","null","es-AR,es;q=0.8,en-US;q=0.5,en;q=0.3","true","null","","null","","","delay_block","","","","","","2","1",""
"","","","","","html-keyboard-response","45","529020","0.0-33.0-1.0","64","1","2023-10-25 15:12:02","a725c3012b74bf33a1020a98cb69c237","157.92.14.67","Mozilla/5.0 (X11; Ubuntu; Linux x86_64; rv:109.0) Gecko/20100101 Firefox/118.0","","Firefox","118.0","Ubuntu","","null","es-AR,es;q=0.8,en-US;q=0.5,en;q=0.3","true","null","<p id=""stimulus"" style=""font-size:60px;"">cincuenta y siete</p>","null","","","tone_number_task_remaining_before_delay","","cincuenta y siete","","472.5","60","2","1",""
"","","","","","html-keyboard-response","46","529800","0.0-36.0-0.0","64","1","2023-10-25 15:12:02","a725c3012b74bf33a1020a98cb69c237","157.92.14.67","Mozilla/5.0 (X11; Ubuntu; Linux x86_64; rv:109.0) Gecko/20100101 Firefox/118.0","","Firefox","118.0","Ubuntu","","null","es-AR,es;q=0.8,en-US;q=0.5,en;q=0.3","true","774","<p id=""stimulus"" style=""font-size:60px;"">cincuenta y siete</p>","k","","","empty_block","","cincuenta y siete","","","","2","1",""
"","","","","","html-keyboard-response","47","532607","0.0-37.0","64","1","2023-10-25 15:12:02","a725c3012b74bf33a1020a98cb69c237","157.92.14.67","Mozilla/5.0 (X11; Ubuntu; Linux x86_64; rv:109.0) Gecko/20100101 Firefox/118.0","","Firefox","118.0","Ubuntu","","null","es-AR,es;q=0.8,en-US;q=0.5,en;q=0.3","true","null","<div style=""font-size:100px;"">X</div>","null","","","fixation","","","","","","","",""
"","","","","","audio-keyboard-response","48","532764","0.0-38.0","64","1","2023-10-25 15:12:02","a725c3012b74bf33a1020a98cb69c237","157.92.14.67","Mozilla/5.0 (X11; Ubuntu; Linux x86_64; rv:109.0) Gecko/20100101 Firefox/118.0","","Firefox","118.0","Ubuntu","","null","es-AR,es;q=0.8,en-US;q=0.5,en;q=0.3","true","null","tones/440hz_short.mp3","null","","","tone_number_task","0","treinta y ocho","tones/440hz_short.mp3","150","60","2","2",""
"","","","","","html-keyboard-response","49","533718","0.0-41.0-0.0","64","1","2023-10-25 15:12:02","a725c3012b74bf33a1020a98cb69c237","157.92.14.67","Mozilla/5.0 (X11; Ubuntu; Linux x86_64; rv:109.0) Gecko/20100101 Firefox/118.0","","Firefox","118.0","Ubuntu","","null","es-AR,es;q=0.8,en-US;q=0.5,en;q=0.3","true","950","tones/440hz_short.mp3","a","","","empty_block","","treinta y ocho","","","","2","2",""
"","","","","","html-keyboard-response","50","534088","0.0-41.0-1.0","64","1","2023-10-25 15:12:02","a725c3012b74bf33a1020a98cb69c237","157.92.14.67","Mozilla/5.0 (X11; Ubuntu; Linux x86_64; rv:109.0) Gecko/20100101 Firefox/118.0","","Firefox","118.0","Ubuntu","","null","es-AR,es;q=0.8,en-US;q=0.5,en;q=0.3","true","367","tones/440hz_short.mp3","j","","","empty_block","","treinta y ocho","","","","2","2",""
"","","","","","html-keyboard-response","51","537069","0.0-43.0","64","1","2023-10-25 15:12:02","a725c3012b74bf33a1020a98cb69c237","157.92.14.67","Mozilla/5.0 (X11; Ubuntu; Linux x86_64; rv:109.0) Gecko/20100101 Firefox/118.0","","Firefox","118.0","Ubuntu","","null","es-AR,es;q=0.8,en-US;q=0.5,en;q=0.3","true","null","<div style=""font-size:100px;"">X</div>","null","","","fixation","","","","","","","",""
"","","","","","audio-keyboard-response","52","538009","0.0-44.0","64","1","2023-10-25 15:12:02","a725c3012b74bf33a1020a98cb69c237","157.92.14.67","Mozilla/5.0 (X11; Ubuntu; Linux x86_64; rv:109.0) Gecko/20100101 Firefox/118.0","","Firefox","118.0","Ubuntu","","null","es-AR,es;q=0.8,en-US;q=0.5,en;q=0.3","true","943","tones/440hz_short.mp3","a","","","tone_number_task","992.5","cuarenta y seis","tones/440hz_short.mp3","1142.5","60","2","3",""
"","","","","","html-keyboard-response","53","538062","0.0-45.0-0.0","64","1","2023-10-25 15:12:02","a725c3012b74bf33a1020a98cb69c237","157.92.14.67","Mozilla/5.0 (X11; Ubuntu; Linux x86_64; rv:109.0) Gecko/20100101 Firefox/118.0","","Firefox","118.0","Ubuntu","","null","es-AR,es;q=0.8,en-US;q=0.5,en;q=0.3","true","null","","null","","","delay_block","","","","","","2","3",""
"","","","","","html-keyboard-response","54","538219","0.0-45.0-1.0","64","1","2023-10-25 15:12:02","a725c3012b74bf33a1020a98cb69c237","157.92.14.67","Mozilla/5.0 (X11; Ubuntu; Linux x86_64; rv:109.0) Gecko/20100101 Firefox/118.0","","Firefox","118.0","Ubuntu","","null","es-AR,es;q=0.8,en-US;q=0.5,en;q=0.3","true","null","<p id=""stimulus"" style=""font-size:60px;"">cuarenta y seis</p>","null","","","tone_number_task_remaining_before_delay","","cuarenta y seis","","199.5","60","2","3",""
"","","","","","html-keyboard-response","55","538952","0.0-48.0-0.0","64","1","2023-10-25 15:12:02","a725c3012b74bf33a1020a98cb69c237","157.92.14.67","Mozilla/5.0 (X11; Ubuntu; Linux x86_64; rv:109.0) Gecko/20100101 Firefox/118.0","","Firefox","118.0","Ubuntu","","null","es-AR,es;q=0.8,en-US;q=0.5,en;q=0.3","true","725","<p id=""stimulus"" style=""font-size:60px;"">cuarenta y seis</p>","k","","","empty_block","","cuarenta y seis","","","","2","3",""
"","","","","","html-keyboard-response","56","542075","0.0-49.0","64","1","2023-10-25 15:12:02","a725c3012b74bf33a1020a98cb69c237","157.92.14.67","Mozilla/5.0 (X11; Ubuntu; Linux x86_64; rv:109.0) Gecko/20100101 Firefox/118.0","","Firefox","118.0","Ubuntu","","null","es-AR,es;q=0.8,en-US;q=0.5,en;q=0.3","true","null","<div style=""font-size:100px;"">X</div>","null","","","fixation","","","","","","","",""
"","","","","","audio-keyboard-response","57","542632","0.0-50.0","64","1","2023-10-25 15:12:02","a725c3012b74bf33a1020a98cb69c237","157.92.14.67","Mozilla/5.0 (X11; Ubuntu; Linux x86_64; rv:109.0) Gecko/20100101 Firefox/118.0","","Firefox","118.0","Ubuntu","","null","es-AR,es;q=0.8,en-US;q=0.5,en;q=0.3","true","560","tones/440hz_short.mp3","a","","","tone_number_task","1025","cuarenta y siete","tones/440hz_short.mp3","1175","60","2","4",""
"","","","","","html-keyboard-response","58","543102","0.0-51.0-0.0","64","1","2023-10-25 15:12:02","a725c3012b74bf33a1020a98cb69c237","157.92.14.67","Mozilla/5.0 (X11; Ubuntu; Linux x86_64; rv:109.0) Gecko/20100101 Firefox/118.0","","Firefox","118.0","Ubuntu","","null","es-AR,es;q=0.8,en-US;q=0.5,en;q=0.3","true","null","","null","","","delay_block","","","","","","2","4",""
"","","","","","html-keyboard-response","59","543260","0.0-51.0-1.0","64","1","2023-10-25 15:12:02","a725c3012b74bf33a1020a98cb69c237","157.92.14.67","Mozilla/5.0 (X11; Ubuntu; Linux x86_64; rv:109.0) Gecko/20100101 Firefox/118.0","","Firefox","118.0","Ubuntu","","null","es-AR,es;q=0.8,en-US;q=0.5,en;q=0.3","true","null","<p id=""stimulus"" style=""font-size:60px;"">cuarenta y siete</p>","null","","","tone_number_task_remaining_before_delay","","cuarenta y siete","","615","60","2","4",""
"","","","","","html-keyboard-response","60","543800","0.0-54.0-0.0","64","1","2023-10-25 15:12:02","a725c3012b74bf33a1020a98cb69c237","157.92.14.67","Mozilla/5.0 (X11; Ubuntu; Linux x86_64; rv:109.0) Gecko/20100101 Firefox/118.0","","Firefox","118.0","Ubuntu","","null","es-AR,es;q=0.8,en-US;q=0.5,en;q=0.3","true","533","<p id=""stimulus"" style=""font-size:60px;"">cuarenta y siete</p>","k","","","empty_block","","cuarenta y siete","","","","2","4",""
"","","","","","html-keyboard-response","61","546609","0.0-55.0","64","1","2023-10-25 15:12:02","a725c3012b74bf33a1020a98cb69c237","157.92.14.67","Mozilla/5.0 (X11; Ubuntu; Linux x86_64; rv:109.0) Gecko/20100101 Firefox/118.0","","Firefox","118.0","Ubuntu","","null","es-AR,es;q=0.8,en-US;q=0.5,en;q=0.3","true","null","<div style=""font-size:100px;"">X</div>","null","","","fixation","","","","","","","",""
"","","","","","audio-keyboard-response","62","547256","0.0-56.0","64","1","2023-10-25 15:12:02","a725c3012b74bf33a1020a98cb69c237","157.92.14.67","Mozilla/5.0 (X11; Ubuntu; Linux x86_64; rv:109.0) Gecko/20100101 Firefox/118.0","","Firefox","118.0","Ubuntu","","null","es-AR,es;q=0.8,en-US;q=0.5,en;q=0.3","true","641","tones/440hz_short.mp3","a","","","tone_number_task","1025","cincuenta y dos","tones/440hz_short.mp3","1175","60","2","5",""
"","","","","","html-keyboard-response","63","547646","0.0-57.0-0.0","64","1","2023-10-25 15:12:02","a725c3012b74bf33a1020a98cb69c237","157.92.14.67","Mozilla/5.0 (X11; Ubuntu; Linux x86_64; rv:109.0) Gecko/20100101 Firefox/118.0","","Firefox","118.0","Ubuntu","","null","es-AR,es;q=0.8,en-US;q=0.5,en;q=0.3","true","null","","null","","","delay_block","","","","","","2","5",""
"","","","","","html-keyboard-response","64","547802","0.0-57.0-1.0","64","1","2023-10-25 15:12:02","a725c3012b74bf33a1020a98cb69c237","157.92.14.67","Mozilla/5.0 (X11; Ubuntu; Linux x86_64; rv:109.0) Gecko/20100101 Firefox/118.0","","Firefox","118.0","Ubuntu","","null","es-AR,es;q=0.8,en-US;q=0.5,en;q=0.3","true","null","<p id=""stimulus"" style=""font-size:60px;"">cincuenta y dos</p>","null","","","tone_number_task_remaining_before_delay","","cincuenta y dos","","534","60","2","5",""
"","","","","","html-keyboard-response","65","548776","0.0-60.0-0.0","64","1","2023-10-25 15:12:02","a725c3012b74bf33a1020a98cb69c237","157.92.14.67","Mozilla/5.0 (X11; Ubuntu; Linux x86_64; rv:109.0) Gecko/20100101 Firefox/118.0","","Firefox","118.0","Ubuntu","","null","es-AR,es;q=0.8,en-US;q=0.5,en;q=0.3","true","969","<p id=""stimulus"" style=""font-size:60px;"">cincuenta y dos</p>","k","","","empty_block","","cincuenta y dos","","","","2","5",""
"","","","","","html-keyboard-response","66","551585","0.0-61.0","64","1","2023-10-25 15:12:02","a725c3012b74bf33a1020a98cb69c237","157.92.14.67","Mozilla/5.0 (X11; Ubuntu; Linux x86_64; rv:109.0) Gecko/20100101 Firefox/118.0","","Firefox","118.0","Ubuntu","","null","es-AR,es;q=0.8,en-US;q=0.5,en;q=0.3","true","null","<div style=""font-size:100px;"">X</div>","null","","","fixation","","","","","","","",""
"","","","","","audio-keyboard-response","67","551741","0.0-62.0","64","1","2023-10-25 15:12:02","a725c3012b74bf33a1020a98cb69c237","157.92.14.67","Mozilla/5.0 (X11; Ubuntu; Linux x86_64; rv:109.0) Gecko/20100101 Firefox/118.0","","Firefox","118.0","Ubuntu","","null","es-AR,es;q=0.8,en-US;q=0.5,en;q=0.3","true","null","tones/440hz_short.mp3","null","","","tone_number_task","0","cuarenta y uno","tones/440hz_short.mp3","150","60","2","6",""
"","","","","","html-keyboard-response","68","552440","0.0-65.0-0.0","64","1","2023-10-25 15:12:02","a725c3012b74bf33a1020a98cb69c237","157.92.14.67","Mozilla/5.0 (X11; Ubuntu; Linux x86_64; rv:109.0) Gecko/20100101 Firefox/118.0","","Firefox","118.0","Ubuntu","","null","es-AR,es;q=0.8,en-US;q=0.5,en;q=0.3","true","692","tones/440hz_short.mp3","a","","","empty_block","","cuarenta y uno","","","","2","6",""
"","","","","","html-keyboard-response","69","552840","0.0-65.0-1.0","64","1","2023-10-25 15:12:02","a725c3012b74bf33a1020a98cb69c237","157.92.14.67","Mozilla/5.0 (X11; Ubuntu; Linux x86_64; rv:109.0) Gecko/20100101 Firefox/118.0","","Firefox","118.0","Ubuntu","","null","es-AR,es;q=0.8,en-US;q=0.5,en;q=0.3","true","394","tones/440hz_short.mp3","j","","","empty_block","","cuarenta y uno","","","","2","6",""
"","","","","","html-keyboard-response","70","555799","0.0-67.0","64","1","2023-10-25 15:12:02","a725c3012b74bf33a1020a98cb69c237","157.92.14.67","Mozilla/5.0 (X11; Ubuntu; Linux x86_64; rv:109.0) Gecko/20100101 Firefox/118.0","","Firefox","118.0","Ubuntu","","null","es-AR,es;q=0.8,en-US;q=0.5,en;q=0.3","true","null","<div style=""font-size:100px;"">X</div>","null","","","fixation","","","","","","","",""
"","","","","","audio-keyboard-response","71","556312","0.0-68.0","64","1","2023-10-25 15:12:02","a725c3012b74bf33a1020a98cb69c237","157.92.14.67","Mozilla/5.0 (X11; Ubuntu; Linux x86_64; rv:109.0) Gecko/20100101 Firefox/118.0","","Firefox","118.0","Ubuntu","","null","es-AR,es;q=0.8,en-US;q=0.5,en;q=0.3","true","517","tones/880hz_short.mp3","s","","","tone_number_task","992.5","sesenta y cinco","tones/880hz_short.mp3","1142.5","60","2","7",""
"","","","","","html-keyboard-response","72","556796","0.0-69.0-0.0","64","1","2023-10-25 15:12:02","a725c3012b74bf33a1020a98cb69c237","157.92.14.67","Mozilla/5.0 (X11; Ubuntu; Linux x86_64; rv:109.0) Gecko/20100101 Firefox/118.0","","Firefox","118.0","Ubuntu","","null","es-AR,es;q=0.8,en-US;q=0.5,en;q=0.3","true","null","","null","","","delay_block","","","","","","2","7",""
"","","","","","html-keyboard-response","73","556952","0.0-69.0-1.0","64","1","2023-10-25 15:12:02","a725c3012b74bf33a1020a98cb69c237","157.92.14.67","Mozilla/5.0 (X11; Ubuntu; Linux x86_64; rv:109.0) Gecko/20100101 Firefox/118.0","","Firefox","118.0","Ubuntu","","null","es-AR,es;q=0.8,en-US;q=0.5,en;q=0.3","true","null","<p id=""stimulus"" style=""font-size:60px;"">sesenta y cinco</p>","null","","","tone_number_task_remaining_before_delay","","sesenta y cinco","","625.5","60","2","7",""
"","","","","","html-keyboard-response","74","557448","0.0-72.0-0.0","64","1","2023-10-25 15:12:02","a725c3012b74bf33a1020a98cb69c237","157.92.14.67","Mozilla/5.0 (X11; Ubuntu; Linux x86_64; rv:109.0) Gecko/20100101 Firefox/118.0","","Firefox","118.0","Ubuntu","","null","es-AR,es;q=0.8,en-US;q=0.5,en;q=0.3","true","488","<p id=""stimulus"" style=""font-size:60px;"">sesenta y cinco</p>","k","","","empty_block","","sesenta y cinco","","","","2","7",""
"","","","","","html-keyboard-response","75","560256","0.0-73.0","64","1","2023-10-25 15:12:02","a725c3012b74bf33a1020a98cb69c237","157.92.14.67","Mozilla/5.0 (X11; Ubuntu; Linux x86_64; rv:109.0) Gecko/20100101 Firefox/118.0","","Firefox","118.0","Ubuntu","","null","es-AR,es;q=0.8,en-US;q=0.5,en;q=0.3","true","null","<div style=""font-size:100px;"">X</div>","null","","","fixation","","","","","","","",""
"","","","","","audio-keyboard-response","76","561271","0.0-74.0","64","1","2023-10-25 15:12:02","a725c3012b74bf33a1020a98cb69c237","157.92.14.67","Mozilla/5.0 (X11; Ubuntu; Linux x86_64; rv:109.0) Gecko/20100101 Firefox/118.0","","Firefox","118.0","Ubuntu","","null","es-AR,es;q=0.8,en-US;q=0.5,en;q=0.3","true","1016","tones/880hz_short.mp3","s","","","tone_number_task","1025","treinta y cinco","tones/880hz_short.mp3","1175","60","2","8",""
"","","","","","html-keyboard-response","77","561286","0.0-75.0-0.0","64","1","2023-10-25 15:12:02","a725c3012b74bf33a1020a98cb69c237","157.92.14.67","Mozilla/5.0 (X11; Ubuntu; Linux x86_64; rv:109.0) Gecko/20100101 Firefox/118.0","","Firefox","118.0","Ubuntu","","null","es-AR,es;q=0.8,en-US;q=0.5,en;q=0.3","true","null","","null","","","delay_block","","","","","","2","8",""
"","","","","","html-keyboard-response","78","561439","0.0-75.0-1.0","64","1","2023-10-25 15:12:02","a725c3012b74bf33a1020a98cb69c237","157.92.14.67","Mozilla/5.0 (X11; Ubuntu; Linux x86_64; rv:109.0) Gecko/20100101 Firefox/118.0","","Firefox","118.0","Ubuntu","","null","es-AR,es;q=0.8,en-US;q=0.5,en;q=0.3","true","null","<p id=""stimulus"" style=""font-size:60px;"">treinta y cinco</p>","null","","","tone_number_task_remaining_before_delay","","treinta y cinco","","159","60","2","8",""
"","","","","","html-keyboard-response","79","562008","0.0-78.0-0.0","64","1","2023-10-25 15:12:02","a725c3012b74bf33a1020a98cb69c237","157.92.14.67","Mozilla/5.0 (X11; Ubuntu; Linux x86_64; rv:109.0) Gecko/20100101 Firefox/118.0","","Firefox","118.0","Ubuntu","","null","es-AR,es;q=0.8,en-US;q=0.5,en;q=0.3","true","559","<p id=""stimulus"" style=""font-size:60px;"">treinta y cinco</p>","j","","","empty_block","","treinta y cinco","","","","2","8",""
"","","","","","html-keyboard-response","80","564885","0.0-79.0","64","1","2023-10-25 15:12:02","a725c3012b74bf33a1020a98cb69c237","157.92.14.67","Mozilla/5.0 (X11; Ubuntu; Linux x86_64; rv:109.0) Gecko/20100101 Firefox/118.0","","Firefox","118.0","Ubuntu","","null","es-AR,es;q=0.8,en-US;q=0.5,en;q=0.3","true","null","<div style=""font-size:100px;"">X</div>","null","","","fixation","","","","","","","",""
"","","","","","audio-keyboard-response","81","565687","0.0-80.0","64","1","2023-10-25 15:12:02","a725c3012b74bf33a1020a98cb69c237","157.92.14.67","Mozilla/5.0 (X11; Ubuntu; Linux x86_64; rv:109.0) Gecko/20100101 Firefox/118.0","","Firefox","118.0","Ubuntu","","null","es-AR,es;q=0.8,en-US;q=0.5,en;q=0.3","true","804","tones/880hz_short.mp3","s","","","tone_number_task","992.5","sesenta y uno","tones/880hz_short.mp3","1142.5","60","2","9",""
"","","","","","html-keyboard-response","82","565882","0.0-81.0-0.0","64","1","2023-10-25 15:12:02","a725c3012b74bf33a1020a98cb69c237","157.92.14.67","Mozilla/5.0 (X11; Ubuntu; Linux x86_64; rv:109.0) Gecko/20100101 Firefox/118.0","","Firefox","118.0","Ubuntu","","null","es-AR,es;q=0.8,en-US;q=0.5,en;q=0.3","true","null","","null","","","delay_block","","","","","","2","9",""
"","","","","","html-keyboard-response","83","566041","0.0-81.0-1.0","64","1","2023-10-25 15:12:02","a725c3012b74bf33a1020a98cb69c237","157.92.14.67","Mozilla/5.0 (X11; Ubuntu; Linux x86_64; rv:109.0) Gecko/20100101 Firefox/118.0","","Firefox","118.0","Ubuntu","","null","es-AR,es;q=0.8,en-US;q=0.5,en;q=0.3","true","null","<p id=""stimulus"" style=""font-size:60px;"">sesenta y uno</p>","null","","","tone_number_task_remaining_before_delay","","sesenta y uno","","338.5","60","2","9",""
"","","","","","html-keyboard-response","84","566663","0.0-84.0-0.0","64","1","2023-10-25 15:12:02","a725c3012b74bf33a1020a98cb69c237","157.92.14.67","Mozilla/5.0 (X11; Ubuntu; Linux x86_64; rv:109.0) Gecko/20100101 Firefox/118.0","","Firefox","118.0","Ubuntu","","null","es-AR,es;q=0.8,en-US;q=0.5,en;q=0.3","true","613","<p id=""stimulus"" style=""font-size:60px;"">sesenta y uno</p>","k","","","empty_block","","sesenta y uno","","","","2","9",""
"","","","","","html-keyboard-response","85","569472","0.0-85.0","64","1","2023-10-25 15:12:02","a725c3012b74bf33a1020a98cb69c237","157.92.14.67","Mozilla/5.0 (X11; Ubuntu; Linux x86_64; rv:109.0) Gecko/20100101 Firefox/118.0","","Firefox","118.0","Ubuntu","","null","es-AR,es;q=0.8,en-US;q=0.5,en;q=0.3","true","null","<div style=""font-size:100px;"">X</div>","null","","","fixation","","","","","","","",""
"","","","","","audio-keyboard-response","86","570248","0.0-86.0","64","1","2023-10-25 15:12:02","a725c3012b74bf33a1020a98cb69c237","157.92.14.67","Mozilla/5.0 (X11; Ubuntu; Linux x86_64; rv:109.0) Gecko/20100101 Firefox/118.0","","Firefox","118.0","Ubuntu","","null","es-AR,es;q=0.8,en-US;q=0.5,en;q=0.3","true","778","tones/880hz_short.mp3","s","","","tone_number_task","1025","treinta y uno","tones/880hz_short.mp3","1175","60","2","10",""
"","","","","","html-keyboard-response","87","570501","0.0-87.0-0.0","64","1","2023-10-25 15:12:02","a725c3012b74bf33a1020a98cb69c237","157.92.14.67","Mozilla/5.0 (X11; Ubuntu; Linux x86_64; rv:109.0) Gecko/20100101 Firefox/118.0","","Firefox","118.0","Ubuntu","","null","es-AR,es;q=0.8,en-US;q=0.5,en;q=0.3","true","null","","null","","","delay_block","","","","","","2","10",""
"","","","","","html-keyboard-response","88","570660","0.0-87.0-1.0","64","1","2023-10-25 15:12:02","a725c3012b74bf33a1020a98cb69c237","157.92.14.67","Mozilla/5.0 (X11; Ubuntu; Linux x86_64; rv:109.0) Gecko/20100101 Firefox/118.0","","Firefox","118.0","Ubuntu","","null","es-AR,es;q=0.8,en-US;q=0.5,en;q=0.3","true","null","<p id=""stimulus"" style=""font-size:60px;"">treinta y uno</p>","null","","","tone_number_task_remaining_before_delay","","treinta y uno","","397","60","2","10",""
"","","","","","html-keyboard-response","89","571160","0.0-90.0-0.0","64","1","2023-10-25 15:12:02","a725c3012b74bf33a1020a98cb69c237","157.92.14.67","Mozilla/5.0 (X11; Ubuntu; Linux x86_64; rv:109.0) Gecko/20100101 Firefox/118.0","","Firefox","118.0","Ubuntu","","null","es-AR,es;q=0.8,en-US;q=0.5,en;q=0.3","true","490","<p id=""stimulus"" style=""font-size:60px;"">treinta y uno</p>","j","","","empty_block","","treinta y uno","","","","2","10",""
"","","","","","html-keyboard-response","90","573970","0.0-91.0","64","1","2023-10-25 15:12:02","a725c3012b74bf33a1020a98cb69c237","157.92.14.67","Mozilla/5.0 (X11; Ubuntu; Linux x86_64; rv:109.0) Gecko/20100101 Firefox/118.0","","Firefox","118.0","Ubuntu","","null","es-AR,es;q=0.8,en-US;q=0.5,en;q=0.3","true","null","<div style=""font-size:100px;"">X</div>","null","","","fixation","","","","","","","",""
"","","","","","audio-keyboard-response","91","574126","0.0-92.0","64","1","2023-10-25 15:12:02","a725c3012b74bf33a1020a98cb69c237","157.92.14.67","Mozilla/5.0 (X11; Ubuntu; Linux x86_64; rv:109.0) Gecko/20100101 Firefox/118.0","","Firefox","118.0","Ubuntu","","null","es-AR,es;q=0.8,en-US;q=0.5,en;q=0.3","true","null","tones/880hz_short.mp3","null","","","tone_number_task","0","cincuenta y cinco","tones/880hz_short.mp3","150","60","2","11",""
"","","","","","html-keyboard-response","92","575223","0.0-95.0-0.0","64","1","2023-10-25 15:12:02","a725c3012b74bf33a1020a98cb69c237","157.92.14.67","Mozilla/5.0 (X11; Ubuntu; Linux x86_64; rv:109.0) Gecko/20100101 Firefox/118.0","","Firefox","118.0","Ubuntu","","null","es-AR,es;q=0.8,en-US;q=0.5,en;q=0.3","true","1091","tones/880hz_short.mp3","s","","","empty_block","","cincuenta y cinco","","","","2","11",""
"","","","","","html-keyboard-response","93","575592","0.0-95.0-1.0","64","1","2023-10-25 15:12:02","a725c3012b74bf33a1020a98cb69c237","157.92.14.67","Mozilla/5.0 (X11; Ubuntu; Linux x86_64; rv:109.0) Gecko/20100101 Firefox/118.0","","Firefox","118.0","Ubuntu","","null","es-AR,es;q=0.8,en-US;q=0.5,en;q=0.3","true","362","tones/880hz_short.mp3","k","","","empty_block","","cincuenta y cinco","","","","2","11",""
"","","","","","html-keyboard-response","94","578404","0.0-97.0","64","1","2023-10-25 15:12:02","a725c3012b74bf33a1020a98cb69c237","157.92.14.67","Mozilla/5.0 (X11; Ubuntu; Linux x86_64; rv:109.0) Gecko/20100101 Firefox/118.0","","Firefox","118.0","Ubuntu","","null","es-AR,es;q=0.8,en-US;q=0.5,en;q=0.3","true","null","<div style=""font-size:100px;"">X</div>","null","","","fixation","","","","","","","",""
"","","","","","audio-keyboard-response","95","578561","0.0-98.0","64","1","2023-10-25 15:12:02","a725c3012b74bf33a1020a98cb69c237","157.92.14.67","Mozilla/5.0 (X11; Ubuntu; Linux x86_64; rv:109.0) Gecko/20100101 Firefox/118.0","","Firefox","118.0","Ubuntu","","null","es-AR,es;q=0.8,en-US;q=0.5,en;q=0.3","true","null","tones/440hz_short.mp3","null","","","tone_number_task","0","treinta y uno","tones/440hz_short.mp3","150","60","2","12",""
"","","","","","html-keyboard-response","96","579191","0.0-101.0-0.0","64","1","2023-10-25 15:12:02","a725c3012b74bf33a1020a98cb69c237","157.92.14.67","Mozilla/5.0 (X11; Ubuntu; Linux x86_64; rv:109.0) Gecko/20100101 Firefox/118.0","","Firefox","118.0","Ubuntu","","null","es-AR,es;q=0.8,en-US;q=0.5,en;q=0.3","true","621","tones/440hz_short.mp3","a","","","empty_block","","treinta y uno","","","","2","12",""
"","","","","","html-keyboard-response","97","579624","0.0-101.0-1.0","64","1","2023-10-25 15:12:02","a725c3012b74bf33a1020a98cb69c237","157.92.14.67","Mozilla/5.0 (X11; Ubuntu; Linux x86_64; rv:109.0) Gecko/20100101 Firefox/118.0","","Firefox","118.0","Ubuntu","","null","es-AR,es;q=0.8,en-US;q=0.5,en;q=0.3","true","427","tones/440hz_short.mp3","j","","","empty_block","","treinta y uno","","","","2","12",""
"","","","","","html-keyboard-response","98","582438","0.0-103.0","64","1","2023-10-25 15:12:02","a725c3012b74bf33a1020a98cb69c237","157.92.14.67","Mozilla/5.0 (X11; Ubuntu; Linux x86_64; rv:109.0) Gecko/20100101 Firefox/118.0","","Firefox","118.0","Ubuntu","","null","es-AR,es;q=0.8,en-US;q=0.5,en;q=0.3","true","null","<div style=""font-size:100px;"">X</div>","null","","","fixation","","","","","","","",""
"","","","","","audio-keyboard-response","99","582701","0.0-104.0","64","1","2023-10-25 15:12:02","a725c3012b74bf33a1020a98cb69c237","157.92.14.67","Mozilla/5.0 (X11; Ubuntu; Linux x86_64; rv:109.0) Gecko/20100101 Firefox/118.0","","Firefox","118.0","Ubuntu","","null","es-AR,es;q=0.8,en-US;q=0.5,en;q=0.3","true","null","tones/880hz_short.mp3","null","","","tone_number_task","102.5","veinticuatro","tones/880hz_short.mp3","252.5","60","2","13",""
"","","","","","html-keyboard-response","100","583767","0.0-107.0-0.0","64","1","2023-10-25 15:12:02","a725c3012b74bf33a1020a98cb69c237","157.92.14.67","Mozilla/5.0 (X11; Ubuntu; Linux x86_64; rv:109.0) Gecko/20100101 Firefox/118.0","","Firefox","118.0","Ubuntu","","null","es-AR,es;q=0.8,en-US;q=0.5,en;q=0.3","true","1055","tones/880hz_short.mp3","s","","","empty_block","","veinticuatro","","","","2","13",""
"","","","","","html-keyboard-response","101","584119","0.0-107.0-1.0","64","1","2023-10-25 15:12:02","a725c3012b74bf33a1020a98cb69c237","157.92.14.67","Mozilla/5.0 (X11; Ubuntu; Linux x86_64; rv:109.0) Gecko/20100101 Firefox/118.0","","Firefox","118.0","Ubuntu","","null","es-AR,es;q=0.8,en-US;q=0.5,en;q=0.3","true","341","tones/880hz_short.mp3","j","","","empty_block","","veinticuatro","","","","2","13",""
"","","","","","html-keyboard-response","102","586933","0.0-109.0","64","1","2023-10-25 15:12:02","a725c3012b74bf33a1020a98cb69c237","157.92.14.67","Mozilla/5.0 (X11; Ubuntu; Linux x86_64; rv:109.0) Gecko/20100101 Firefox/118.0","","Firefox","118.0","Ubuntu","","null","es-AR,es;q=0.8,en-US;q=0.5,en;q=0.3","true","null","<div style=""font-size:100px;"">X</div>","null","","","fixation","","","","","","","",""
"","","","","","audio-keyboard-response","103","587090","0.0-110.0","64","1","2023-10-25 15:12:02","a725c3012b74bf33a1020a98cb69c237","157.92.14.67","Mozilla/5.0 (X11; Ubuntu; Linux x86_64; rv:109.0) Gecko/20100101 Firefox/118.0","","Firefox","118.0","Ubuntu","","null","es-AR,es;q=0.8,en-US;q=0.5,en;q=0.3","true","null","tones/440hz_short.mp3","null","","","tone_number_task","0","cincuenta y siete","tones/440hz_short.mp3","150","60","2","14",""
"","","","","","html-keyboard-response","104","588086","0.0-113.0-0.0","64","1","2023-10-25 15:12:02","a725c3012b74bf33a1020a98cb69c237","157.92.14.67","Mozilla/5.0 (X11; Ubuntu; Linux x86_64; rv:109.0) Gecko/20100101 Firefox/118.0","","Firefox","118.0","Ubuntu","","null","es-AR,es;q=0.8,en-US;q=0.5,en;q=0.3","true","991","tones/440hz_short.mp3","a","","","empty_block","","cincuenta y siete","","","","2","14",""
"","","","","","html-keyboard-response","105","588677","0.0-113.0-1.0","64","1","2023-10-25 15:12:02","a725c3012b74bf33a1020a98cb69c237","157.92.14.67","Mozilla/5.0 (X11; Ubuntu; Linux x86_64; rv:109.0) Gecko/20100101 Firefox/118.0","","Firefox","118.0","Ubuntu","","null","es-AR,es;q=0.8,en-US;q=0.5,en;q=0.3","true","585","tones/440hz_short.mp3","k","","","empty_block","","cincuenta y siete","","","","2","14",""
"","","","","","html-keyboard-response","106","591485","0.0-115.0","64","1","2023-10-25 15:12:02","a725c3012b74bf33a1020a98cb69c237","157.92.14.67","Mozilla/5.0 (X11; Ubuntu; Linux x86_64; rv:109.0) Gecko/20100101 Firefox/118.0","","Firefox","118.0","Ubuntu","","null","es-AR,es;q=0.8,en-US;q=0.5,en;q=0.3","true","null","<div style=""font-size:100px;"">X</div>","null","","","fixation","","","","","","","",""
"","","","","","audio-keyboard-response","107","591748","0.0-116.0","64","1","2023-10-25 15:12:02","a725c3012b74bf33a1020a98cb69c237","157.92.14.67","Mozilla/5.0 (X11; Ubuntu; Linux x86_64; rv:109.0) Gecko/20100101 Firefox/118.0","","Firefox","118.0","Ubuntu","","null","es-AR,es;q=0.8,en-US;q=0.5,en;q=0.3","true","null","tones/880hz_short.mp3","null","","","tone_number_task","102.5","sesenta","tones/880hz_short.mp3","252.5","60","2","15",""
"","","","","","html-keyboard-response","108","592151","0.0-119.0-0.0","64","1","2023-10-25 15:12:02","a725c3012b74bf33a1020a98cb69c237","157.92.14.67","Mozilla/5.0 (X11; Ubuntu; Linux x86_64; rv:109.0) Gecko/20100101 Firefox/118.0","","Firefox","118.0","Ubuntu","","null","es-AR,es;q=0.8,en-US;q=0.5,en;q=0.3","true","391","tones/880hz_short.mp3","s","","","empty_block","","sesenta","","","","2","15",""
"","","","","","html-keyboard-response","109","592487","0.0-119.0-1.0","64","1","2023-10-25 15:12:02","a725c3012b74bf33a1020a98cb69c237","157.92.14.67","Mozilla/5.0 (X11; Ubuntu; Linux x86_64; rv:109.0) Gecko/20100101 Firefox/118.0","","Firefox","118.0","Ubuntu","","null","es-AR,es;q=0.8,en-US;q=0.5,en;q=0.3","true","331","tones/880hz_short.mp3","k","","","empty_block","","sesenta","","","","2","15",""
"","","","","","html-keyboard-response","110","595608","0.0-121.0","64","1","2023-10-25 15:12:02","a725c3012b74bf33a1020a98cb69c237","157.92.14.67","Mozilla/5.0 (X11; Ubuntu; Linux x86_64; rv:109.0) Gecko/20100101 Firefox/118.0","","Firefox","118.0","Ubuntu","","null","es-AR,es;q=0.8,en-US;q=0.5,en;q=0.3","true","null","<div style=""font-size:100px;"">X</div>","null","","","fixation","","","","","","","",""
"","","","","","audio-keyboard-response","111","595765","0.0-122.0","64","1","2023-10-25 15:12:02","a725c3012b74bf33a1020a98cb69c237","157.92.14.67","Mozilla/5.0 (X11; Ubuntu; Linux x86_64; rv:109.0) Gecko/20100101 Firefox/118.0","","Firefox","118.0","Ubuntu","","null","es-AR,es;q=0.8,en-US;q=0.5,en;q=0.3","true","null","tones/880hz_short.mp3","null","","","tone_number_task","0","sesenta y seis","tones/880hz_short.mp3","150","60","2","16",""
"","","","","","html-keyboard-response","112","596977","0.0-125.0-0.0","64","1","2023-10-25 15:12:02","a725c3012b74bf33a1020a98cb69c237","157.92.14.67","Mozilla/5.0 (X11; Ubuntu; Linux x86_64; rv:109.0) Gecko/20100101 Firefox/118.0","","Firefox","118.0","Ubuntu","","null","es-AR,es;q=0.8,en-US;q=0.5,en;q=0.3","true","null","tones/880hz_short.mp3","null","","","empty_block","","sesenta y seis","","","","2","16",""
"","","","","","html-keyboard-response","113","597030","0.0-125.0-1.0","64","1","2023-10-25 15:12:02","a725c3012b74bf33a1020a98cb69c237","157.92.14.67","Mozilla/5.0 (X11; Ubuntu; Linux x86_64; rv:109.0) Gecko/20100101 Firefox/118.0","","Firefox","118.0","Ubuntu","","null","es-AR,es;q=0.8,en-US;q=0.5,en;q=0.3","true","46","tones/880hz_short.mp3","s","","","empty_block","","sesenta y seis","","","","2","16",""
"","","","","","html-keyboard-response","114","599838","0.0-127.0","64","1","2023-10-25 15:12:02","a725c3012b74bf33a1020a98cb69c237","157.92.14.67","Mozilla/5.0 (X11; Ubuntu; Linux x86_64; rv:109.0) Gecko/20100101 Firefox/118.0","","Firefox","118.0","Ubuntu","","null","es-AR,es;q=0.8,en-US;q=0.5,en;q=0.3","true","null","<div style=""font-size:100px;"">X</div>","null","","","fixation","","","","","","","",""
"","","","","","audio-keyboard-response","115","600852","0.0-128.0","64","1","2023-10-25 15:12:02","a725c3012b74bf33a1020a98cb69c237","157.92.14.67","Mozilla/5.0 (X11; Ubuntu; Linux x86_64; rv:109.0) Gecko/20100101 Firefox/118.0","","Firefox","118.0","Ubuntu","","null","es-AR,es;q=0.8,en-US;q=0.5,en;q=0.3","true","1016","tones/880hz_short.mp3","s","","","tone_number_task","992.5","sesenta y cuatro","tones/880hz_short.mp3","1142.5","60","2","17",""
"","","","","","html-keyboard-response","116","600982","0.0-130.0-0.0","64","1","2023-10-25 15:12:02","a725c3012b74bf33a1020a98cb69c237","157.92.14.67","Mozilla/5.0 (X11; Ubuntu; Linux x86_64; rv:109.0) Gecko/20100101 Firefox/118.0","","Firefox","118.0","Ubuntu","","null","es-AR,es;q=0.8,en-US;q=0.5,en;q=0.3","true","null","<p id=""stimulus"" style=""font-size:60px;"">sesenta y cuatro</p>","null","","","tone_number_task_remaining_after_delay","","sesenta y cuatro","","","60","2","17",""
"","","","","","html-keyboard-response","117","601463","0.0-132.0-0.0","64","1","2023-10-25 15:12:02","a725c3012b74bf33a1020a98cb69c237","157.92.14.67","Mozilla/5.0 (X11; Ubuntu; Linux x86_64; rv:109.0) Gecko/20100101 Firefox/118.0","","Firefox","118.0","Ubuntu","","null","es-AR,es;q=0.8,en-US;q=0.5,en;q=0.3","true","476","<p id=""stimulus"" style=""font-size:60px;"">sesenta y cuatro</p>","k","","","empty_block","","sesenta y cuatro","","","","2","17",""
"","","","","","html-keyboard-response","118","604273","0.0-133.0","64","1","2023-10-25 15:12:02","a725c3012b74bf33a1020a98cb69c237","157.92.14.67","Mozilla/5.0 (X11; Ubuntu; Linux x86_64; rv:109.0) Gecko/20100101 Firefox/118.0","","Firefox","118.0","Ubuntu","","null","es-AR,es;q=0.8,en-US;q=0.5,en;q=0.3","true","null","<div style=""font-size:100px;"">X</div>","null","","","fixation","","","","","","","",""
"","","","","","audio-keyboard-response","119","605063","0.0-134.0","64","1","2023-10-25 15:12:02","a725c3012b74bf33a1020a98cb69c237","157.92.14.67","Mozilla/5.0 (X11; Ubuntu; Linux x86_64; rv:109.0) Gecko/20100101 Firefox/118.0","","Firefox","118.0","Ubuntu","","null","es-AR,es;q=0.8,en-US;q=0.5,en;q=0.3","true","787","tones/880hz_short.mp3","s","","","tone_number_task","1025","treinta y tres","tones/880hz_short.mp3","1175","60","2","18",""
"","","","","","html-keyboard-response","120","605307","0.0-135.0-0.0","64","1","2023-10-25 15:12:02","a725c3012b74bf33a1020a98cb69c237","157.92.14.67","Mozilla/5.0 (X11; Ubuntu; Linux x86_64; rv:109.0) Gecko/20100101 Firefox/118.0","","Firefox","118.0","Ubuntu","","null","es-AR,es;q=0.8,en-US;q=0.5,en;q=0.3","true","null","","null","","","delay_block","","","","","","2","18",""
"","","","","","html-keyboard-response","121","605470","0.0-135.0-1.0","64","1","2023-10-25 15:12:02","a725c3012b74bf33a1020a98cb69c237","157.92.14.67","Mozilla/5.0 (X11; Ubuntu; Linux x86_64; rv:109.0) Gecko/20100101 Firefox/118.0","","Firefox","118.0","Ubuntu","","null","es-AR,es;q=0.8,en-US;q=0.5,en;q=0.3","true","null","<p id=""stimulus"" style=""font-size:60px;"">treinta y tres</p>","null","","","tone_number_task_remaining_before_delay","","treinta y tres","","388","60","2","18",""
"","","","","","html-keyboard-response","122","605959","0.0-138.0-0.0","64","1","2023-10-25 15:12:02","a725c3012b74bf33a1020a98cb69c237","157.92.14.67","Mozilla/5.0 (X11; Ubuntu; Linux x86_64; rv:109.0) Gecko/20100101 Firefox/118.0","","Firefox","118.0","Ubuntu","","null","es-AR,es;q=0.8,en-US;q=0.5,en;q=0.3","true","477","<p id=""stimulus"" style=""font-size:60px;"">treinta y tres</p>","j","","","empty_block","","treinta y tres","","","","2","18",""
"","","","","","html-keyboard-response","123","608782","0.0-139.0","64","1","2023-10-25 15:12:02","a725c3012b74bf33a1020a98cb69c237","157.92.14.67","Mozilla/5.0 (X11; Ubuntu; Linux x86_64; rv:109.0) Gecko/20100101 Firefox/118.0","","Firefox","118.0","Ubuntu","","null","es-AR,es;q=0.8,en-US;q=0.5,en;q=0.3","true","null","<div style=""font-size:100px;"">X</div>","null","","","fixation","","","","","","","",""
"","","","","","audio-keyboard-response","124","609543","0.0-140.0","64","1","2023-10-25 15:12:02","a725c3012b74bf33a1020a98cb69c237","157.92.14.67","Mozilla/5.0 (X11; Ubuntu; Linux x86_64; rv:109.0) Gecko/20100101 Firefox/118.0","","Firefox","118.0","Ubuntu","","null","es-AR,es;q=0.8,en-US;q=0.5,en;q=0.3","true","763","tones/440hz_short.mp3","a","","","tone_number_task","992.5","cincuenta y cuatro","tones/440hz_short.mp3","1142.5","60","2","19",""
"","","","","","html-keyboard-response","125","609784","0.0-141.0-0.0","64","1","2023-10-25 15:12:02","a725c3012b74bf33a1020a98cb69c237","157.92.14.67","Mozilla/5.0 (X11; Ubuntu; Linux x86_64; rv:109.0) Gecko/20100101 Firefox/118.0","","Firefox","118.0","Ubuntu","","null","es-AR,es;q=0.8,en-US;q=0.5,en;q=0.3","true","null","","null","","","delay_block","","","","","","2","19",""
"","","","","","html-keyboard-response","126","609942","0.0-141.0-1.0","64","1","2023-10-25 15:12:02","a725c3012b74bf33a1020a98cb69c237","157.92.14.67","Mozilla/5.0 (X11; Ubuntu; Linux x86_64; rv:109.0) Gecko/20100101 Firefox/118.0","","Firefox","118.0","Ubuntu","","null","es-AR,es;q=0.8,en-US;q=0.5,en;q=0.3","true","null","<p id=""stimulus"" style=""font-size:60px;"">cincuenta y cuatro</p>","null","","","tone_number_task_remaining_before_delay","","cincuenta y cuatro","","379.5","60","2","19",""
"","","","","","html-keyboard-response","127","610503","0.0-144.0-0.0","64","1","2023-10-25 15:12:02","a725c3012b74bf33a1020a98cb69c237","157.92.14.67","Mozilla/5.0 (X11; Ubuntu; Linux x86_64; rv:109.0) Gecko/20100101 Firefox/118.0","","Firefox","118.0","Ubuntu","","null","es-AR,es;q=0.8,en-US;q=0.5,en;q=0.3","true","553","<p id=""stimulus"" style=""font-size:60px;"">cincuenta y cuatro</p>","k","","","empty_block","","cincuenta y cuatro","","","","2","19",""
"","","","","","html-keyboard-response","128","613313","0.0-145.0","64","1","2023-10-25 15:12:02","a725c3012b74bf33a1020a98cb69c237","157.92.14.67","Mozilla/5.0 (X11; Ubuntu; Linux x86_64; rv:109.0) Gecko/20100101 Firefox/118.0","","Firefox","118.0","Ubuntu","","null","es-AR,es;q=0.8,en-US;q=0.5,en;q=0.3","true","null","<div style=""font-size:100px;"">X</div>","null","","","fixation","","","","","","","",""
"","","","","","audio-keyboard-response","129","613895","0.0-146.0","64","1","2023-10-25 15:12:02","a725c3012b74bf33a1020a98cb69c237","157.92.14.67","Mozilla/5.0 (X11; Ubuntu; Linux x86_64; rv:109.0) Gecko/20100101 Firefox/118.0","","Firefox","118.0","Ubuntu","","null","es-AR,es;q=0.8,en-US;q=0.5,en;q=0.3","true","578","tones/880hz_short.mp3","s","","","tone_number_task","992.5","sesenta y seis","tones/880hz_short.mp3","1142.5","60","2","20",""
"","","","","","html-keyboard-response","130","614316","0.0-147.0-0.0","64","1","2023-10-25 15:12:02","a725c3012b74bf33a1020a98cb69c237","157.92.14.67","Mozilla/5.0 (X11; Ubuntu; Linux x86_64; rv:109.0) Gecko/20100101 Firefox/118.0","","Firefox","118.0","Ubuntu","","null","es-AR,es;q=0.8,en-US;q=0.5,en;q=0.3","true","null","","null","","","delay_block","","","","","","2","20",""
"","","","","","html-keyboard-response","131","614473","0.0-147.0-1.0","64","1","2023-10-25 15:12:02","a725c3012b74bf33a1020a98cb69c237","157.92.14.67","Mozilla/5.0 (X11; Ubuntu; Linux x86_64; rv:109.0) Gecko/20100101 Firefox/118.0","","Firefox","118.0","Ubuntu","","null","es-AR,es;q=0.8,en-US;q=0.5,en;q=0.3","true","null","<p id=""stimulus"" style=""font-size:60px;"">sesenta y seis</p>","null","","","tone_number_task_remaining_before_delay","","sesenta y seis","","564.5","60","2","20",""
"","","","","","html-keyboard-response","132","614951","0.0-150.0-0.0","64","1","2023-10-25 15:12:02","a725c3012b74bf33a1020a98cb69c237","157.92.14.67","Mozilla/5.0 (X11; Ubuntu; Linux x86_64; rv:109.0) Gecko/20100101 Firefox/118.0","","Firefox","118.0","Ubuntu","","null","es-AR,es;q=0.8,en-US;q=0.5,en;q=0.3","true","466","<p id=""stimulus"" style=""font-size:60px;"">sesenta y seis</p>","k","","","empty_block","","sesenta y seis","","","","2","20",""
"","","","","","html-keyboard-response","133","617761","0.0-151.0","64","1","2023-10-25 15:12:02","a725c3012b74bf33a1020a98cb69c237","157.92.14.67","Mozilla/5.0 (X11; Ubuntu; Linux x86_64; rv:109.0) Gecko/20100101 Firefox/118.0","","Firefox","118.0","Ubuntu","","null","es-AR,es;q=0.8,en-US;q=0.5,en;q=0.3","true","null","<div style=""font-size:100px;"">X</div>","null","","","fixation","","","","","","","",""
"","","","","","audio-keyboard-response","134","618375","0.0-152.0","64","1","2023-10-25 15:12:02","a725c3012b74bf33a1020a98cb69c237","157.92.14.67","Mozilla/5.0 (X11; Ubuntu; Linux x86_64; rv:109.0) Gecko/20100101 Firefox/118.0","","Firefox","118.0","Ubuntu","","null","es-AR,es;q=0.8,en-US;q=0.5,en;q=0.3","true","618","tones/880hz_short.mp3","s","","","tone_number_task","1025","cuarenta","tones/880hz_short.mp3","1175","60","2","21",""
"","","","","","html-keyboard-response","135","618794","0.0-153.0-0.0","64","1","2023-10-25 15:12:02","a725c3012b74bf33a1020a98cb69c237","157.92.14.67","Mozilla/5.0 (X11; Ubuntu; Linux x86_64; rv:109.0) Gecko/20100101 Firefox/118.0","","Firefox","118.0","Ubuntu","","null","es-AR,es;q=0.8,en-US;q=0.5,en;q=0.3","true","null","","null","","","delay_block","","","","","","2","21",""
"","","","","","html-keyboard-response","136","618951","0.0-153.0-1.0","64","1","2023-10-25 15:12:02","a725c3012b74bf33a1020a98cb69c237","157.92.14.67","Mozilla/5.0 (X11; Ubuntu; Linux x86_64; rv:109.0) Gecko/20100101 Firefox/118.0","","Firefox","118.0","Ubuntu","","null","es-AR,es;q=0.8,en-US;q=0.5,en;q=0.3","true","null","<p id=""stimulus"" style=""font-size:60px;"">cuarenta</p>","null","","","tone_number_task_remaining_before_delay","","cuarenta","","557","60","2","21",""
"","","","","","html-keyboard-response","137","619383","0.0-156.0-0.0","64","1","2023-10-25 15:12:02","a725c3012b74bf33a1020a98cb69c237","157.92.14.67","Mozilla/5.0 (X11; Ubuntu; Linux x86_64; rv:109.0) Gecko/20100101 Firefox/118.0","","Firefox","118.0","Ubuntu","","null","es-AR,es;q=0.8,en-US;q=0.5,en;q=0.3","true","419","<p id=""stimulus"" style=""font-size:60px;"">cuarenta</p>","j","","","empty_block","","cuarenta","","","","2","21",""
"","","","","","html-keyboard-response","138","622193","0.0-157.0","64","1","2023-10-25 15:12:02","a725c3012b74bf33a1020a98cb69c237","157.92.14.67","Mozilla/5.0 (X11; Ubuntu; Linux x86_64; rv:109.0) Gecko/20100101 Firefox/118.0","","Firefox","118.0","Ubuntu","","null","es-AR,es;q=0.8,en-US;q=0.5,en;q=0.3","true","null","<div style=""font-size:100px;"">X</div>","null","","","fixation","","","","","","","",""
"","","","","","audio-keyboard-response","139","622711","0.0-158.0","64","1","2023-10-25 15:12:02","a725c3012b74bf33a1020a98cb69c237","157.92.14.67","Mozilla/5.0 (X11; Ubuntu; Linux x86_64; rv:109.0) Gecko/20100101 Firefox/118.0","","Firefox","118.0","Ubuntu","","null","es-AR,es;q=0.8,en-US;q=0.5,en;q=0.3","true","514","tones/440hz_short.mp3","a","","","tone_number_task","1025","treinta y siete","tones/440hz_short.mp3","1175","60","2","22",""
"","","","","","html-keyboard-response","140","623228","0.0-159.0-0.0","64","1","2023-10-25 15:12:02","a725c3012b74bf33a1020a98cb69c237","157.92.14.67","Mozilla/5.0 (X11; Ubuntu; Linux x86_64; rv:109.0) Gecko/20100101 Firefox/118.0","","Firefox","118.0","Ubuntu","","null","es-AR,es;q=0.8,en-US;q=0.5,en;q=0.3","true","null","","null","","","delay_block","","","","","","2","22",""
"","","","","","html-keyboard-response","141","623386","0.0-159.0-1.0","64","1","2023-10-25 15:12:02","a725c3012b74bf33a1020a98cb69c237","157.92.14.67","Mozilla/5.0 (X11; Ubuntu; Linux x86_64; rv:109.0) Gecko/20100101 Firefox/118.0","","Firefox","118.0","Ubuntu","","null","es-AR,es;q=0.8,en-US;q=0.5,en;q=0.3","true","null","<p id=""stimulus"" style=""font-size:60px;"">treinta y siete</p>","null","","","tone_number_task_remaining_before_delay","","treinta y siete","","661","60","2","22",""
"","","","","","html-keyboard-response","142","623927","0.0-162.0-0.0","64","1","2023-10-25 15:12:02","a725c3012b74bf33a1020a98cb69c237","157.92.14.67","Mozilla/5.0 (X11; Ubuntu; Linux x86_64; rv:109.0) Gecko/20100101 Firefox/118.0","","Firefox","118.0","Ubuntu","","null","es-AR,es;q=0.8,en-US;q=0.5,en;q=0.3","true","528","<p id=""stimulus"" style=""font-size:60px;"">treinta y siete</p>","j","","","empty_block","","treinta y siete","","","","2","22",""
"","","","","","html-keyboard-response","143","626736","0.0-163.0","64","1","2023-10-25 15:12:02","a725c3012b74bf33a1020a98cb69c237","157.92.14.67","Mozilla/5.0 (X11; Ubuntu; Linux x86_64; rv:109.0) Gecko/20100101 Firefox/118.0","","Firefox","118.0","Ubuntu","","null","es-AR,es;q=0.8,en-US;q=0.5,en;q=0.3","true","null","<div style=""font-size:100px;"">X</div>","null","","","fixation","","","","","","","",""
"","","","","","audio-keyboard-response","144","626995","0.0-164.0","64","1","2023-10-25 15:12:02","a725c3012b74bf33a1020a98cb69c237","157.92.14.67","Mozilla/5.0 (X11; Ubuntu; Linux x86_64; rv:109.0) Gecko/20100101 Firefox/118.0","","Firefox","118.0","Ubuntu","","null","es-AR,es;q=0.8,en-US;q=0.5,en;q=0.3","true","null","tones/880hz_short.mp3","null","","","tone_number_task","102.5","sesenta y nueve","tones/880hz_short.mp3","252.5","60","2","23",""
"","","","","","html-keyboard-response","145","627287","0.0-167.0-0.0","64","1","2023-10-25 15:12:02","a725c3012b74bf33a1020a98cb69c237","157.92.14.67","Mozilla/5.0 (X11; Ubuntu; Linux x86_64; rv:109.0) Gecko/20100101 Firefox/118.0","","Firefox","118.0","Ubuntu","","null","es-AR,es;q=0.8,en-US;q=0.5,en;q=0.3","true","277","tones/880hz_short.mp3","s","","","empty_block","","sesenta y nueve","","","","2","23",""
"","","","","","html-keyboard-response","146","627607","0.0-167.0-1.0","64","1","2023-10-25 15:12:02","a725c3012b74bf33a1020a98cb69c237","157.92.14.67","Mozilla/5.0 (X11; Ubuntu; Linux x86_64; rv:109.0) Gecko/20100101 Firefox/118.0","","Firefox","118.0","Ubuntu","","null","es-AR,es;q=0.8,en-US;q=0.5,en;q=0.3","true","307","tones/880hz_short.mp3","k","","","empty_block","","sesenta y nueve","","","","2","23",""
"","","","","","html-keyboard-response","147","630423","0.0-169.0","64","1","2023-10-25 15:12:02","a725c3012b74bf33a1020a98cb69c237","157.92.14.67","Mozilla/5.0 (X11; Ubuntu; Linux x86_64; rv:109.0) Gecko/20100101 Firefox/118.0","","Firefox","118.0","Ubuntu","","null","es-AR,es;q=0.8,en-US;q=0.5,en;q=0.3","true","null","<div style=""font-size:100px;"">X</div>","null","","","fixation","","","","","","","",""
"","","","","","audio-keyboard-response","148","630590","0.0-170.0","64","1","2023-10-25 15:12:02","a725c3012b74bf33a1020a98cb69c237","157.92.14.67","Mozilla/5.0 (X11; Ubuntu; Linux x86_64; rv:109.0) Gecko/20100101 Firefox/118.0","","Firefox","118.0","Ubuntu","","null","es-AR,es;q=0.8,en-US;q=0.5,en;q=0.3","true","null","tones/440hz_short.mp3","null","","","tone_number_task","0","cuarenta y ocho","tones/440hz_short.mp3","150","60","2","24",""
"","","","","","html-keyboard-response","149","631511","0.0-173.0-0.0","64","1","2023-10-25 15:12:02","a725c3012b74bf33a1020a98cb69c237","157.92.14.67","Mozilla/5.0 (X11; Ubuntu; Linux x86_64; rv:109.0) Gecko/20100101 Firefox/118.0","","Firefox","118.0","Ubuntu","","null","es-AR,es;q=0.8,en-US;q=0.5,en;q=0.3","true","907","tones/440hz_short.mp3","a","","","empty_block","","cuarenta y ocho","","","","2","24",""
"","","","","","html-keyboard-response","150","631878","0.0-173.0-1.0","64","1","2023-10-25 15:12:02","a725c3012b74bf33a1020a98cb69c237","157.92.14.67","Mozilla/5.0 (X11; Ubuntu; Linux x86_64; rv:109.0) Gecko/20100101 Firefox/118.0","","Firefox","118.0","Ubuntu","","null","es-AR,es;q=0.8,en-US;q=0.5,en;q=0.3","true","361","tones/440hz_short.mp3","k","","","empty_block","","cuarenta y ocho","","","","2","24",""
"","","","","","html-keyboard-response","151","634928","0.0-175.0","64","1","2023-10-25 15:12:02","a725c3012b74bf33a1020a98cb69c237","157.92.14.67","Mozilla/5.0 (X11; Ubuntu; Linux x86_64; rv:109.0) Gecko/20100101 Firefox/118.0","","Firefox","118.0","Ubuntu","","null","es-AR,es;q=0.8,en-US;q=0.5,en;q=0.3","true","null","<div style=""font-size:100px;"">X</div>","null","","","fixation","","","","","","","",""
"","","","","","audio-keyboard-response","152","635575","0.0-176.0","64","1","2023-10-25 15:12:02","a725c3012b74bf33a1020a98cb69c237","157.92.14.67","Mozilla/5.0 (X11; Ubuntu; Linux x86_64; rv:109.0) Gecko/20100101 Firefox/118.0","","Firefox","118.0","Ubuntu","","null","es-AR,es;q=0.8,en-US;q=0.5,en;q=0.3","true","650","tones/880hz_short.mp3","s","","","tone_number_task","1025","sesenta y ocho","tones/880hz_short.mp3","1175","60","2","25",""
"","","","","","html-keyboard-response","153","635964","0.0-177.0-0.0","64","1","2023-10-25 15:12:02","a725c3012b74bf33a1020a98cb69c237","157.92.14.67","Mozilla/5.0 (X11; Ubuntu; Linux x86_64; rv:109.0) Gecko/20100101 Firefox/118.0","","Firefox","118.0","Ubuntu","","null","es-AR,es;q=0.8,en-US;q=0.5,en;q=0.3","true","null","","null","","","delay_block","","","","","","2","25",""
"","","","","","html-keyboard-response","154","636130","0.0-177.0-1.0","64","1","2023-10-25 15:12:02","a725c3012b74bf33a1020a98cb69c237","157.92.14.67","Mozilla/5.0 (X11; Ubuntu; Linux x86_64; rv:109.0) Gecko/20100101 Firefox/118.0","","Firefox","118.0","Ubuntu","","null","es-AR,es;q=0.8,en-US;q=0.5,en;q=0.3","true","null","<p id=""stimulus"" style=""font-size:60px;"">sesenta y ocho</p>","null","","","tone_number_task_remaining_before_delay","","sesenta y ocho","","525","60","2","25",""
"","","","","","html-keyboard-response","155","636582","0.0-180.0-0.0","64","1","2023-10-25 15:12:02","a725c3012b74bf33a1020a98cb69c237","157.92.14.67","Mozilla/5.0 (X11; Ubuntu; Linux x86_64; rv:109.0) Gecko/20100101 Firefox/118.0","","Firefox","118.0","Ubuntu","","null","es-AR,es;q=0.8,en-US;q=0.5,en;q=0.3","true","439","<p id=""stimulus"" style=""font-size:60px;"">sesenta y ocho</p>","k","","","empty_block","","sesenta y ocho","","","","2","25",""
"","","","","","html-keyboard-response","156","639392","0.0-181.0","64","1","2023-10-25 15:12:02","a725c3012b74bf33a1020a98cb69c237","157.92.14.67","Mozilla/5.0 (X11; Ubuntu; Linux x86_64; rv:109.0) Gecko/20100101 Firefox/118.0","","Firefox","118.0","Ubuntu","","null","es-AR,es;q=0.8,en-US;q=0.5,en;q=0.3","true","null","<div style=""font-size:100px;"">X</div>","null","","","fixation","","","","","","","",""
"","","","","","audio-keyboard-response","157","639560","0.0-182.0","64","1","2023-10-25 15:12:02","a725c3012b74bf33a1020a98cb69c237","157.92.14.67","Mozilla/5.0 (X11; Ubuntu; Linux x86_64; rv:109.0) Gecko/20100101 Firefox/118.0","","Firefox","118.0","Ubuntu","","null","es-AR,es;q=0.8,en-US;q=0.5,en;q=0.3","true","null","tones/440hz_short.mp3","null","","","tone_number_task","0","cuarenta y dos","tones/440hz_short.mp3","150","60","2","26",""
"","","","","","html-keyboard-response","158","640694","0.0-185.0-0.0","64","1","2023-10-25 15:12:02","a725c3012b74bf33a1020a98cb69c237","157.92.14.67","Mozilla/5.0 (X11; Ubuntu; Linux x86_64; rv:109.0) Gecko/20100101 Firefox/118.0","","Firefox","118.0","Ubuntu","","null","es-AR,es;q=0.8,en-US;q=0.5,en;q=0.3","true","1120","tones/440hz_short.mp3","a","","","empty_block","","cuarenta y dos","","","","2","26",""
"","","","","","html-keyboard-response","159","641046","0.0-185.0-1.0","64","1","2023-10-25 15:12:02","a725c3012b74bf33a1020a98cb69c237","157.92.14.67","Mozilla/5.0 (X11; Ubuntu; Linux x86_64; rv:109.0) Gecko/20100101 Firefox/118.0","","Firefox","118.0","Ubuntu","","null","es-AR,es;q=0.8,en-US;q=0.5,en;q=0.3","true","344","tones/440hz_short.mp3","j","","","empty_block","","cuarenta y dos","","","","2","26",""
"","","","","","html-keyboard-response","160","643864","0.0-187.0","64","1","2023-10-25 15:12:02","a725c3012b74bf33a1020a98cb69c237","157.92.14.67","Mozilla/5.0 (X11; Ubuntu; Linux x86_64; rv:109.0) Gecko/20100101 Firefox/118.0","","Firefox","118.0","Ubuntu","","null","es-AR,es;q=0.8,en-US;q=0.5,en;q=0.3","true","null","<div style=""font-size:100px;"">X</div>","null","","","fixation","","","","","","","",""
"","","","","","audio-keyboard-response","161","644822","0.0-188.0","64","1","2023-10-25 15:12:02","a725c3012b74bf33a1020a98cb69c237","157.92.14.67","Mozilla/5.0 (X11; Ubuntu; Linux x86_64; rv:109.0) Gecko/20100101 Firefox/118.0","","Firefox","118.0","Ubuntu","","null","es-AR,es;q=0.8,en-US;q=0.5,en;q=0.3","true","955","tones/440hz_short.mp3","a","","","tone_number_task","1025","treinta y uno","tones/440hz_short.mp3","1175","60","2","27",""
"","","","","","html-keyboard-response","162","644936","0.0-189.0-0.0","64","1","2023-10-25 15:12:02","a725c3012b74bf33a1020a98cb69c237","157.92.14.67","Mozilla/5.0 (X11; Ubuntu; Linux x86_64; rv:109.0) Gecko/20100101 Firefox/118.0","","Firefox","118.0","Ubuntu","","null","es-AR,es;q=0.8,en-US;q=0.5,en;q=0.3","true","null","","null","","","delay_block","","","","","","2","27",""
"","","","","","html-keyboard-response","163","645102","0.0-189.0-1.0","64","1","2023-10-25 15:12:02","a725c3012b74bf33a1020a98cb69c237","157.92.14.67","Mozilla/5.0 (X11; Ubuntu; Linux x86_64; rv:109.0) Gecko/20100101 Firefox/118.0","","Firefox","118.0","Ubuntu","","null","es-AR,es;q=0.8,en-US;q=0.5,en;q=0.3","true","null","<p id=""stimulus"" style=""font-size:60px;"">treinta y uno</p>","null","","","tone_number_task_remaining_before_delay","","treinta y uno","","220","60","2","27",""
"","","","","","html-keyboard-response","164","645574","0.0-192.0-0.0","64","1","2023-10-25 15:12:02","a725c3012b74bf33a1020a98cb69c237","157.92.14.67","Mozilla/5.0 (X11; Ubuntu; Linux x86_64; rv:109.0) Gecko/20100101 Firefox/118.0","","Firefox","118.0","Ubuntu","","null","es-AR,es;q=0.8,en-US;q=0.5,en;q=0.3","true","465","<p id=""stimulus"" style=""font-size:60px;"">treinta y uno</p>","j","","","empty_block","","treinta y uno","","","","2","27",""
"","","","","","html-keyboard-response","165","648393","0.0-193.0","64","1","2023-10-25 15:12:02","a725c3012b74bf33a1020a98cb69c237","157.92.14.67","Mozilla/5.0 (X11; Ubuntu; Linux x86_64; rv:109.0) Gecko/20100101 Firefox/118.0","","Firefox","118.0","Ubuntu","","null","es-AR,es;q=0.8,en-US;q=0.5,en;q=0.3","true","null","<div style=""font-size:100px;"">X</div>","null","","","fixation","","","","","","","",""
"","","","","","audio-keyboard-response","166","648651","0.0-194.0","64","1","2023-10-25 15:12:02","a725c3012b74bf33a1020a98cb69c237","157.92.14.67","Mozilla/5.0 (X11; Ubuntu; Linux x86_64; rv:109.0) Gecko/20100101 Firefox/118.0","","Firefox","118.0","Ubuntu","","null","es-AR,es;q=0.8,en-US;q=0.5,en;q=0.3","true","null","tones/880hz_short.mp3","null","","","tone_number_task","102.5","cuarenta y nueve","tones/880hz_short.mp3","252.5","60","2","28",""
"","","","","","html-keyboard-response","167","649953","0.0-197.0-0.0","64","1","2023-10-25 15:12:02","a725c3012b74bf33a1020a98cb69c237","157.92.14.67","Mozilla/5.0 (X11; Ubuntu; Linux x86_64; rv:109.0) Gecko/20100101 Firefox/118.0","","Firefox","118.0","Ubuntu","","null","es-AR,es;q=0.8,en-US;q=0.5,en;q=0.3","true","null","tones/880hz_short.mp3","null","","","empty_block","","cuarenta y nueve","","","","2","28",""
"","","","","","html-keyboard-response","168","650598","0.0-197.0-1.0","64","1","2023-10-25 15:12:02","a725c3012b74bf33a1020a98cb69c237","157.92.14.67","Mozilla/5.0 (X11; Ubuntu; Linux x86_64; rv:109.0) Gecko/20100101 Firefox/118.0","","Firefox","118.0","Ubuntu","","null","es-AR,es;q=0.8,en-US;q=0.5,en;q=0.3","true","637","tones/880hz_short.mp3","s","","","empty_block","","cuarenta y nueve","","","","2","28",""
"","","","","","html-keyboard-response","169","653408","0.0-199.0","64","1","2023-10-25 15:12:02","a725c3012b74bf33a1020a98cb69c237","157.92.14.67","Mozilla/5.0 (X11; Ubuntu; Linux x86_64; rv:109.0) Gecko/20100101 Firefox/118.0","","Firefox","118.0","Ubuntu","","null","es-AR,es;q=0.8,en-US;q=0.5,en;q=0.3","true","null","<div style=""font-size:100px;"">X</div>","null","","","fixation","","","","","","","",""
"","","","","","audio-keyboard-response","170","653667","0.0-200.0","64","1","2023-10-25 15:12:02","a725c3012b74bf33a1020a98cb69c237","157.92.14.67","Mozilla/5.0 (X11; Ubuntu; Linux x86_64; rv:109.0) Gecko/20100101 Firefox/118.0","","Firefox","118.0","Ubuntu","","null","es-AR,es;q=0.8,en-US;q=0.5,en;q=0.3","true","null","tones/880hz_short.mp3","null","","","tone_number_task","102.5","cincuenta y ocho","tones/880hz_short.mp3","252.5","60","2","29",""
"","","","","","html-keyboard-response","171","654630","0.0-203.0-0.0","64","1","2023-10-25 15:12:02","a725c3012b74bf33a1020a98cb69c237","157.92.14.67","Mozilla/5.0 (X11; Ubuntu; Linux x86_64; rv:109.0) Gecko/20100101 Firefox/118.0","","Firefox","118.0","Ubuntu","","null","es-AR,es;q=0.8,en-US;q=0.5,en;q=0.3","true","946","tones/880hz_short.mp3","s","","","empty_block","","cincuenta y ocho","","","","2","29",""
"","","","","","html-keyboard-response","172","654918","0.0-203.0-1.0","64","1","2023-10-25 15:12:02","a725c3012b74bf33a1020a98cb69c237","157.92.14.67","Mozilla/5.0 (X11; Ubuntu; Linux x86_64; rv:109.0) Gecko/20100101 Firefox/118.0","","Firefox","118.0","Ubuntu","","null","es-AR,es;q=0.8,en-US;q=0.5,en;q=0.3","true","280","tones/880hz_short.mp3","k","","","empty_block","","cincuenta y ocho","","","","2","29",""
"","","","","","html-keyboard-response","173","657736","0.0-205.0","64","1","2023-10-25 15:12:02","a725c3012b74bf33a1020a98cb69c237","157.92.14.67","Mozilla/5.0 (X11; Ubuntu; Linux x86_64; rv:109.0) Gecko/20100101 Firefox/118.0","","Firefox","118.0","Ubuntu","","null","es-AR,es;q=0.8,en-US;q=0.5,en;q=0.3","true","null","<div style=""font-size:100px;"">X</div>","null","","","fixation","","","","","","","",""
"","","","","","audio-keyboard-response","174","657997","0.0-206.0","64","1","2023-10-25 15:12:02","a725c3012b74bf33a1020a98cb69c237","157.92.14.67","Mozilla/5.0 (X11; Ubuntu; Linux x86_64; rv:109.0) Gecko/20100101 Firefox/118.0","","Firefox","118.0","Ubuntu","","null","es-AR,es;q=0.8,en-US;q=0.5,en;q=0.3","true","null","tones/440hz_short.mp3","null","","","tone_number_task","102.5","treinta","tones/440hz_short.mp3","252.5","60","2","30",""
"","","","","","html-keyboard-response","175","658806","0.0-209.0-0.0","64","1","2023-10-25 15:12:02","a725c3012b74bf33a1020a98cb69c237","157.92.14.67","Mozilla/5.0 (X11; Ubuntu; Linux x86_64; rv:109.0) Gecko/20100101 Firefox/118.0","","Firefox","118.0","Ubuntu","","null","es-AR,es;q=0.8,en-US;q=0.5,en;q=0.3","true","793","tones/440hz_short.mp3","a","","","empty_block","","treinta","","","","2","30",""
"","","","","","html-keyboard-response","176","659126","0.0-209.0-1.0","64","1","2023-10-25 15:12:02","a725c3012b74bf33a1020a98cb69c237","157.92.14.67","Mozilla/5.0 (X11; Ubuntu; Linux x86_64; rv:109.0) Gecko/20100101 Firefox/118.0","","Firefox","118.0","Ubuntu","","null","es-AR,es;q=0.8,en-US;q=0.5,en;q=0.3","true","312","tones/440hz_short.mp3","j","","","empty_block","","treinta","","","","2","30",""
"","","","","","html-keyboard-response","177","661946","0.0-211.0","64","1","2023-10-25 15:12:02","a725c3012b74bf33a1020a98cb69c237","157.92.14.67","Mozilla/5.0 (X11; Ubuntu; Linux x86_64; rv:109.0) Gecko/20100101 Firefox/118.0","","Firefox","118.0","Ubuntu","","null","es-AR,es;q=0.8,en-US;q=0.5,en;q=0.3","true","null","<div style=""font-size:100px;"">X</div>","null","","","fixation","","","","","","","",""
"","","","","","audio-keyboard-response","178","662205","0.0-212.0","64","1","2023-10-25 15:12:02","a725c3012b74bf33a1020a98cb69c237","157.92.14.67","Mozilla/5.0 (X11; Ubuntu; Linux x86_64; rv:109.0) Gecko/20100101 Firefox/118.0","","Firefox","118.0","Ubuntu","","null","es-AR,es;q=0.8,en-US;q=0.5,en;q=0.3","true","null","tones/440hz_short.mp3","null","","","tone_number_task","102.5","cincuenta y cuatro","tones/440hz_short.mp3","252.5","60","2","31",""
"","","","","","html-keyboard-response","179","663286","0.0-215.0-0.0","64","1","2023-10-25 15:12:02","a725c3012b74bf33a1020a98cb69c237","157.92.14.67","Mozilla/5.0 (X11; Ubuntu; Linux x86_64; rv:109.0) Gecko/20100101 Firefox/118.0","","Firefox","118.0","Ubuntu","","null","es-AR,es;q=0.8,en-US;q=0.5,en;q=0.3","true","1064","tones/440hz_short.mp3","a","","","empty_block","","cincuenta y cuatro","","","","2","31",""
"","","","","","html-keyboard-response","180","664006","0.0-215.0-1.0","64","1","2023-10-25 15:12:02","a725c3012b74bf33a1020a98cb69c237","157.92.14.67","Mozilla/5.0 (X11; Ubuntu; Linux x86_64; rv:109.0) Gecko/20100101 Firefox/118.0","","Firefox","118.0","Ubuntu","","null","es-AR,es;q=0.8,en-US;q=0.5,en;q=0.3","true","713","tones/440hz_short.mp3","k","","","empty_block","","cincuenta y cuatro","","","","2","31",""
"","","","","","html-keyboard-response","181","666817","0.0-217.0","64","1","2023-10-25 15:12:02","a725c3012b74bf33a1020a98cb69c237","157.92.14.67","Mozilla/5.0 (X11; Ubuntu; Linux x86_64; rv:109.0) Gecko/20100101 Firefox/118.0","","Firefox","118.0","Ubuntu","","null","es-AR,es;q=0.8,en-US;q=0.5,en;q=0.3","true","null","<div style=""font-size:100px;"">X</div>","null","","","fixation","","","","","","","",""
"","","","","","audio-keyboard-response","182","667462","0.0-218.0","64","1","2023-10-25 15:12:02","a725c3012b74bf33a1020a98cb69c237","157.92.14.67","Mozilla/5.0 (X11; Ubuntu; Linux x86_64; rv:109.0) Gecko/20100101 Firefox/118.0","","Firefox","118.0","Ubuntu","","null","es-AR,es;q=0.8,en-US;q=0.5,en;q=0.3","true","650","tones/880hz_short.mp3","s","","","tone_number_task","992.5","sesenta y tres","tones/880hz_short.mp3","1142.5","60","2","32",""
"","","","","","html-keyboard-response","183","667816","0.0-219.0-0.0","64","1","2023-10-25 15:12:02","a725c3012b74bf33a1020a98cb69c237","157.92.14.67","Mozilla/5.0 (X11; Ubuntu; Linux x86_64; rv:109.0) Gecko/20100101 Firefox/118.0","","Firefox","118.0","Ubuntu","","null","es-AR,es;q=0.8,en-US;q=0.5,en;q=0.3","true","null","","null","","","delay_block","","","","","","2","32",""
"","","","","","html-keyboard-response","184","667984","0.0-219.0-1.0","64","1","2023-10-25 15:12:02","a725c3012b74bf33a1020a98cb69c237","157.92.14.67","Mozilla/5.0 (X11; Ubuntu; Linux x86_64; rv:109.0) Gecko/20100101 Firefox/118.0","","Firefox","118.0","Ubuntu","","null","es-AR,es;q=0.8,en-US;q=0.5,en;q=0.3","true","null","<p id=""stimulus"" style=""font-size:60px;"">sesenta y tres</p>","null","","","tone_number_task_remaining_before_delay","","sesenta y tres","","492.5","60","2","32",""
"","","","","","html-keyboard-response","185","668438","0.0-222.0-0.0","64","1","2023-10-25 15:12:02","a725c3012b74bf33a1020a98cb69c237","157.92.14.67","Mozilla/5.0 (X11; Ubuntu; Linux x86_64; rv:109.0) Gecko/20100101 Firefox/118.0","","Firefox","118.0","Ubuntu","","null","es-AR,es;q=0.8,en-US;q=0.5,en;q=0.3","true","436","<p id=""stimulus"" style=""font-size:60px;"">sesenta y tres</p>","k","","","empty_block","","sesenta y tres","","","","2","32",""
"","","","","","html-keyboard-response","186","671248","0.0-223.0","64","1","2023-10-25 15:12:02","a725c3012b74bf33a1020a98cb69c237","157.92.14.67","Mozilla/5.0 (X11; Ubuntu; Linux x86_64; rv:109.0) Gecko/20100101 Firefox/118.0","","Firefox","118.0","Ubuntu","","null","es-AR,es;q=0.8,en-US;q=0.5,en;q=0.3","true","null","<div style=""font-size:100px;"">X</div>","null","","","fixation","","","","","","","",""
"","","","","","audio-keyboard-response","187","671519","0.0-224.0","64","1","2023-10-25 15:12:02","a725c3012b74bf33a1020a98cb69c237","157.92.14.67","Mozilla/5.0 (X11; Ubuntu; Linux x86_64; rv:109.0) Gecko/20100101 Firefox/118.0","","Firefox","118.0","Ubuntu","","null","es-AR,es;q=0.8,en-US;q=0.5,en;q=0.3","true","null","tones/440hz_short.mp3","null","","","tone_number_task","102.5","cincuenta y siete","tones/440hz_short.mp3","252.5","60","2","33",""
"","","","","","html-keyboard-response","188","672727","0.0-227.0-0.0","64","1","2023-10-25 15:12:02","a725c3012b74bf33a1020a98cb69c237","157.92.14.67","Mozilla/5.0 (X11; Ubuntu; Linux x86_64; rv:109.0) Gecko/20100101 Firefox/118.0","","Firefox","118.0","Ubuntu","","null","es-AR,es;q=0.8,en-US;q=0.5,en;q=0.3","true","null","tones/440hz_short.mp3","null","","","empty_block","","cincuenta y siete","","","","2","33",""
"","","","","","html-keyboard-response","189","673286","0.0-227.0-1.0","64","1","2023-10-25 15:12:02","a725c3012b74bf33a1020a98cb69c237","157.92.14.67","Mozilla/5.0 (X11; Ubuntu; Linux x86_64; rv:109.0) Gecko/20100101 Firefox/118.0","","Firefox","118.0","Ubuntu","","null","es-AR,es;q=0.8,en-US;q=0.5,en;q=0.3","true","542","tones/440hz_short.mp3","a","","","empty_block","","cincuenta y siete","","","","2","33",""
"","","","","","html-keyboard-response","190","676096","0.0-229.0","64","1","2023-10-25 15:12:02","a725c3012b74bf33a1020a98cb69c237","157.92.14.67","Mozilla/5.0 (X11; Ubuntu; Linux x86_64; rv:109.0) Gecko/20100101 Firefox/118.0","","Firefox","118.0","Ubuntu","","null","es-AR,es;q=0.8,en-US;q=0.5,en;q=0.3","true","null","<div style=""font-size:100px;"">X</div>","null","","","fixation","","","","","","","",""
"","","","","","audio-keyboard-response","191","676255","0.0-230.0","64","1","2023-10-25 15:12:02","a725c3012b74bf33a1020a98cb69c237","157.92.14.67","Mozilla/5.0 (X11; Ubuntu; Linux x86_64; rv:109.0) Gecko/20100101 Firefox/118.0","","Firefox","118.0","Ubuntu","","null","es-AR,es;q=0.8,en-US;q=0.5,en;q=0.3","true","null","tones/440hz_short.mp3","null","","","tone_number_task","0","treinta y siete","tones/440hz_short.mp3","150","60","2","34",""
"","","","","","html-keyboard-response","192","677110","0.0-233.0-0.0","64","1","2023-10-25 15:12:02","a725c3012b74bf33a1020a98cb69c237","157.92.14.67","Mozilla/5.0 (X11; Ubuntu; Linux x86_64; rv:109.0) Gecko/20100101 Firefox/118.0","","Firefox","118.0","Ubuntu","","null","es-AR,es;q=0.8,en-US;q=0.5,en;q=0.3","true","839","tones/440hz_short.mp3","a","","","empty_block","","treinta y siete","","","","2","34",""
"","","","","","html-keyboard-response","193","677510","0.0-233.0-1.0","64","1","2023-10-25 15:12:02","a725c3012b74bf33a1020a98cb69c237","157.92.14.67","Mozilla/5.0 (X11; Ubuntu; Linux x86_64; rv:109.0) Gecko/20100101 Firefox/118.0","","Firefox","118.0","Ubuntu","","null","es-AR,es;q=0.8,en-US;q=0.5,en;q=0.3","true","393","tones/440hz_short.mp3","j","","","empty_block","","treinta y siete","","","","2","34",""
"","","","","","html-keyboard-response","194","680332","0.0-235.0","64","1","2023-10-25 15:12:02","a725c3012b74bf33a1020a98cb69c237","157.92.14.67","Mozilla/5.0 (X11; Ubuntu; Linux x86_64; rv:109.0) Gecko/20100101 Firefox/118.0","","Firefox","118.0","Ubuntu","","null","es-AR,es;q=0.8,en-US;q=0.5,en;q=0.3","true","null","<div style=""font-size:100px;"">X</div>","null","","","fixation","","","","","","","",""
"","","","","","audio-keyboard-response","195","681482","0.0-236.0","64","1","2023-10-25 15:12:02","a725c3012b74bf33a1020a98cb69c237","157.92.14.67","Mozilla/5.0 (X11; Ubuntu; Linux x86_64; rv:109.0) Gecko/20100101 Firefox/118.0","","Firefox","118.0","Ubuntu","","null","es-AR,es;q=0.8,en-US;q=0.5,en;q=0.3","true","null","tones/440hz_short.mp3","null","","","tone_number_task","992.5","cuarenta y dos","tones/440hz_short.mp3","1142.5","60","2","35",""
"","","","","","html-keyboard-response","196","681622","0.0-239.0-0.0","64","1","2023-10-25 15:12:02","a725c3012b74bf33a1020a98cb69c237","157.92.14.67","Mozilla/5.0 (X11; Ubuntu; Linux x86_64; rv:109.0) Gecko/20100101 Firefox/118.0","","Firefox","118.0","Ubuntu","","null","es-AR,es;q=0.8,en-US;q=0.5,en;q=0.3","true","121","tones/440hz_short.mp3","a","","","empty_block","","cuarenta y dos","","","","2","35",""
"","","","","","html-keyboard-response","197","682118","0.0-239.0-1.0","64","1","2023-10-25 15:12:02","a725c3012b74bf33a1020a98cb69c237","157.92.14.67","Mozilla/5.0 (X11; Ubuntu; Linux x86_64; rv:109.0) Gecko/20100101 Firefox/118.0","","Firefox","118.0","Ubuntu","","null","es-AR,es;q=0.8,en-US;q=0.5,en;q=0.3","true","478","tones/440hz_short.mp3","j","","","empty_block","","cuarenta y dos","","","","2","35",""
"","","","","","html-keyboard-response","198","684939","0.0-241.0","64","1","2023-10-25 15:12:02","a725c3012b74bf33a1020a98cb69c237","157.92.14.67","Mozilla/5.0 (X11; Ubuntu; Linux x86_64; rv:109.0) Gecko/20100101 Firefox/118.0","","Firefox","118.0","Ubuntu","","null","es-AR,es;q=0.8,en-US;q=0.5,en;q=0.3","true","null","<div style=""font-size:100px;"">X</div>","null","","","fixation","","","","","","","",""
"","","","","","audio-keyboard-response","199","685200","0.0-242.0","64","1","2023-10-25 15:12:02","a725c3012b74bf33a1020a98cb69c237","157.92.14.67","Mozilla/5.0 (X11; Ubuntu; Linux x86_64; rv:109.0) Gecko/20100101 Firefox/118.0","","Firefox","118.0","Ubuntu","","null","es-AR,es;q=0.8,en-US;q=0.5,en;q=0.3","true","null","tones/440hz_short.mp3","null","","","tone_number_task","102.5","sesenta y nueve","tones/440hz_short.mp3","252.5","60","2","36",""
"","","","","","html-keyboard-response","200","685974","0.0-245.0-0.0","64","1","2023-10-25 15:12:02","a725c3012b74bf33a1020a98cb69c237","157.92.14.67","Mozilla/5.0 (X11; Ubuntu; Linux x86_64; rv:109.0) Gecko/20100101 Firefox/118.0","","Firefox","118.0","Ubuntu","","null","es-AR,es;q=0.8,en-US;q=0.5,en;q=0.3","true","756","tones/440hz_short.mp3","a","","","empty_block","","sesenta y nueve","","","","2","36",""
"","","","","","html-keyboard-response","201","686277","0.0-245.0-1.0","64","1","2023-10-25 15:12:02","a725c3012b74bf33a1020a98cb69c237","157.92.14.67","Mozilla/5.0 (X11; Ubuntu; Linux x86_64; rv:109.0) Gecko/20100101 Firefox/118.0","","Firefox","118.0","Ubuntu","","null","es-AR,es;q=0.8,en-US;q=0.5,en;q=0.3","true","297","tones/440hz_short.mp3","k","","","empty_block","","sesenta y nueve","","","","2","36",""
"","","","","","html-keyboard-response","202","689099","0.0-247.0","64","1","2023-10-25 15:12:02","a725c3012b74bf33a1020a98cb69c237","157.92.14.67","Mozilla/5.0 (X11; Ubuntu; Linux x86_64; rv:109.0) Gecko/20100101 Firefox/118.0","","Firefox","118.0","Ubuntu","","null","es-AR,es;q=0.8,en-US;q=0.5,en;q=0.3","true","null","<div style=""font-size:100px;"">X</div>","null","","","fixation","","","","","","","",""
"","","","","","audio-keyboard-response","203","689360","0.0-248.0","64","1","2023-10-25 15:12:02","a725c3012b74bf33a1020a98cb69c237","157.92.14.67","Mozilla/5.0 (X11; Ubuntu; Linux x86_64; rv:109.0) Gecko/20100101 Firefox/118.0","","Firefox","118.0","Ubuntu","","null","es-AR,es;q=0.8,en-US;q=0.5,en;q=0.3","true","null","tones/440hz_short.mp3","null","","","tone_number_task","102.5","treinta y tres","tones/440hz_short.mp3","252.5","60","2","37",""
"","","","","","html-keyboard-response","204","689940","0.0-251.0-0.0","64","1","2023-10-25 15:12:02","a725c3012b74bf33a1020a98cb69c237","157.92.14.67","Mozilla/5.0 (X11; Ubuntu; Linux x86_64; rv:109.0) Gecko/20100101 Firefox/118.0","","Firefox","118.0","Ubuntu","","null","es-AR,es;q=0.8,en-US;q=0.5,en;q=0.3","true","563","tones/440hz_short.mp3","a","","","empty_block","","treinta y tres","","","","2","37",""
"","","","","","html-keyboard-response","205","690278","0.0-251.0-1.0","64","1","2023-10-25 15:12:02","a725c3012b74bf33a1020a98cb69c237","157.92.14.67","Mozilla/5.0 (X11; Ubuntu; Linux x86_64; rv:109.0) Gecko/20100101 Firefox/118.0","","Firefox","118.0","Ubuntu","","null","es-AR,es;q=0.8,en-US;q=0.5,en;q=0.3","true","333","tones/440hz_short.mp3","j","","","empty_block","","treinta y tres","","","","2","37",""
"","","","","","html-keyboard-response","206","693101","0.0-253.0","64","1","2023-10-25 15:12:02","a725c3012b74bf33a1020a98cb69c237","157.92.14.67","Mozilla/5.0 (X11; Ubuntu; Linux x86_64; rv:109.0) Gecko/20100101 Firefox/118.0","","Firefox","118.0","Ubuntu","","null","es-AR,es;q=0.8,en-US;q=0.5,en;q=0.3","true","null","<div style=""font-size:100px;"">X</div>","null","","","fixation","","","","","","","",""
"","","","","","audio-keyboard-response","207","693622","0.0-254.0","64","1","2023-10-25 15:12:02","a725c3012b74bf33a1020a98cb69c237","157.92.14.67","Mozilla/5.0 (X11; Ubuntu; Linux x86_64; rv:109.0) Gecko/20100101 Firefox/118.0","","Firefox","118.0","Ubuntu","","null","es-AR,es;q=0.8,en-US;q=0.5,en;q=0.3","true","522","tones/440hz_short.mp3","a","","","tone_number_task","1025","sesenta y nueve","tones/440hz_short.mp3","1175","60","2","38",""
"","","","","","html-keyboard-response","208","694143","0.0-255.0-0.0","64","1","2023-10-25 15:12:02","a725c3012b74bf33a1020a98cb69c237","157.92.14.67","Mozilla/5.0 (X11; Ubuntu; Linux x86_64; rv:109.0) Gecko/20100101 Firefox/118.0","","Firefox","118.0","Ubuntu","","null","es-AR,es;q=0.8,en-US;q=0.5,en;q=0.3","true","null","","null","","","delay_block","","","","","","2","38",""
"","","","","","html-keyboard-response","209","694302","0.0-255.0-1.0","64","1","2023-10-25 15:12:02","a725c3012b74bf33a1020a98cb69c237","157.92.14.67","Mozilla/5.0 (X11; Ubuntu; Linux x86_64; rv:109.0) Gecko/20100101 Firefox/118.0","","Firefox","118.0","Ubuntu","","null","es-AR,es;q=0.8,en-US;q=0.5,en;q=0.3","true","null","<p id=""stimulus"" style=""font-size:60px;"">sesenta y nueve</p>","null","","","tone_number_task_remaining_before_delay","","sesenta y nueve","","653","60","2","38",""
"","","","","","html-keyboard-response","210","694677","0.0-258.0-0.0","64","1","2023-10-25 15:12:02","a725c3012b74bf33a1020a98cb69c237","157.92.14.67","Mozilla/5.0 (X11; Ubuntu; Linux x86_64; rv:109.0) Gecko/20100101 Firefox/118.0","","Firefox","118.0","Ubuntu","","null","es-AR,es;q=0.8,en-US;q=0.5,en;q=0.3","true","358","<p id=""stimulus"" style=""font-size:60px;"">sesenta y nueve</p>","k","","","empty_block","","sesenta y nueve","","","","2","38",""
"","","","","","html-keyboard-response","211","697500","0.0-259.0","64","1","2023-10-25 15:12:02","a725c3012b74bf33a1020a98cb69c237","157.92.14.67","Mozilla/5.0 (X11; Ubuntu; Linux x86_64; rv:109.0) Gecko/20100101 Firefox/118.0","","Firefox","118.0","Ubuntu","","null","es-AR,es;q=0.8,en-US;q=0.5,en;q=0.3","true","null","<div style=""font-size:100px;"">X</div>","null","","","fixation","","","","","","","",""
"","","","","","audio-keyboard-response","212","698261","0.0-260.0","64","1","2023-10-25 15:12:02","a725c3012b74bf33a1020a98cb69c237","157.92.14.67","Mozilla/5.0 (X11; Ubuntu; Linux x86_64; rv:109.0) Gecko/20100101 Firefox/118.0","","Firefox","118.0","Ubuntu","","null","es-AR,es;q=0.8,en-US;q=0.5,en;q=0.3","true","760","tones/440hz_short.mp3","a","","","tone_number_task","992.5","veintiseis","tones/440hz_short.mp3","1142.5","60","2","39",""
"","","","","","html-keyboard-response","213","698502","0.0-261.0-0.0","64","1","2023-10-25 15:12:02","a725c3012b74bf33a1020a98cb69c237","157.92.14.67","Mozilla/5.0 (X11; Ubuntu; Linux x86_64; rv:109.0) Gecko/20100101 Firefox/118.0","","Firefox","118.0","Ubuntu","","null","es-AR,es;q=0.8,en-US;q=0.5,en;q=0.3","true","null","","null","","","delay_block","","","","","","2","39",""
"","","","","","html-keyboard-response","214","698671","0.0-261.0-1.0","64","1","2023-10-25 15:12:02","a725c3012b74bf33a1020a98cb69c237","157.92.14.67","Mozilla/5.0 (X11; Ubuntu; Linux x86_64; rv:109.0) Gecko/20100101 Firefox/118.0","","Firefox","118.0","Ubuntu","","null","es-AR,es;q=0.8,en-US;q=0.5,en;q=0.3","true","null","<p id=""stimulus"" style=""font-size:60px;"">veintiseis</p>","null","","","tone_number_task_remaining_before_delay","","veintiseis","","382.5","60","2","39",""
"","","","","","html-keyboard-response","215","699141","0.0-264.0-0.0","64","1","2023-10-25 15:12:02","a725c3012b74bf33a1020a98cb69c237","157.92.14.67","Mozilla/5.0 (X11; Ubuntu; Linux x86_64; rv:109.0) Gecko/20100101 Firefox/118.0","","Firefox","118.0","Ubuntu","","null","es-AR,es;q=0.8,en-US;q=0.5,en;q=0.3","true","451","<p id=""stimulus"" style=""font-size:60px;"">veintiseis</p>","j","","","empty_block","","veintiseis","","","","2","39",""
"","","","","","call-function","216","699161","0.0-265.0","64","1","2023-10-25 15:12:02","a725c3012b74bf33a1020a98cb69c237","157.92.14.67","Mozilla/5.0 (X11; Ubuntu; Linux x86_64; rv:109.0) Gecko/20100101 Firefox/118.0","","Firefox","118.0","Ubuntu","","null","es-AR,es;q=0.8,en-US;q=0.5,en;q=0.3","true","","","","","","","","","","","","","",""
"","","","","","external-html","217","719024","0.0-266.0","64","1","2023-10-25 15:12:02","a725c3012b74bf33a1020a98cb69c237","157.92.14.67","Mozilla/5.0 (X11; Ubuntu; Linux x86_64; rv:109.0) Gecko/20100101 Firefox/118.0","","Firefox","118.0","Ubuntu","","null","es-AR,es;q=0.8,en-US;q=0.5,en;q=0.3","true","19392","","","","instructions/instructions_words_last.html","","","","","","","","",""
"","","","","","call-function","218","719046","0.0-267.0","64","1","2023-10-25 15:12:02","a725c3012b74bf33a1020a98cb69c237","157.92.14.67","Mozilla/5.0 (X11; Ubuntu; Linux x86_64; rv:109.0) Gecko/20100101 Firefox/118.0","","Firefox","118.0","Ubuntu","","null","es-AR,es;q=0.8,en-US;q=0.5,en;q=0.3","true","","","","","","","","","","","","","",""
"","","","","","html-keyboard-response","219","721860","0.0-268.0","64","1","2023-10-25 15:12:02","a725c3012b74bf33a1020a98cb69c237","157.92.14.67","Mozilla/5.0 (X11; Ubuntu; Linux x86_64; rv:109.0) Gecko/20100101 Firefox/118.0","","Firefox","118.0","Ubuntu","","null","es-AR,es;q=0.8,en-US;q=0.5,en;q=0.3","true","null","<div style=""font-size:100px;"">X</div>","null","","","fixation","","","","","","","",""
"","","","","","audio-keyboard-response","220","722019","0.0-269.0","64","1","2023-10-25 15:12:02","a725c3012b74bf33a1020a98cb69c237","157.92.14.67","Mozilla/5.0 (X11; Ubuntu; Linux x86_64; rv:109.0) Gecko/20100101 Firefox/118.0","","Firefox","118.0","Ubuntu","","null","es-AR,es;q=0.8,en-US;q=0.5,en;q=0.3","true","null","tones/880hz_short.mp3","null","","","tone_number_task","0","veinticinco","tones/880hz_short.mp3","150","60","3","0",""
"","","","","","html-keyboard-response","221","723190","0.0-272.0-0.0","64","1","2023-10-25 15:12:02","a725c3012b74bf33a1020a98cb69c237","157.92.14.67","Mozilla/5.0 (X11; Ubuntu; Linux x86_64; rv:109.0) Gecko/20100101 Firefox/118.0","","Firefox","118.0","Ubuntu","","null","es-AR,es;q=0.8,en-US;q=0.5,en;q=0.3","true","1153","tones/880hz_short.mp3","s","","","empty_block","","veinticinco","","","","3","0",""
"","","","","","html-keyboard-response","222","723445","0.0-272.0-1.0","64","1","2023-10-25 15:12:02","a725c3012b74bf33a1020a98cb69c237","157.92.14.67","Mozilla/5.0 (X11; Ubuntu; Linux x86_64; rv:109.0) Gecko/20100101 Firefox/118.0","","Firefox","118.0","Ubuntu","","null","es-AR,es;q=0.8,en-US;q=0.5,en;q=0.3","true","248","tones/880hz_short.mp3","j","","","empty_block","","veinticinco","","","","3","0",""
"","","","","","html-keyboard-response","223","726269","0.0-274.0","64","1","2023-10-25 15:12:02","a725c3012b74bf33a1020a98cb69c237","157.92.14.67","Mozilla/5.0 (X11; Ubuntu; Linux x86_64; rv:109.0) Gecko/20100101 Firefox/118.0","","Firefox","118.0","Ubuntu","","null","es-AR,es;q=0.8,en-US;q=0.5,en;q=0.3","true","null","<div style=""font-size:100px;"">X</div>","null","","","fixation","","","","","","","",""
"","","","","","audio-keyboard-response","224","726427","0.0-275.0","64","1","2023-10-25 15:12:02","a725c3012b74bf33a1020a98cb69c237","157.92.14.67","Mozilla/5.0 (X11; Ubuntu; Linux x86_64; rv:109.0) Gecko/20100101 Firefox/118.0","","Firefox","118.0","Ubuntu","","null","es-AR,es;q=0.8,en-US;q=0.5,en;q=0.3","true","null","tones/440hz_short.mp3","null","","","tone_number_task","0","cuarenta y seis","tones/440hz_short.mp3","150","60","3","1",""
"","","","","","html-keyboard-response","225","726823","0.0-278.0-0.0","64","1","2023-10-25 15:12:02","a725c3012b74bf33a1020a98cb69c237","157.92.14.67","Mozilla/5.0 (X11; Ubuntu; Linux x86_64; rv:109.0) Gecko/20100101 Firefox/118.0","","Firefox","118.0","Ubuntu","","null","es-AR,es;q=0.8,en-US;q=0.5,en;q=0.3","true","386","tones/440hz_short.mp3","a","","","empty_block","","cuarenta y seis","","","","3","1",""
"","","","","","html-keyboard-response","226","727174","0.0-278.0-1.0","64","1","2023-10-25 15:12:02","a725c3012b74bf33a1020a98cb69c237","157.92.14.67","Mozilla/5.0 (X11; Ubuntu; Linux x86_64; rv:109.0) Gecko/20100101 Firefox/118.0","","Firefox","118.0","Ubuntu","","null","es-AR,es;q=0.8,en-US;q=0.5,en;q=0.3","true","330","tones/440hz_short.mp3","k","","","empty_block","","cuarenta y seis","","","","3","1",""
"","","","","","html-keyboard-response","227","729984","0.0-280.0","64","1","2023-10-25 15:12:02","a725c3012b74bf33a1020a98cb69c237","157.92.14.67","Mozilla/5.0 (X11; Ubuntu; Linux x86_64; rv:109.0) Gecko/20100101 Firefox/118.0","","Firefox","118.0","Ubuntu","","null","es-AR,es;q=0.8,en-US;q=0.5,en;q=0.3","true","null","<div style=""font-size:100px;"">X</div>","null","","","fixation","","","","","","","",""
"","","","","","audio-keyboard-response","228","730485","0.0-281.0","64","1","2023-10-25 15:12:02","a725c3012b74bf33a1020a98cb69c237","157.92.14.67","Mozilla/5.0 (X11; Ubuntu; Linux x86_64; rv:109.0) Gecko/20100101 Firefox/118.0","","Firefox","118.0","Ubuntu","","null","es-AR,es;q=0.8,en-US;q=0.5,en;q=0.3","true","502","tones/880hz_short.mp3","s","","","tone_number_task","1025","sesenta y cuatro","tones/880hz_short.mp3","1175","60","3","2",""
"","","","","","html-keyboard-response","229","731060","0.0-282.0-0.0","64","1","2023-10-25 15:12:02","a725c3012b74bf33a1020a98cb69c237","157.92.14.67","Mozilla/5.0 (X11; Ubuntu; Linux x86_64; rv:109.0) Gecko/20100101 Firefox/118.0","","Firefox","118.0","Ubuntu","","null","es-AR,es;q=0.8,en-US;q=0.5,en;q=0.3","true","null","","null","","","delay_block","","","","","","3","2",""
"","","","","","html-keyboard-response","230","731251","0.0-282.0-1.0","64","1","2023-10-25 15:12:02","a725c3012b74bf33a1020a98cb69c237","157.92.14.67","Mozilla/5.0 (X11; Ubuntu; Linux x86_64; rv:109.0) Gecko/20100101 Firefox/118.0","","Firefox","118.0","Ubuntu","","null","es-AR,es;q=0.8,en-US;q=0.5,en;q=0.3","true","null","<p id=""stimulus"" style=""font-size:60px;"">sesenta y cuatro</p>","null","","","tone_number_task_remaining_before_delay","","sesenta y cuatro","","673","60","3","2",""
