"success","timeout","failed_images","failed_audio","failed_video","trial_type","trial_index","time_elapsed","internal_node_id","run_id","condition","recorded_at","source_code_version","ip","user_agent","device","browser","browser_version","platform","platform_version","referer","accept_language","check","rt","stimulus","response","question_order","url","task","delay","number","audioFile","trial_duration","font_size","block","round","value"
"true","false","[]","[]","[]","preload","0","564","0.0-0.0","17","1","2023-10-31 18:56:44","a725c3012b74bf33a1020a98cb69c237","45.71.5.119","Mozilla/5.0 (Windows NT 10.0; Win64; x64) AppleWebKit/537.36 (KHTML, like Gecko) Chrome/118.0.0.0 Safari/537.36 Edg/118.0.2088.76","WebKit","Edge","118.0.2088.76","Windows","10.0","null","es-419,es;q=0.9,es-ES;q=0.8,en;q=0.7,en-GB;q=0.6,en-US;q=0.5","true","","","","","","","","","","","","","",""
"true","","","","","fullscreen","1","9564","0.0-1.0","17","1","2023-10-31 18:56:44","a725c3012b74bf33a1020a98cb69c237","45.71.5.119","Mozilla/5.0 (Windows NT 10.0; Win64; x64) AppleWebKit/537.36 (KHTML, like Gecko) Chrome/118.0.0.0 Safari/537.36 Edg/118.0.2088.76","WebKit","Edge","118.0.2088.76","Windows","10.0","null","es-419,es;q=0.9,es-ES;q=0.8,en;q=0.7,en-GB;q=0.6,en-US;q=0.5","true","","","","","","","","","","","","","",""
"","","","","","html-button-response","2","12299","0.0-2.0","17","1","2023-10-31 18:56:44","a725c3012b74bf33a1020a98cb69c237","45.71.5.119","Mozilla/5.0 (Windows NT 10.0; Win64; x64) AppleWebKit/537.36 (KHTML, like Gecko) Chrome/118.0.0.0 Safari/537.36 Edg/118.0.2088.76","WebKit","Edge","118.0.2088.76","Windows","10.0","null","es-419,es;q=0.9,es-ES;q=0.8,en;q=0.7,en-GB;q=0.6,en-US;q=0.5","true","2731","<p style=""font-size:24px; color:red;"">Cosas importantes a tener en cuenta antes de comenzar el experimento:</p>","0","","","","","","","","","","",""
"","","","","","html-button-response","3","17865","0.0-3.0","17","1","2023-10-31 18:56:44","a725c3012b74bf33a1020a98cb69c237","45.71.5.119","Mozilla/5.0 (Windows NT 10.0; Win64; x64) AppleWebKit/537.36 (KHTML, like Gecko) Chrome/118.0.0.0 Safari/537.36 Edg/118.0.2088.76","WebKit","Edge","118.0.2088.76","Windows","10.0","null","es-419,es;q=0.9,es-ES;q=0.8,en;q=0.7,en-GB;q=0.6,en-US;q=0.5","true","5564","<p style=""font-size:24px;"">El experimento dura aproximadamente 15 minutos.</p><p style=""font-size:24px;"">Por favor, no cierres la ventana del navegador durante el experimento.</p><p style=""font-size:24px;"">Si se completa de forma parcial, no se guardará ningún resultado.</p>","0","","","","","","","","","","",""
"","","","","","html-button-response","4","20670","0.0-4.0","17","1","2023-10-31 18:56:44","a725c3012b74bf33a1020a98cb69c237","45.71.5.119","Mozilla/5.0 (Windows NT 10.0; Win64; x64) AppleWebKit/537.36 (KHTML, like Gecko) Chrome/118.0.0.0 Safari/537.36 Edg/118.0.2088.76","WebKit","Edge","118.0.2088.76","Windows","10.0","null","es-419,es;q=0.9,es-ES;q=0.8,en;q=0.7,en-GB;q=0.6,en-US;q=0.5","true","2802","<p style=""font-size:24px;"">El experimento contiene estímulos sonoros.</p>","0","","","","","","","","","","",""
"","","","","","audio-button-response","5","24930","0.0-5.0-0.0","17","1","2023-10-31 18:56:44","a725c3012b74bf33a1020a98cb69c237","45.71.5.119","Mozilla/5.0 (Windows NT 10.0; Win64; x64) AppleWebKit/537.36 (KHTML, like Gecko) Chrome/118.0.0.0 Safari/537.36 Edg/118.0.2088.76","WebKit","Edge","118.0.2088.76","Windows","10.0","null","es-419,es;q=0.9,es-ES;q=0.8,en;q=0.7,en-GB;q=0.6,en-US;q=0.5","true","4261","tones/440hz_short.mp3","1","","","","","","","","","","",""
"","","","","","audio-button-response","6","29382","0.0-6.0-0.0","17","1","2023-10-31 18:56:44","a725c3012b74bf33a1020a98cb69c237","45.71.5.119","Mozilla/5.0 (Windows NT 10.0; Win64; x64) AppleWebKit/537.36 (KHTML, like Gecko) Chrome/118.0.0.0 Safari/537.36 Edg/118.0.2088.76","WebKit","Edge","118.0.2088.76","Windows","10.0","null","es-419,es;q=0.9,es-ES;q=0.8,en;q=0.7,en-GB;q=0.6,en-US;q=0.5","true","4451","tones/880hz_short.mp3","0","","","","","","","","","","",""
"","","","","","audio-button-response","7","31995","0.0-6.1-0.1","17","1","2023-10-31 18:56:44","a725c3012b74bf33a1020a98cb69c237","45.71.5.119","Mozilla/5.0 (Windows NT 10.0; Win64; x64) AppleWebKit/537.36 (KHTML, like Gecko) Chrome/118.0.0.0 Safari/537.36 Edg/118.0.2088.76","WebKit","Edge","118.0.2088.76","Windows","10.0","null","es-419,es;q=0.9,es-ES;q=0.8,en;q=0.7,en-GB;q=0.6,en-US;q=0.5","true","2611","tones/880hz_short.mp3","0","","","","","","","","","","",""
"","","","","","audio-button-response","8","34384","0.0-6.2-0.2","17","1","2023-10-31 18:56:44","a725c3012b74bf33a1020a98cb69c237","45.71.5.119","Mozilla/5.0 (Windows NT 10.0; Win64; x64) AppleWebKit/537.36 (KHTML, like Gecko) Chrome/118.0.0.0 Safari/537.36 Edg/118.0.2088.76","WebKit","Edge","118.0.2088.76","Windows","10.0","null","es-419,es;q=0.9,es-ES;q=0.8,en;q=0.7,en-GB;q=0.6,en-US;q=0.5","true","2381","tones/880hz_short.mp3","0","","","","","","","","","","",""
"","","","","","audio-button-response","9","37252","0.0-6.3-0.3","17","1","2023-10-31 18:56:44","a725c3012b74bf33a1020a98cb69c237","45.71.5.119","Mozilla/5.0 (Windows NT 10.0; Win64; x64) AppleWebKit/537.36 (KHTML, like Gecko) Chrome/118.0.0.0 Safari/537.36 Edg/118.0.2088.76","WebKit","Edge","118.0.2088.76","Windows","10.0","null","es-419,es;q=0.9,es-ES;q=0.8,en;q=0.7,en-GB;q=0.6,en-US;q=0.5","true","2861","tones/880hz_short.mp3","0","","","","","","","","","","",""
"","","","","","audio-button-response","10","38633","0.0-6.4-0.4","17","1","2023-10-31 18:56:44","a725c3012b74bf33a1020a98cb69c237","45.71.5.119","Mozilla/5.0 (Windows NT 10.0; Win64; x64) AppleWebKit/537.36 (KHTML, like Gecko) Chrome/118.0.0.0 Safari/537.36 Edg/118.0.2088.76","WebKit","Edge","118.0.2088.76","Windows","10.0","null","es-419,es;q=0.9,es-ES;q=0.8,en;q=0.7,en-GB;q=0.6,en-US;q=0.5","true","1379","tones/880hz_short.mp3","1","","","","","","","","","","",""
"","","","","","survey-html-form","11","43375","0.0-7.0","17","1","2023-10-31 18:56:44","a725c3012b74bf33a1020a98cb69c237","45.71.5.119","Mozilla/5.0 (Windows NT 10.0; Win64; x64) AppleWebKit/537.36 (KHTML, like Gecko) Chrome/118.0.0.0 Safari/537.36 Edg/118.0.2088.76","WebKit","Edge","118.0.2088.76","Windows","10.0","null","es-419,es;q=0.9,es-ES;q=0.8,en;q=0.7,en-GB;q=0.6,en-US;q=0.5","true","4727","","{""response"":""28""}","","","","","","","","","","",""
"","","","","","survey-multi-choice","12","48100","0.0-8.0","17","1","2023-10-31 18:56:44","a725c3012b74bf33a1020a98cb69c237","45.71.5.119","Mozilla/5.0 (Windows NT 10.0; Win64; x64) AppleWebKit/537.36 (KHTML, like Gecko) Chrome/118.0.0.0 Safari/537.36 Edg/118.0.2088.76","WebKit","Edge","118.0.2088.76","Windows","10.0","null","es-419,es;q=0.9,es-ES;q=0.8,en;q=0.7,en-GB;q=0.6,en-US;q=0.5","true","4716","","{""gender"":""Mujer"",""hand"":""Derecha""}","[0,1]","","","","","","","","","",""
"","","","","","external-html","13","103139","0.0-9.0","17","1","2023-10-31 18:56:44","a725c3012b74bf33a1020a98cb69c237","45.71.5.119","Mozilla/5.0 (Windows NT 10.0; Win64; x64) AppleWebKit/537.36 (KHTML, like Gecko) Chrome/118.0.0.0 Safari/537.36 Edg/118.0.2088.76","WebKit","Edge","118.0.2088.76","Windows","10.0","null","es-419,es;q=0.9,es-ES;q=0.8,en;q=0.7,en-GB;q=0.6,en-US;q=0.5","true","54574","","","","instructions/instructions.html","","","","","","","","",""
"","","","","","external-html","14","136533","0.0-10.0","17","1","2023-10-31 18:56:44","a725c3012b74bf33a1020a98cb69c237","45.71.5.119","Mozilla/5.0 (Windows NT 10.0; Win64; x64) AppleWebKit/537.36 (KHTML, like Gecko) Chrome/118.0.0.0 Safari/537.36 Edg/118.0.2088.76","WebKit","Edge","118.0.2088.76","Windows","10.0","null","es-419,es;q=0.9,es-ES;q=0.8,en;q=0.7,en-GB;q=0.6,en-US;q=0.5","true","32965","","","","instructions/animation.html","","","","","","","","",""
"","","","","","html-keyboard-response","15","139414","0.0-11.0-0.0","17","1","2023-10-31 18:56:44","a725c3012b74bf33a1020a98cb69c237","45.71.5.119","Mozilla/5.0 (Windows NT 10.0; Win64; x64) AppleWebKit/537.36 (KHTML, like Gecko) Chrome/118.0.0.0 Safari/537.36 Edg/118.0.2088.76","WebKit","Edge","118.0.2088.76","Windows","10.0","null","es-419,es;q=0.9,es-ES;q=0.8,en;q=0.7,en-GB;q=0.6,en-US;q=0.5","true","null","<div style=""font-size:100px;"">X</div>","null","","","fixation","","","","","","","",""
"","","","","","audio-keyboard-response","16","140570","0.0-11.0-1.0","17","1","2023-10-31 18:56:44","a725c3012b74bf33a1020a98cb69c237","45.71.5.119","Mozilla/5.0 (Windows NT 10.0; Win64; x64) AppleWebKit/537.36 (KHTML, like Gecko) Chrome/118.0.0.0 Safari/537.36 Edg/118.0.2088.76","WebKit","Edge","118.0.2088.76","Windows","10.0","null","es-419,es;q=0.9,es-ES;q=0.8,en;q=0.7,en-GB;q=0.6,en-US;q=0.5","true","null","tones/880hz_short.mp3","null","","","tone_number_task","1000","39","tones/880hz_short.mp3","1150","100","null","null",""
"","","","","","html-keyboard-response","17","140708","0.0-11.0-4.0-0.0","17","1","2023-10-31 18:56:44","a725c3012b74bf33a1020a98cb69c237","45.71.5.119","Mozilla/5.0 (Windows NT 10.0; Win64; x64) AppleWebKit/537.36 (KHTML, like Gecko) Chrome/118.0.0.0 Safari/537.36 Edg/118.0.2088.76","WebKit","Edge","118.0.2088.76","Windows","10.0","null","es-419,es;q=0.9,es-ES;q=0.8,en;q=0.7,en-GB;q=0.6,en-US;q=0.5","true","135","tones/880hz_short.mp3","s","","","empty_block","","39","","","","null","null",""
"","","","","","html-keyboard-response","18","141455","0.0-11.0-4.0-1.0","17","1","2023-10-31 18:56:44","a725c3012b74bf33a1020a98cb69c237","45.71.5.119","Mozilla/5.0 (Windows NT 10.0; Win64; x64) AppleWebKit/537.36 (KHTML, like Gecko) Chrome/118.0.0.0 Safari/537.36 Edg/118.0.2088.76","WebKit","Edge","118.0.2088.76","Windows","10.0","null","es-419,es;q=0.9,es-ES;q=0.8,en;q=0.7,en-GB;q=0.6,en-US;q=0.5","true","746","tones/880hz_short.mp3","j","","","empty_block","","39","","","","null","null",""
"","","","","","html-keyboard-response","19","144330","0.0-13.0-0.0","17","1","2023-10-31 18:56:44","a725c3012b74bf33a1020a98cb69c237","45.71.5.119","Mozilla/5.0 (Windows NT 10.0; Win64; x64) AppleWebKit/537.36 (KHTML, like Gecko) Chrome/118.0.0.0 Safari/537.36 Edg/118.0.2088.76","WebKit","Edge","118.0.2088.76","Windows","10.0","null","es-419,es;q=0.9,es-ES;q=0.8,en;q=0.7,en-GB;q=0.6,en-US;q=0.5","true","null","<div style=""font-size:100px;"">X</div>","null","","","fixation","","","","","","","",""
"","","","","","audio-keyboard-response","20","144776","0.0-13.0-1.0","17","1","2023-10-31 18:56:44","a725c3012b74bf33a1020a98cb69c237","45.71.5.119","Mozilla/5.0 (Windows NT 10.0; Win64; x64) AppleWebKit/537.36 (KHTML, like Gecko) Chrome/118.0.0.0 Safari/537.36 Edg/118.0.2088.76","WebKit","Edge","118.0.2088.76","Windows","10.0","null","es-419,es;q=0.9,es-ES;q=0.8,en;q=0.7,en-GB;q=0.6,en-US;q=0.5","true","440","tones/880hz_short.mp3","s","","","tone_number_task","500","64","tones/880hz_short.mp3","650","100","null","null",""
"","","","","","html-keyboard-response","21","144840","0.0-13.0-2.0-0.0","17","1","2023-10-31 18:56:44","a725c3012b74bf33a1020a98cb69c237","45.71.5.119","Mozilla/5.0 (Windows NT 10.0; Win64; x64) AppleWebKit/537.36 (KHTML, like Gecko) Chrome/118.0.0.0 Safari/537.36 Edg/118.0.2088.76","WebKit","Edge","118.0.2088.76","Windows","10.0","null","es-419,es;q=0.9,es-ES;q=0.8,en;q=0.7,en-GB;q=0.6,en-US;q=0.5","true","null","","null","","","delay_block","","","","","","null","null",""
"","","","","","html-keyboard-response","22","144996","0.0-13.0-2.0-1.0","17","1","2023-10-31 18:56:44","a725c3012b74bf33a1020a98cb69c237","45.71.5.119","Mozilla/5.0 (Windows NT 10.0; Win64; x64) AppleWebKit/537.36 (KHTML, like Gecko) Chrome/118.0.0.0 Safari/537.36 Edg/118.0.2088.76","WebKit","Edge","118.0.2088.76","Windows","10.0","null","es-419,es;q=0.9,es-ES;q=0.8,en;q=0.7,en-GB;q=0.6,en-US;q=0.5","true","null","<p id=""stimulus"" style=""font-size:100px;"">64</p>","null","","","tone_number_task_remaining_before_delay","","64","","210","100","null","null",""
"","","","","","html-keyboard-response","23","145350","0.0-13.0-5.0-0.0","17","1","2023-10-31 18:56:44","a725c3012b74bf33a1020a98cb69c237","45.71.5.119","Mozilla/5.0 (Windows NT 10.0; Win64; x64) AppleWebKit/537.36 (KHTML, like Gecko) Chrome/118.0.0.0 Safari/537.36 Edg/118.0.2088.76","WebKit","Edge","118.0.2088.76","Windows","10.0","null","es-419,es;q=0.9,es-ES;q=0.8,en;q=0.7,en-GB;q=0.6,en-US;q=0.5","true","350","<p id=""stimulus"" style=""font-size:100px;"">64</p>","k","","","empty_block","","64","","","","null","null",""
"","","","","","html-keyboard-response","24","148225","0.0-15.0-0.0","17","1","2023-10-31 18:56:44","a725c3012b74bf33a1020a98cb69c237","45.71.5.119","Mozilla/5.0 (Windows NT 10.0; Win64; x64) AppleWebKit/537.36 (KHTML, like Gecko) Chrome/118.0.0.0 Safari/537.36 Edg/118.0.2088.76","WebKit","Edge","118.0.2088.76","Windows","10.0","null","es-419,es;q=0.9,es-ES;q=0.8,en;q=0.7,en-GB;q=0.6,en-US;q=0.5","true","null","<div style=""font-size:100px;"">X</div>","null","","","fixation","","","","","","","",""
"","","","","","audio-keyboard-response","25","148536","0.0-15.0-1.0","17","1","2023-10-31 18:56:44","a725c3012b74bf33a1020a98cb69c237","45.71.5.119","Mozilla/5.0 (Windows NT 10.0; Win64; x64) AppleWebKit/537.36 (KHTML, like Gecko) Chrome/118.0.0.0 Safari/537.36 Edg/118.0.2088.76","WebKit","Edge","118.0.2088.76","Windows","10.0","null","es-419,es;q=0.9,es-ES;q=0.8,en;q=0.7,en-GB;q=0.6,en-US;q=0.5","true","null","tones/440hz_short.mp3","null","","","tone_number_task","150","35","tones/440hz_short.mp3","300","100","null","null",""
"","","","","","html-keyboard-response","26","148771","0.0-15.0-4.0-0.0","17","1","2023-10-31 18:56:44","a725c3012b74bf33a1020a98cb69c237","45.71.5.119","Mozilla/5.0 (Windows NT 10.0; Win64; x64) AppleWebKit/537.36 (KHTML, like Gecko) Chrome/118.0.0.0 Safari/537.36 Edg/118.0.2088.76","WebKit","Edge","118.0.2088.76","Windows","10.0","null","es-419,es;q=0.9,es-ES;q=0.8,en;q=0.7,en-GB;q=0.6,en-US;q=0.5","true","232","tones/440hz_short.mp3","a","","","empty_block","","35","","","","null","null",""
"","","","","","html-keyboard-response","27","149123","0.0-15.0-4.0-1.0","17","1","2023-10-31 18:56:44","a725c3012b74bf33a1020a98cb69c237","45.71.5.119","Mozilla/5.0 (Windows NT 10.0; Win64; x64) AppleWebKit/537.36 (KHTML, like Gecko) Chrome/118.0.0.0 Safari/537.36 Edg/118.0.2088.76","WebKit","Edge","118.0.2088.76","Windows","10.0","null","es-419,es;q=0.9,es-ES;q=0.8,en;q=0.7,en-GB;q=0.6,en-US;q=0.5","true","349","tones/440hz_short.mp3","j","","","empty_block","","35","","","","null","null",""
"","","","","","html-keyboard-response","28","152004","0.0-17.0-0.0","17","1","2023-10-31 18:56:44","a725c3012b74bf33a1020a98cb69c237","45.71.5.119","Mozilla/5.0 (Windows NT 10.0; Win64; x64) AppleWebKit/537.36 (KHTML, like Gecko) Chrome/118.0.0.0 Safari/537.36 Edg/118.0.2088.76","WebKit","Edge","118.0.2088.76","Windows","10.0","null","es-419,es;q=0.9,es-ES;q=0.8,en;q=0.7,en-GB;q=0.6,en-US;q=0.5","true","null","<div style=""font-size:100px;"">X</div>","null","","","fixation","","","","","","","",""
"","","","","","audio-keyboard-response","29","152210","0.0-17.0-1.0","17","1","2023-10-31 18:56:44","a725c3012b74bf33a1020a98cb69c237","45.71.5.119","Mozilla/5.0 (Windows NT 10.0; Win64; x64) AppleWebKit/537.36 (KHTML, like Gecko) Chrome/118.0.0.0 Safari/537.36 Edg/118.0.2088.76","WebKit","Edge","118.0.2088.76","Windows","10.0","null","es-419,es;q=0.9,es-ES;q=0.8,en;q=0.7,en-GB;q=0.6,en-US;q=0.5","true","null","tones/440hz_short.mp3","null","","","tone_number_task","50","36","tones/440hz_short.mp3","200","100","null","null",""
"","","","","","html-keyboard-response","30","152540","0.0-17.0-4.0-0.0","17","1","2023-10-31 18:56:44","a725c3012b74bf33a1020a98cb69c237","45.71.5.119","Mozilla/5.0 (Windows NT 10.0; Win64; x64) AppleWebKit/537.36 (KHTML, like Gecko) Chrome/118.0.0.0 Safari/537.36 Edg/118.0.2088.76","WebKit","Edge","118.0.2088.76","Windows","10.0","null","es-419,es;q=0.9,es-ES;q=0.8,en;q=0.7,en-GB;q=0.6,en-US;q=0.5","true","326","tones/440hz_short.mp3","a","","","empty_block","","36","","","","null","null",""
"","","","","","html-keyboard-response","31","152836","0.0-17.0-4.0-1.0","17","1","2023-10-31 18:56:44","a725c3012b74bf33a1020a98cb69c237","45.71.5.119","Mozilla/5.0 (Windows NT 10.0; Win64; x64) AppleWebKit/537.36 (KHTML, like Gecko) Chrome/118.0.0.0 Safari/537.36 Edg/118.0.2088.76","WebKit","Edge","118.0.2088.76","Windows","10.0","null","es-419,es;q=0.9,es-ES;q=0.8,en;q=0.7,en-GB;q=0.6,en-US;q=0.5","true","293","tones/440hz_short.mp3","j","","","empty_block","","36","","","","null","null",""
"","","","","","html-button-response","32","158906","0.0-19.0","17","1","2023-10-31 18:56:44","a725c3012b74bf33a1020a98cb69c237","45.71.5.119","Mozilla/5.0 (Windows NT 10.0; Win64; x64) AppleWebKit/537.36 (KHTML, like Gecko) Chrome/118.0.0.0 Safari/537.36 Edg/118.0.2088.76","WebKit","Edge","118.0.2088.76","Windows","10.0","null","es-419,es;q=0.9,es-ES;q=0.8,en;q=0.7,en-GB;q=0.6,en-US;q=0.5","true","6064","
  <h1> Muy bien </h1>
  <p> Ahora, en vez de ser presentados en dígitos, los números vendrán escritos en palabras. </p>
  <p> Por ejemplo, en vez de 44 te aparecerá ""cuarenta y cuatro"". </p>
  ","0","","","","","","","","","","",""
"","","","","","html-keyboard-response","33","161783","0.0-20.0-0.0","17","1","2023-10-31 18:56:44","a725c3012b74bf33a1020a98cb69c237","45.71.5.119","Mozilla/5.0 (Windows NT 10.0; Win64; x64) AppleWebKit/537.36 (KHTML, like Gecko) Chrome/118.0.0.0 Safari/537.36 Edg/118.0.2088.76","WebKit","Edge","118.0.2088.76","Windows","10.0","null","es-419,es;q=0.9,es-ES;q=0.8,en;q=0.7,en-GB;q=0.6,en-US;q=0.5","true","null","<div style=""font-size:100px;"">X</div>","null","","","fixation","","","","","","","",""
"","","","","","audio-keyboard-response","34","162192","0.0-20.0-1.0","17","1","2023-10-31 18:56:44","a725c3012b74bf33a1020a98cb69c237","45.71.5.119","Mozilla/5.0 (Windows NT 10.0; Win64; x64) AppleWebKit/537.36 (KHTML, like Gecko) Chrome/118.0.0.0 Safari/537.36 Edg/118.0.2088.76","WebKit","Edge","118.0.2088.76","Windows","10.0","null","es-419,es;q=0.9,es-ES;q=0.8,en;q=0.7,en-GB;q=0.6,en-US;q=0.5","true","411","tones/880hz_short.mp3","s","","","tone_number_task","1000","cincuenta y ocho","tones/880hz_short.mp3","1150","60","null","null",""
"","","","","","html-keyboard-response","35","162791","0.0-20.0-2.0-0.0","17","1","2023-10-31 18:56:44","a725c3012b74bf33a1020a98cb69c237","45.71.5.119","Mozilla/5.0 (Windows NT 10.0; Win64; x64) AppleWebKit/537.36 (KHTML, like Gecko) Chrome/118.0.0.0 Safari/537.36 Edg/118.0.2088.76","WebKit","Edge","118.0.2088.76","Windows","10.0","null","es-419,es;q=0.9,es-ES;q=0.8,en;q=0.7,en-GB;q=0.6,en-US;q=0.5","true","null","","null","","","delay_block","","","","","","null","null",""
"","","","","","html-keyboard-response","36","162960","0.0-20.0-2.0-1.0","17","1","2023-10-31 18:56:44","a725c3012b74bf33a1020a98cb69c237","45.71.5.119","Mozilla/5.0 (Windows NT 10.0; Win64; x64) AppleWebKit/537.36 (KHTML, like Gecko) Chrome/118.0.0.0 Safari/537.36 Edg/118.0.2088.76","WebKit","Edge","118.0.2088.76","Windows","10.0","null","es-419,es;q=0.9,es-ES;q=0.8,en;q=0.7,en-GB;q=0.6,en-US;q=0.5","true","null","<p id=""stimulus"" style=""font-size:60px;"">cincuenta y ocho</p>","null","","","tone_number_task_remaining_before_delay","","cincuenta y ocho","","739","60","null","null",""
"","","","","","html-keyboard-response","37","164906","0.0-20.0-5.0-0.0","17","1","2023-10-31 18:56:44","a725c3012b74bf33a1020a98cb69c237","45.71.5.119","Mozilla/5.0 (Windows NT 10.0; Win64; x64) AppleWebKit/537.36 (KHTML, like Gecko) Chrome/118.0.0.0 Safari/537.36 Edg/118.0.2088.76","WebKit","Edge","118.0.2088.76","Windows","10.0","null","es-419,es;q=0.9,es-ES;q=0.8,en;q=0.7,en-GB;q=0.6,en-US;q=0.5","true","1942","<p id=""stimulus"" style=""font-size:60px;"">cincuenta y ocho</p>","k","","","empty_block","","cincuenta y ocho","","","","null","null",""
"","","","","","html-button-response","38","175496","0.0-22.0","17","1","2023-10-31 18:56:44","a725c3012b74bf33a1020a98cb69c237","45.71.5.119","Mozilla/5.0 (Windows NT 10.0; Win64; x64) AppleWebKit/537.36 (KHTML, like Gecko) Chrome/118.0.0.0 Safari/537.36 Edg/118.0.2088.76","WebKit","Edge","118.0.2088.76","Windows","10.0","null","es-419,es;q=0.9,es-ES;q=0.8,en;q=0.7,en-GB;q=0.6,en-US;q=0.5","true","10585","
  <h1> Fin del Entrenamiento </h1>
  <p> ¡Felicitaciones, terminaste el entrenamiento! Ahora vamos a comenzar con el experimento. </p>
  <p> Es importante tener en cuenta que consta de cuatro bloques.</p>
  <p> Podés aprovechar los momentos entre bloques para tomar un breve descanso o tomar agua entre cada uno</p>
  <p> Recordá que tenés que responder lo más rápido que puedas, pero sin equivocarte. </p>
  ","0","","","","","","","","","","",""
"","","","","","external-html","39","188311","0.0-23.0","17","1","2023-10-31 18:56:44","a725c3012b74bf33a1020a98cb69c237","45.71.5.119","Mozilla/5.0 (Windows NT 10.0; Win64; x64) AppleWebKit/537.36 (KHTML, like Gecko) Chrome/118.0.0.0 Safari/537.36 Edg/118.0.2088.76","WebKit","Edge","118.0.2088.76","Windows","10.0","null","es-419,es;q=0.9,es-ES;q=0.8,en;q=0.7,en-GB;q=0.6,en-US;q=0.5","true","12442","","","","instructions/instructions_words_first.html","","","","","","","","",""
"","","","","","call-function","40","188324","0.0-24.0","17","1","2023-10-31 18:56:44","a725c3012b74bf33a1020a98cb69c237","45.71.5.119","Mozilla/5.0 (Windows NT 10.0; Win64; x64) AppleWebKit/537.36 (KHTML, like Gecko) Chrome/118.0.0.0 Safari/537.36 Edg/118.0.2088.76","WebKit","Edge","118.0.2088.76","Windows","10.0","null","es-419,es;q=0.9,es-ES;q=0.8,en;q=0.7,en-GB;q=0.6,en-US;q=0.5","true","","","","","","","","","","","","","",""
"","","","","","html-keyboard-response","41","191214","0.0-25.0","17","1","2023-10-31 18:56:44","a725c3012b74bf33a1020a98cb69c237","45.71.5.119","Mozilla/5.0 (Windows NT 10.0; Win64; x64) AppleWebKit/537.36 (KHTML, like Gecko) Chrome/118.0.0.0 Safari/537.36 Edg/118.0.2088.76","WebKit","Edge","118.0.2088.76","Windows","10.0","null","es-419,es;q=0.9,es-ES;q=0.8,en;q=0.7,en-GB;q=0.6,en-US;q=0.5","true","null","<div style=""font-size:100px;"">X</div>","null","","","fixation","","","","","","","",""
"","","","","","audio-keyboard-response","42","192138","0.0-26.0","17","1","2023-10-31 18:56:44","a725c3012b74bf33a1020a98cb69c237","45.71.5.119","Mozilla/5.0 (Windows NT 10.0; Win64; x64) AppleWebKit/537.36 (KHTML, like Gecko) Chrome/118.0.0.0 Safari/537.36 Edg/118.0.2088.76","WebKit","Edge","118.0.2088.76","Windows","10.0","null","es-419,es;q=0.9,es-ES;q=0.8,en;q=0.7,en-GB;q=0.6,en-US;q=0.5","true","920","tones/880hz_short.mp3","s","","","tone_number_task","992.5","veintitres","tones/880hz_short.mp3","1142.5","60","2","0",""
"","","","","","html-keyboard-response","43","192227","0.0-27.0-0.0","17","1","2023-10-31 18:56:44","a725c3012b74bf33a1020a98cb69c237","45.71.5.119","Mozilla/5.0 (Windows NT 10.0; Win64; x64) AppleWebKit/537.36 (KHTML, like Gecko) Chrome/118.0.0.0 Safari/537.36 Edg/118.0.2088.76","WebKit","Edge","118.0.2088.76","Windows","10.0","null","es-419,es;q=0.9,es-ES;q=0.8,en;q=0.7,en-GB;q=0.6,en-US;q=0.5","true","null","","null","","","delay_block","","","","","","2","0",""
"","","","","","html-keyboard-response","44","192384","0.0-27.0-1.0","17","1","2023-10-31 18:56:44","a725c3012b74bf33a1020a98cb69c237","45.71.5.119","Mozilla/5.0 (Windows NT 10.0; Win64; x64) AppleWebKit/537.36 (KHTML, like Gecko) Chrome/118.0.0.0 Safari/537.36 Edg/118.0.2088.76","WebKit","Edge","118.0.2088.76","Windows","10.0","null","es-419,es;q=0.9,es-ES;q=0.8,en;q=0.7,en-GB;q=0.6,en-US;q=0.5","true","null","<p id=""stimulus"" style=""font-size:60px;"">veintitres</p>","null","","","tone_number_task_remaining_before_delay","","veintitres","","222.5","60","2","0",""
"","","","","","html-keyboard-response","45","193115","0.0-30.0-0.0","17","1","2023-10-31 18:56:44","a725c3012b74bf33a1020a98cb69c237","45.71.5.119","Mozilla/5.0 (Windows NT 10.0; Win64; x64) AppleWebKit/537.36 (KHTML, like Gecko) Chrome/118.0.0.0 Safari/537.36 Edg/118.0.2088.76","WebKit","Edge","118.0.2088.76","Windows","10.0","null","es-419,es;q=0.9,es-ES;q=0.8,en;q=0.7,en-GB;q=0.6,en-US;q=0.5","true","727","<p id=""stimulus"" style=""font-size:60px;"">veintitres</p>","j","","","empty_block","","veintitres","","","","2","0",""
"","","","","","html-keyboard-response","46","195995","0.0-31.0","17","1","2023-10-31 18:56:44","a725c3012b74bf33a1020a98cb69c237","45.71.5.119","Mozilla/5.0 (Windows NT 10.0; Win64; x64) AppleWebKit/537.36 (KHTML, like Gecko) Chrome/118.0.0.0 Safari/537.36 Edg/118.0.2088.76","WebKit","Edge","118.0.2088.76","Windows","10.0","null","es-419,es;q=0.9,es-ES;q=0.8,en;q=0.7,en-GB;q=0.6,en-US;q=0.5","true","null","<div style=""font-size:100px;"">X</div>","null","","","fixation","","","","","","","",""
"","","","","","audio-keyboard-response","47","196583","0.0-32.0","17","1","2023-10-31 18:56:44","a725c3012b74bf33a1020a98cb69c237","45.71.5.119","Mozilla/5.0 (Windows NT 10.0; Win64; x64) AppleWebKit/537.36 (KHTML, like Gecko) Chrome/118.0.0.0 Safari/537.36 Edg/118.0.2088.76","WebKit","Edge","118.0.2088.76","Windows","10.0","null","es-419,es;q=0.9,es-ES;q=0.8,en;q=0.7,en-GB;q=0.6,en-US;q=0.5","true","579","tones/440hz_short.mp3","a","","","tone_number_task","1025","sesenta y siete","tones/440hz_short.mp3","1175","60","2","1",""
"","","","","","html-keyboard-response","48","197036","0.0-33.0-0.0","17","1","2023-10-31 18:56:44","a725c3012b74bf33a1020a98cb69c237","45.71.5.119","Mozilla/5.0 (Windows NT 10.0; Win64; x64) AppleWebKit/537.36 (KHTML, like Gecko) Chrome/118.0.0.0 Safari/537.36 Edg/118.0.2088.76","WebKit","Edge","118.0.2088.76","Windows","10.0","null","es-419,es;q=0.9,es-ES;q=0.8,en;q=0.7,en-GB;q=0.6,en-US;q=0.5","true","null","","null","","","delay_block","","","","","","2","1",""
"","","","","","html-keyboard-response","49","197196","0.0-33.0-1.0","17","1","2023-10-31 18:56:44","a725c3012b74bf33a1020a98cb69c237","45.71.5.119","Mozilla/5.0 (Windows NT 10.0; Win64; x64) AppleWebKit/537.36 (KHTML, like Gecko) Chrome/118.0.0.0 Safari/537.36 Edg/118.0.2088.76","WebKit","Edge","118.0.2088.76","Windows","10.0","null","es-419,es;q=0.9,es-ES;q=0.8,en;q=0.7,en-GB;q=0.6,en-US;q=0.5","true","null","<p id=""stimulus"" style=""font-size:60px;"">sesenta y siete</p>","null","","","tone_number_task_remaining_before_delay","","sesenta y siete","","596","60","2","1",""
"","","","","","html-keyboard-response","50","197681","0.0-36.0-0.0","17","1","2023-10-31 18:56:44","a725c3012b74bf33a1020a98cb69c237","45.71.5.119","Mozilla/5.0 (Windows NT 10.0; Win64; x64) AppleWebKit/537.36 (KHTML, like Gecko) Chrome/118.0.0.0 Safari/537.36 Edg/118.0.2088.76","WebKit","Edge","118.0.2088.76","Windows","10.0","null","es-419,es;q=0.9,es-ES;q=0.8,en;q=0.7,en-GB;q=0.6,en-US;q=0.5","true","481","<p id=""stimulus"" style=""font-size:60px;"">sesenta y siete</p>","k","","","empty_block","","sesenta y siete","","","","2","1",""
"","","","","","html-keyboard-response","51","200568","0.0-37.0","17","1","2023-10-31 18:56:44","a725c3012b74bf33a1020a98cb69c237","45.71.5.119","Mozilla/5.0 (Windows NT 10.0; Win64; x64) AppleWebKit/537.36 (KHTML, like Gecko) Chrome/118.0.0.0 Safari/537.36 Edg/118.0.2088.76","WebKit","Edge","118.0.2088.76","Windows","10.0","null","es-419,es;q=0.9,es-ES;q=0.8,en;q=0.7,en-GB;q=0.6,en-US;q=0.5","true","null","<div style=""font-size:100px;"">X</div>","null","","","fixation","","","","","","","",""
"","","","","","audio-keyboard-response","52","201080","0.0-38.0","17","1","2023-10-31 18:56:44","a725c3012b74bf33a1020a98cb69c237","45.71.5.119","Mozilla/5.0 (Windows NT 10.0; Win64; x64) AppleWebKit/537.36 (KHTML, like Gecko) Chrome/118.0.0.0 Safari/537.36 Edg/118.0.2088.76","WebKit","Edge","118.0.2088.76","Windows","10.0","null","es-419,es;q=0.9,es-ES;q=0.8,en;q=0.7,en-GB;q=0.6,en-US;q=0.5","true","512","tones/880hz_short.mp3","s","","","tone_number_task","992.5","veintisiete","tones/880hz_short.mp3","1142.5","60","2","2",""
"","","","","","html-keyboard-response","53","201574","0.0-39.0-0.0","17","1","2023-10-31 18:56:44","a725c3012b74bf33a1020a98cb69c237","45.71.5.119","Mozilla/5.0 (Windows NT 10.0; Win64; x64) AppleWebKit/537.36 (KHTML, like Gecko) Chrome/118.0.0.0 Safari/537.36 Edg/118.0.2088.76","WebKit","Edge","118.0.2088.76","Windows","10.0","null","es-419,es;q=0.9,es-ES;q=0.8,en;q=0.7,en-GB;q=0.6,en-US;q=0.5","true","null","","null","","","delay_block","","","","","","2","2",""
"","","","","","html-keyboard-response","54","201730","0.0-39.0-1.0","17","1","2023-10-31 18:56:44","a725c3012b74bf33a1020a98cb69c237","45.71.5.119","Mozilla/5.0 (Windows NT 10.0; Win64; x64) AppleWebKit/537.36 (KHTML, like Gecko) Chrome/118.0.0.0 Safari/537.36 Edg/118.0.2088.76","WebKit","Edge","118.0.2088.76","Windows","10.0","null","es-419,es;q=0.9,es-ES;q=0.8,en;q=0.7,en-GB;q=0.6,en-US;q=0.5","true","null","<p id=""stimulus"" style=""font-size:60px;"">veintisiete</p>","null","","","tone_number_task_remaining_before_delay","","veintisiete","","630.5","60","2","2",""
"","","","","","html-keyboard-response","55","202375","0.0-42.0-0.0","17","1","2023-10-31 18:56:44","a725c3012b74bf33a1020a98cb69c237","45.71.5.119","Mozilla/5.0 (Windows NT 10.0; Win64; x64) AppleWebKit/537.36 (KHTML, like Gecko) Chrome/118.0.0.0 Safari/537.36 Edg/118.0.2088.76","WebKit","Edge","118.0.2088.76","Windows","10.0","null","es-419,es;q=0.9,es-ES;q=0.8,en;q=0.7,en-GB;q=0.6,en-US;q=0.5","true","639","<p id=""stimulus"" style=""font-size:60px;"">veintisiete</p>","j","","","empty_block","","veintisiete","","","","2","2",""
"","","","","","html-keyboard-response","56","205254","0.0-43.0","17","1","2023-10-31 18:56:44","a725c3012b74bf33a1020a98cb69c237","45.71.5.119","Mozilla/5.0 (Windows NT 10.0; Win64; x64) AppleWebKit/537.36 (KHTML, like Gecko) Chrome/118.0.0.0 Safari/537.36 Edg/118.0.2088.76","WebKit","Edge","118.0.2088.76","Windows","10.0","null","es-419,es;q=0.9,es-ES;q=0.8,en;q=0.7,en-GB;q=0.6,en-US;q=0.5","true","null","<div style=""font-size:100px;"">X</div>","null","","","fixation","","","","","","","",""
"","","","","","audio-keyboard-response","57","206108","0.0-44.0","17","1","2023-10-31 18:56:44","a725c3012b74bf33a1020a98cb69c237","45.71.5.119","Mozilla/5.0 (Windows NT 10.0; Win64; x64) AppleWebKit/537.36 (KHTML, like Gecko) Chrome/118.0.0.0 Safari/537.36 Edg/118.0.2088.76","WebKit","Edge","118.0.2088.76","Windows","10.0","null","es-419,es;q=0.9,es-ES;q=0.8,en;q=0.7,en-GB;q=0.6,en-US;q=0.5","true","840","tones/440hz_short.mp3","a","","","tone_number_task","1025","treinta y tres","tones/440hz_short.mp3","1175","60","2","3",""
"","","","","","html-keyboard-response","58","206299","0.0-45.0-0.0","17","1","2023-10-31 18:56:44","a725c3012b74bf33a1020a98cb69c237","45.71.5.119","Mozilla/5.0 (Windows NT 10.0; Win64; x64) AppleWebKit/537.36 (KHTML, like Gecko) Chrome/118.0.0.0 Safari/537.36 Edg/118.0.2088.76","WebKit","Edge","118.0.2088.76","Windows","10.0","null","es-419,es;q=0.9,es-ES;q=0.8,en;q=0.7,en-GB;q=0.6,en-US;q=0.5","true","null","","null","","","delay_block","","","","","","2","3",""
"","","","","","html-keyboard-response","59","206456","0.0-45.0-1.0","17","1","2023-10-31 18:56:44","a725c3012b74bf33a1020a98cb69c237","45.71.5.119","Mozilla/5.0 (Windows NT 10.0; Win64; x64) AppleWebKit/537.36 (KHTML, like Gecko) Chrome/118.0.0.0 Safari/537.36 Edg/118.0.2088.76","WebKit","Edge","118.0.2088.76","Windows","10.0","null","es-419,es;q=0.9,es-ES;q=0.8,en;q=0.7,en-GB;q=0.6,en-US;q=0.5","true","null","<p id=""stimulus"" style=""font-size:60px;"">treinta y tres</p>","null","","","tone_number_task_remaining_before_delay","","treinta y tres","","335","60","2","3",""
"","","","","","html-keyboard-response","60","207162","0.0-48.0-0.0","17","1","2023-10-31 18:56:44","a725c3012b74bf33a1020a98cb69c237","45.71.5.119","Mozilla/5.0 (Windows NT 10.0; Win64; x64) AppleWebKit/537.36 (KHTML, like Gecko) Chrome/118.0.0.0 Safari/537.36 Edg/118.0.2088.76","WebKit","Edge","118.0.2088.76","Windows","10.0","null","es-419,es;q=0.9,es-ES;q=0.8,en;q=0.7,en-GB;q=0.6,en-US;q=0.5","true","701","<p id=""stimulus"" style=""font-size:60px;"">treinta y tres</p>","j","","","empty_block","","treinta y tres","","","","2","3",""
"","","","","","html-keyboard-response","61","210042","0.0-49.0","17","1","2023-10-31 18:56:44","a725c3012b74bf33a1020a98cb69c237","45.71.5.119","Mozilla/5.0 (Windows NT 10.0; Win64; x64) AppleWebKit/537.36 (KHTML, like Gecko) Chrome/118.0.0.0 Safari/537.36 Edg/118.0.2088.76","WebKit","Edge","118.0.2088.76","Windows","10.0","null","es-419,es;q=0.9,es-ES;q=0.8,en;q=0.7,en-GB;q=0.6,en-US;q=0.5","true","null","<div style=""font-size:100px;"">X</div>","null","","","fixation","","","","","","","",""
"","","","","","audio-keyboard-response","62","210627","0.0-50.0","17","1","2023-10-31 18:56:44","a725c3012b74bf33a1020a98cb69c237","45.71.5.119","Mozilla/5.0 (Windows NT 10.0; Win64; x64) AppleWebKit/537.36 (KHTML, like Gecko) Chrome/118.0.0.0 Safari/537.36 Edg/118.0.2088.76","WebKit","Edge","118.0.2088.76","Windows","10.0","null","es-419,es;q=0.9,es-ES;q=0.8,en;q=0.7,en-GB;q=0.6,en-US;q=0.5","true","579","tones/440hz_short.mp3","a","","","tone_number_task","992.5","sesenta y nueve","tones/440hz_short.mp3","1142.5","60","2","4",""
"","","","","","html-keyboard-response","63","211050","0.0-51.0-0.0","17","1","2023-10-31 18:56:44","a725c3012b74bf33a1020a98cb69c237","45.71.5.119","Mozilla/5.0 (Windows NT 10.0; Win64; x64) AppleWebKit/537.36 (KHTML, like Gecko) Chrome/118.0.0.0 Safari/537.36 Edg/118.0.2088.76","WebKit","Edge","118.0.2088.76","Windows","10.0","null","es-419,es;q=0.9,es-ES;q=0.8,en;q=0.7,en-GB;q=0.6,en-US;q=0.5","true","null","","null","","","delay_block","","","","","","2","4",""
"","","","","","html-keyboard-response","64","211211","0.0-51.0-1.0","17","1","2023-10-31 18:56:44","a725c3012b74bf33a1020a98cb69c237","45.71.5.119","Mozilla/5.0 (Windows NT 10.0; Win64; x64) AppleWebKit/537.36 (KHTML, like Gecko) Chrome/118.0.0.0 Safari/537.36 Edg/118.0.2088.76","WebKit","Edge","118.0.2088.76","Windows","10.0","null","es-419,es;q=0.9,es-ES;q=0.8,en;q=0.7,en-GB;q=0.6,en-US;q=0.5","true","null","<p id=""stimulus"" style=""font-size:60px;"">sesenta y nueve</p>","null","","","tone_number_task_remaining_before_delay","","sesenta y nueve","","563.5","60","2","4",""
"","","","","","html-keyboard-response","65","211626","0.0-54.0-0.0","17","1","2023-10-31 18:56:44","a725c3012b74bf33a1020a98cb69c237","45.71.5.119","Mozilla/5.0 (Windows NT 10.0; Win64; x64) AppleWebKit/537.36 (KHTML, like Gecko) Chrome/118.0.0.0 Safari/537.36 Edg/118.0.2088.76","WebKit","Edge","118.0.2088.76","Windows","10.0","null","es-419,es;q=0.9,es-ES;q=0.8,en;q=0.7,en-GB;q=0.6,en-US;q=0.5","true","410","<p id=""stimulus"" style=""font-size:60px;"">sesenta y nueve</p>","k","","","empty_block","","sesenta y nueve","","","","2","4",""
"","","","","","html-keyboard-response","66","214505","0.0-55.0","17","1","2023-10-31 18:56:44","a725c3012b74bf33a1020a98cb69c237","45.71.5.119","Mozilla/5.0 (Windows NT 10.0; Win64; x64) AppleWebKit/537.36 (KHTML, like Gecko) Chrome/118.0.0.0 Safari/537.36 Edg/118.0.2088.76","WebKit","Edge","118.0.2088.76","Windows","10.0","null","es-419,es;q=0.9,es-ES;q=0.8,en;q=0.7,en-GB;q=0.6,en-US;q=0.5","true","null","<div style=""font-size:100px;"">X</div>","null","","","fixation","","","","","","","",""
"","","","","","audio-keyboard-response","67","214664","0.0-56.0","17","1","2023-10-31 18:56:44","a725c3012b74bf33a1020a98cb69c237","45.71.5.119","Mozilla/5.0 (Windows NT 10.0; Win64; x64) AppleWebKit/537.36 (KHTML, like Gecko) Chrome/118.0.0.0 Safari/537.36 Edg/118.0.2088.76","WebKit","Edge","118.0.2088.76","Windows","10.0","null","es-419,es;q=0.9,es-ES;q=0.8,en;q=0.7,en-GB;q=0.6,en-US;q=0.5","true","null","tones/880hz_short.mp3","null","","","tone_number_task","0","cincuenta","tones/880hz_short.mp3","150","60","2","5",""
"","","","","","html-keyboard-response","68","215884","0.0-59.0-0.0","17","1","2023-10-31 18:56:44","a725c3012b74bf33a1020a98cb69c237","45.71.5.119","Mozilla/5.0 (Windows NT 10.0; Win64; x64) AppleWebKit/537.36 (KHTML, like Gecko) Chrome/118.0.0.0 Safari/537.36 Edg/118.0.2088.76","WebKit","Edge","118.0.2088.76","Windows","10.0","null","es-419,es;q=0.9,es-ES;q=0.8,en;q=0.7,en-GB;q=0.6,en-US;q=0.5","true","null","tones/880hz_short.mp3","null","","","empty_block","","cincuenta","","","","2","5",""
"","","","","","html-keyboard-response","69","216218","0.0-59.0-1.0","17","1","2023-10-31 18:56:44","a725c3012b74bf33a1020a98cb69c237","45.71.5.119","Mozilla/5.0 (Windows NT 10.0; Win64; x64) AppleWebKit/537.36 (KHTML, like Gecko) Chrome/118.0.0.0 Safari/537.36 Edg/118.0.2088.76","WebKit","Edge","118.0.2088.76","Windows","10.0","null","es-419,es;q=0.9,es-ES;q=0.8,en;q=0.7,en-GB;q=0.6,en-US;q=0.5","true","328","tones/880hz_short.mp3","s","","","empty_block","","cincuenta","","","","2","5",""
"","","","","","html-keyboard-response","70","219096","0.0-61.0","17","1","2023-10-31 18:56:44","a725c3012b74bf33a1020a98cb69c237","45.71.5.119","Mozilla/5.0 (Windows NT 10.0; Win64; x64) AppleWebKit/537.36 (KHTML, like Gecko) Chrome/118.0.0.0 Safari/537.36 Edg/118.0.2088.76","WebKit","Edge","118.0.2088.76","Windows","10.0","null","es-419,es;q=0.9,es-ES;q=0.8,en;q=0.7,en-GB;q=0.6,en-US;q=0.5","true","null","<div style=""font-size:100px;"">X</div>","null","","","fixation","","","","","","","",""
"","","","","","audio-keyboard-response","71","219636","0.0-62.0","17","1","2023-10-31 18:56:44","a725c3012b74bf33a1020a98cb69c237","45.71.5.119","Mozilla/5.0 (Windows NT 10.0; Win64; x64) AppleWebKit/537.36 (KHTML, like Gecko) Chrome/118.0.0.0 Safari/537.36 Edg/118.0.2088.76","WebKit","Edge","118.0.2088.76","Windows","10.0","null","es-419,es;q=0.9,es-ES;q=0.8,en;q=0.7,en-GB;q=0.6,en-US;q=0.5","true","531","tones/440hz_short.mp3","a","","","tone_number_task","992.5","veintinueve","tones/440hz_short.mp3","1142.5","60","2","6",""
"","","","","","html-keyboard-response","72","220105","0.0-63.0-0.0","17","1","2023-10-31 18:56:44","a725c3012b74bf33a1020a98cb69c237","45.71.5.119","Mozilla/5.0 (Windows NT 10.0; Win64; x64) AppleWebKit/537.36 (KHTML, like Gecko) Chrome/118.0.0.0 Safari/537.36 Edg/118.0.2088.76","WebKit","Edge","118.0.2088.76","Windows","10.0","null","es-419,es;q=0.9,es-ES;q=0.8,en;q=0.7,en-GB;q=0.6,en-US;q=0.5","true","null","","null","","","delay_block","","","","","","2","6",""
"","","","","","html-keyboard-response","73","220264","0.0-63.0-1.0","17","1","2023-10-31 18:56:44","a725c3012b74bf33a1020a98cb69c237","45.71.5.119","Mozilla/5.0 (Windows NT 10.0; Win64; x64) AppleWebKit/537.36 (KHTML, like Gecko) Chrome/118.0.0.0 Safari/537.36 Edg/118.0.2088.76","WebKit","Edge","118.0.2088.76","Windows","10.0","null","es-419,es;q=0.9,es-ES;q=0.8,en;q=0.7,en-GB;q=0.6,en-US;q=0.5","true","null","<p id=""stimulus"" style=""font-size:60px;"">veintinueve</p>","null","","","tone_number_task_remaining_before_delay","","veintinueve","","611.5","60","2","6",""
"","","","","","html-keyboard-response","74","220814","0.0-66.0-0.0","17","1","2023-10-31 18:56:44","a725c3012b74bf33a1020a98cb69c237","45.71.5.119","Mozilla/5.0 (Windows NT 10.0; Win64; x64) AppleWebKit/537.36 (KHTML, like Gecko) Chrome/118.0.0.0 Safari/537.36 Edg/118.0.2088.76","WebKit","Edge","118.0.2088.76","Windows","10.0","null","es-419,es;q=0.9,es-ES;q=0.8,en;q=0.7,en-GB;q=0.6,en-US;q=0.5","true","544","<p id=""stimulus"" style=""font-size:60px;"">veintinueve</p>","j","","","empty_block","","veintinueve","","","","2","6",""
"","","","","","html-keyboard-response","75","223693","0.0-67.0","17","1","2023-10-31 18:56:44","a725c3012b74bf33a1020a98cb69c237","45.71.5.119","Mozilla/5.0 (Windows NT 10.0; Win64; x64) AppleWebKit/537.36 (KHTML, like Gecko) Chrome/118.0.0.0 Safari/537.36 Edg/118.0.2088.76","WebKit","Edge","118.0.2088.76","Windows","10.0","null","es-419,es;q=0.9,es-ES;q=0.8,en;q=0.7,en-GB;q=0.6,en-US;q=0.5","true","null","<div style=""font-size:100px;"">X</div>","null","","","fixation","","","","","","","",""
"","","","","","audio-keyboard-response","76","223953","0.0-68.0","17","1","2023-10-31 18:56:44","a725c3012b74bf33a1020a98cb69c237","45.71.5.119","Mozilla/5.0 (Windows NT 10.0; Win64; x64) AppleWebKit/537.36 (KHTML, like Gecko) Chrome/118.0.0.0 Safari/537.36 Edg/118.0.2088.76","WebKit","Edge","118.0.2088.76","Windows","10.0","null","es-419,es;q=0.9,es-ES;q=0.8,en;q=0.7,en-GB;q=0.6,en-US;q=0.5","true","null","tones/440hz_short.mp3","null","","","tone_number_task","102.5","sesenta y cuatro","tones/440hz_short.mp3","252.5","60","2","7",""
"","","","","","html-keyboard-response","77","224641","0.0-71.0-0.0","17","1","2023-10-31 18:56:44","a725c3012b74bf33a1020a98cb69c237","45.71.5.119","Mozilla/5.0 (Windows NT 10.0; Win64; x64) AppleWebKit/537.36 (KHTML, like Gecko) Chrome/118.0.0.0 Safari/537.36 Edg/118.0.2088.76","WebKit","Edge","118.0.2088.76","Windows","10.0","null","es-419,es;q=0.9,es-ES;q=0.8,en;q=0.7,en-GB;q=0.6,en-US;q=0.5","true","682","tones/440hz_short.mp3","a","","","empty_block","","sesenta y cuatro","","","","2","7",""
"","","","","","html-keyboard-response","78","225043","0.0-71.0-1.0","17","1","2023-10-31 18:56:44","a725c3012b74bf33a1020a98cb69c237","45.71.5.119","Mozilla/5.0 (Windows NT 10.0; Win64; x64) AppleWebKit/537.36 (KHTML, like Gecko) Chrome/118.0.0.0 Safari/537.36 Edg/118.0.2088.76","WebKit","Edge","118.0.2088.76","Windows","10.0","null","es-419,es;q=0.9,es-ES;q=0.8,en;q=0.7,en-GB;q=0.6,en-US;q=0.5","true","396","tones/440hz_short.mp3","k","","","empty_block","","sesenta y cuatro","","","","2","7",""
"","","","","","html-keyboard-response","79","227924","0.0-73.0","17","1","2023-10-31 18:56:44","a725c3012b74bf33a1020a98cb69c237","45.71.5.119","Mozilla/5.0 (Windows NT 10.0; Win64; x64) AppleWebKit/537.36 (KHTML, like Gecko) Chrome/118.0.0.0 Safari/537.36 Edg/118.0.2088.76","WebKit","Edge","118.0.2088.76","Windows","10.0","null","es-419,es;q=0.9,es-ES;q=0.8,en;q=0.7,en-GB;q=0.6,en-US;q=0.5","true","null","<div style=""font-size:100px;"">X</div>","null","","","fixation","","","","","","","",""
"","","","","","audio-keyboard-response","80","228542","0.0-74.0","17","1","2023-10-31 18:56:44","a725c3012b74bf33a1020a98cb69c237","45.71.5.119","Mozilla/5.0 (Windows NT 10.0; Win64; x64) AppleWebKit/537.36 (KHTML, like Gecko) Chrome/118.0.0.0 Safari/537.36 Edg/118.0.2088.76","WebKit","Edge","118.0.2088.76","Windows","10.0","null","es-419,es;q=0.9,es-ES;q=0.8,en;q=0.7,en-GB;q=0.6,en-US;q=0.5","true","611","tones/440hz_short.mp3","a","","","tone_number_task","992.5","treinta y seis","tones/440hz_short.mp3","1142.5","60","2","8",""
"","","","","","html-keyboard-response","81","228944","0.0-75.0-0.0","17","1","2023-10-31 18:56:44","a725c3012b74bf33a1020a98cb69c237","45.71.5.119","Mozilla/5.0 (Windows NT 10.0; Win64; x64) AppleWebKit/537.36 (KHTML, like Gecko) Chrome/118.0.0.0 Safari/537.36 Edg/118.0.2088.76","WebKit","Edge","118.0.2088.76","Windows","10.0","null","es-419,es;q=0.9,es-ES;q=0.8,en;q=0.7,en-GB;q=0.6,en-US;q=0.5","true","null","","null","","","delay_block","","","","","","2","8",""
"","","","","","html-keyboard-response","82","229104","0.0-75.0-1.0","17","1","2023-10-31 18:56:44","a725c3012b74bf33a1020a98cb69c237","45.71.5.119","Mozilla/5.0 (Windows NT 10.0; Win64; x64) AppleWebKit/537.36 (KHTML, like Gecko) Chrome/118.0.0.0 Safari/537.36 Edg/118.0.2088.76","WebKit","Edge","118.0.2088.76","Windows","10.0","null","es-419,es;q=0.9,es-ES;q=0.8,en;q=0.7,en-GB;q=0.6,en-US;q=0.5","true","null","<p id=""stimulus"" style=""font-size:60px;"">treinta y seis</p>","null","","","tone_number_task_remaining_before_delay","","treinta y seis","","531.5","60","2","8",""
"","","","","","html-keyboard-response","83","229589","0.0-78.0-0.0","17","1","2023-10-31 18:56:44","a725c3012b74bf33a1020a98cb69c237","45.71.5.119","Mozilla/5.0 (Windows NT 10.0; Win64; x64) AppleWebKit/537.36 (KHTML, like Gecko) Chrome/118.0.0.0 Safari/537.36 Edg/118.0.2088.76","WebKit","Edge","118.0.2088.76","Windows","10.0","null","es-419,es;q=0.9,es-ES;q=0.8,en;q=0.7,en-GB;q=0.6,en-US;q=0.5","true","477","<p id=""stimulus"" style=""font-size:60px;"">treinta y seis</p>","j","","","empty_block","","treinta y seis","","","","2","8",""
"","","","","","html-keyboard-response","84","232468","0.0-79.0","17","1","2023-10-31 18:56:44","a725c3012b74bf33a1020a98cb69c237","45.71.5.119","Mozilla/5.0 (Windows NT 10.0; Win64; x64) AppleWebKit/537.36 (KHTML, like Gecko) Chrome/118.0.0.0 Safari/537.36 Edg/118.0.2088.76","WebKit","Edge","118.0.2088.76","Windows","10.0","null","es-419,es;q=0.9,es-ES;q=0.8,en;q=0.7,en-GB;q=0.6,en-US;q=0.5","true","null","<div style=""font-size:100px;"">X</div>","null","","","fixation","","","","","","","",""
"","","","","","audio-keyboard-response","85","232727","0.0-80.0","17","1","2023-10-31 18:56:44","a725c3012b74bf33a1020a98cb69c237","45.71.5.119","Mozilla/5.0 (Windows NT 10.0; Win64; x64) AppleWebKit/537.36 (KHTML, like Gecko) Chrome/118.0.0.0 Safari/537.36 Edg/118.0.2088.76","WebKit","Edge","118.0.2088.76","Windows","10.0","null","es-419,es;q=0.9,es-ES;q=0.8,en;q=0.7,en-GB;q=0.6,en-US;q=0.5","true","null","tones/440hz_short.mp3","null","","","tone_number_task","102.5","cuarenta","tones/440hz_short.mp3","252.5","60","2","9",""
"","","","","","html-keyboard-response","86","233261","0.0-83.0-0.0","17","1","2023-10-31 18:56:44","a725c3012b74bf33a1020a98cb69c237","45.71.5.119","Mozilla/5.0 (Windows NT 10.0; Win64; x64) AppleWebKit/537.36 (KHTML, like Gecko) Chrome/118.0.0.0 Safari/537.36 Edg/118.0.2088.76","WebKit","Edge","118.0.2088.76","Windows","10.0","null","es-419,es;q=0.9,es-ES;q=0.8,en;q=0.7,en-GB;q=0.6,en-US;q=0.5","true","526","tones/440hz_short.mp3","a","","","empty_block","","cuarenta","","","","2","9",""
"","","","","","html-keyboard-response","87","233790","0.0-83.0-1.0","17","1","2023-10-31 18:56:44","a725c3012b74bf33a1020a98cb69c237","45.71.5.119","Mozilla/5.0 (Windows NT 10.0; Win64; x64) AppleWebKit/537.36 (KHTML, like Gecko) Chrome/118.0.0.0 Safari/537.36 Edg/118.0.2088.76","WebKit","Edge","118.0.2088.76","Windows","10.0","null","es-419,es;q=0.9,es-ES;q=0.8,en;q=0.7,en-GB;q=0.6,en-US;q=0.5","true","523","tones/440hz_short.mp3","j","","","empty_block","","cuarenta","","","","2","9",""
"","","","","","html-keyboard-response","88","236668","0.0-85.0","17","1","2023-10-31 18:56:44","a725c3012b74bf33a1020a98cb69c237","45.71.5.119","Mozilla/5.0 (Windows NT 10.0; Win64; x64) AppleWebKit/537.36 (KHTML, like Gecko) Chrome/118.0.0.0 Safari/537.36 Edg/118.0.2088.76","WebKit","Edge","118.0.2088.76","Windows","10.0","null","es-419,es;q=0.9,es-ES;q=0.8,en;q=0.7,en-GB;q=0.6,en-US;q=0.5","true","null","<div style=""font-size:100px;"">X</div>","null","","","fixation","","","","","","","",""
"","","","","","audio-keyboard-response","89","236929","0.0-86.0","17","1","2023-10-31 18:56:44","a725c3012b74bf33a1020a98cb69c237","45.71.5.119","Mozilla/5.0 (Windows NT 10.0; Win64; x64) AppleWebKit/537.36 (KHTML, like Gecko) Chrome/118.0.0.0 Safari/537.36 Edg/118.0.2088.76","WebKit","Edge","118.0.2088.76","Windows","10.0","null","es-419,es;q=0.9,es-ES;q=0.8,en;q=0.7,en-GB;q=0.6,en-US;q=0.5","true","null","tones/440hz_short.mp3","null","","","tone_number_task","102.5","cincuenta y uno","tones/440hz_short.mp3","252.5","60","2","10",""
"","","","","","html-keyboard-response","90","237213","0.0-89.0-0.0","17","1","2023-10-31 18:56:44","a725c3012b74bf33a1020a98cb69c237","45.71.5.119","Mozilla/5.0 (Windows NT 10.0; Win64; x64) AppleWebKit/537.36 (KHTML, like Gecko) Chrome/118.0.0.0 Safari/537.36 Edg/118.0.2088.76","WebKit","Edge","118.0.2088.76","Windows","10.0","null","es-419,es;q=0.9,es-ES;q=0.8,en;q=0.7,en-GB;q=0.6,en-US;q=0.5","true","277","tones/440hz_short.mp3","a","","","empty_block","","cincuenta y uno","","","","2","10",""
"","","","","","html-keyboard-response","91","237834","0.0-89.0-1.0","17","1","2023-10-31 18:56:44","a725c3012b74bf33a1020a98cb69c237","45.71.5.119","Mozilla/5.0 (Windows NT 10.0; Win64; x64) AppleWebKit/537.36 (KHTML, like Gecko) Chrome/118.0.0.0 Safari/537.36 Edg/118.0.2088.76","WebKit","Edge","118.0.2088.76","Windows","10.0","null","es-419,es;q=0.9,es-ES;q=0.8,en;q=0.7,en-GB;q=0.6,en-US;q=0.5","true","613","tones/440hz_short.mp3","k","","","empty_block","","cincuenta y uno","","","","2","10",""
"","","","","","html-keyboard-response","92","240714","0.0-91.0","17","1","2023-10-31 18:56:44","a725c3012b74bf33a1020a98cb69c237","45.71.5.119","Mozilla/5.0 (Windows NT 10.0; Win64; x64) AppleWebKit/537.36 (KHTML, like Gecko) Chrome/118.0.0.0 Safari/537.36 Edg/118.0.2088.76","WebKit","Edge","118.0.2088.76","Windows","10.0","null","es-419,es;q=0.9,es-ES;q=0.8,en;q=0.7,en-GB;q=0.6,en-US;q=0.5","true","null","<div style=""font-size:100px;"">X</div>","null","","","fixation","","","","","","","",""
"","","","","","audio-keyboard-response","93","240876","0.0-92.0","17","1","2023-10-31 18:56:44","a725c3012b74bf33a1020a98cb69c237","45.71.5.119","Mozilla/5.0 (Windows NT 10.0; Win64; x64) AppleWebKit/537.36 (KHTML, like Gecko) Chrome/118.0.0.0 Safari/537.36 Edg/118.0.2088.76","WebKit","Edge","118.0.2088.76","Windows","10.0","null","es-419,es;q=0.9,es-ES;q=0.8,en;q=0.7,en-GB;q=0.6,en-US;q=0.5","true","null","tones/440hz_short.mp3","null","","","tone_number_task","0","cuarenta y uno","tones/440hz_short.mp3","150","60","2","11",""
"","","","","","html-keyboard-response","94","241129","0.0-95.0-0.0","17","1","2023-10-31 18:56:44","a725c3012b74bf33a1020a98cb69c237","45.71.5.119","Mozilla/5.0 (Windows NT 10.0; Win64; x64) AppleWebKit/537.36 (KHTML, like Gecko) Chrome/118.0.0.0 Safari/537.36 Edg/118.0.2088.76","WebKit","Edge","118.0.2088.76","Windows","10.0","null","es-419,es;q=0.9,es-ES;q=0.8,en;q=0.7,en-GB;q=0.6,en-US;q=0.5","true","246","tones/440hz_short.mp3","a","","","empty_block","","cuarenta y uno","","","","2","11",""
"","","","","","html-keyboard-response","95","241757","0.0-95.0-1.0","17","1","2023-10-31 18:56:44","a725c3012b74bf33a1020a98cb69c237","45.71.5.119","Mozilla/5.0 (Windows NT 10.0; Win64; x64) AppleWebKit/537.36 (KHTML, like Gecko) Chrome/118.0.0.0 Safari/537.36 Edg/118.0.2088.76","WebKit","Edge","118.0.2088.76","Windows","10.0","null","es-419,es;q=0.9,es-ES;q=0.8,en;q=0.7,en-GB;q=0.6,en-US;q=0.5","true","621","tones/440hz_short.mp3","j","","","empty_block","","cuarenta y uno","","","","2","11",""
"","","","","","html-keyboard-response","96","244641","0.0-97.0","17","1","2023-10-31 18:56:44","a725c3012b74bf33a1020a98cb69c237","45.71.5.119","Mozilla/5.0 (Windows NT 10.0; Win64; x64) AppleWebKit/537.36 (KHTML, like Gecko) Chrome/118.0.0.0 Safari/537.36 Edg/118.0.2088.76","WebKit","Edge","118.0.2088.76","Windows","10.0","null","es-419,es;q=0.9,es-ES;q=0.8,en;q=0.7,en-GB;q=0.6,en-US;q=0.5","true","null","<div style=""font-size:100px;"">X</div>","null","","","fixation","","","","","","","",""
"","","","","","audio-keyboard-response","97","244904","0.0-98.0","17","1","2023-10-31 18:56:44","a725c3012b74bf33a1020a98cb69c237","45.71.5.119","Mozilla/5.0 (Windows NT 10.0; Win64; x64) AppleWebKit/537.36 (KHTML, like Gecko) Chrome/118.0.0.0 Safari/537.36 Edg/118.0.2088.76","WebKit","Edge","118.0.2088.76","Windows","10.0","null","es-419,es;q=0.9,es-ES;q=0.8,en;q=0.7,en-GB;q=0.6,en-US;q=0.5","true","null","tones/880hz_short.mp3","null","","","tone_number_task","102.5","treinta y seis","tones/880hz_short.mp3","252.5","60","2","12",""
"","","","","","html-keyboard-response","98","245115","0.0-101.0-0.0","17","1","2023-10-31 18:56:44","a725c3012b74bf33a1020a98cb69c237","45.71.5.119","Mozilla/5.0 (Windows NT 10.0; Win64; x64) AppleWebKit/537.36 (KHTML, like Gecko) Chrome/118.0.0.0 Safari/537.36 Edg/118.0.2088.76","WebKit","Edge","118.0.2088.76","Windows","10.0","null","es-419,es;q=0.9,es-ES;q=0.8,en;q=0.7,en-GB;q=0.6,en-US;q=0.5","true","204","tones/880hz_short.mp3","s","","","empty_block","","treinta y seis","","","","2","12",""
"","","","","","html-keyboard-response","99","245397","0.0-101.0-1.0","17","1","2023-10-31 18:56:44","a725c3012b74bf33a1020a98cb69c237","45.71.5.119","Mozilla/5.0 (Windows NT 10.0; Win64; x64) AppleWebKit/537.36 (KHTML, like Gecko) Chrome/118.0.0.0 Safari/537.36 Edg/118.0.2088.76","WebKit","Edge","118.0.2088.76","Windows","10.0","null","es-419,es;q=0.9,es-ES;q=0.8,en;q=0.7,en-GB;q=0.6,en-US;q=0.5","true","274","tones/880hz_short.mp3","j","","","empty_block","","treinta y seis","","","","2","12",""
"","","","","","html-keyboard-response","100","248275","0.0-103.0","17","1","2023-10-31 18:56:44","a725c3012b74bf33a1020a98cb69c237","45.71.5.119","Mozilla/5.0 (Windows NT 10.0; Win64; x64) AppleWebKit/537.36 (KHTML, like Gecko) Chrome/118.0.0.0 Safari/537.36 Edg/118.0.2088.76","WebKit","Edge","118.0.2088.76","Windows","10.0","null","es-419,es;q=0.9,es-ES;q=0.8,en;q=0.7,en-GB;q=0.6,en-US;q=0.5","true","null","<div style=""font-size:100px;"">X</div>","null","","","fixation","","","","","","","",""
"","","","","","audio-keyboard-response","101","248905","0.0-104.0","17","1","2023-10-31 18:56:44","a725c3012b74bf33a1020a98cb69c237","45.71.5.119","Mozilla/5.0 (Windows NT 10.0; Win64; x64) AppleWebKit/537.36 (KHTML, like Gecko) Chrome/118.0.0.0 Safari/537.36 Edg/118.0.2088.76","WebKit","Edge","118.0.2088.76","Windows","10.0","null","es-419,es;q=0.9,es-ES;q=0.8,en;q=0.7,en-GB;q=0.6,en-US;q=0.5","true","619","tones/440hz_short.mp3","a","","","tone_number_task","992.5","veinticuatro","tones/440hz_short.mp3","1142.5","60","2","13",""
"","","","","","html-keyboard-response","102","249290","0.0-105.0-0.0","17","1","2023-10-31 18:56:44","a725c3012b74bf33a1020a98cb69c237","45.71.5.119","Mozilla/5.0 (Windows NT 10.0; Win64; x64) AppleWebKit/537.36 (KHTML, like Gecko) Chrome/118.0.0.0 Safari/537.36 Edg/118.0.2088.76","WebKit","Edge","118.0.2088.76","Windows","10.0","null","es-419,es;q=0.9,es-ES;q=0.8,en;q=0.7,en-GB;q=0.6,en-US;q=0.5","true","null","","null","","","delay_block","","","","","","2","13",""
"","","","","","html-keyboard-response","103","249450","0.0-105.0-1.0","17","1","2023-10-31 18:56:44","a725c3012b74bf33a1020a98cb69c237","45.71.5.119","Mozilla/5.0 (Windows NT 10.0; Win64; x64) AppleWebKit/537.36 (KHTML, like Gecko) Chrome/118.0.0.0 Safari/537.36 Edg/118.0.2088.76","WebKit","Edge","118.0.2088.76","Windows","10.0","null","es-419,es;q=0.9,es-ES;q=0.8,en;q=0.7,en-GB;q=0.6,en-US;q=0.5","true","null","<p id=""stimulus"" style=""font-size:60px;"">veinticuatro</p>","null","","","tone_number_task_remaining_before_delay","","veinticuatro","","523.5","60","2","13",""
"","","","","","html-keyboard-response","104","249958","0.0-108.0-0.0","17","1","2023-10-31 18:56:44","a725c3012b74bf33a1020a98cb69c237","45.71.5.119","Mozilla/5.0 (Windows NT 10.0; Win64; x64) AppleWebKit/537.36 (KHTML, like Gecko) Chrome/118.0.0.0 Safari/537.36 Edg/118.0.2088.76","WebKit","Edge","118.0.2088.76","Windows","10.0","null","es-419,es;q=0.9,es-ES;q=0.8,en;q=0.7,en-GB;q=0.6,en-US;q=0.5","true","501","<p id=""stimulus"" style=""font-size:60px;"">veinticuatro</p>","j","","","empty_block","","veinticuatro","","","","2","13",""
"","","","","","html-keyboard-response","105","252838","0.0-109.0","17","1","2023-10-31 18:56:44","a725c3012b74bf33a1020a98cb69c237","45.71.5.119","Mozilla/5.0 (Windows NT 10.0; Win64; x64) AppleWebKit/537.36 (KHTML, like Gecko) Chrome/118.0.0.0 Safari/537.36 Edg/118.0.2088.76","WebKit","Edge","118.0.2088.76","Windows","10.0","null","es-419,es;q=0.9,es-ES;q=0.8,en;q=0.7,en-GB;q=0.6,en-US;q=0.5","true","null","<div style=""font-size:100px;"">X</div>","null","","","fixation","","","","","","","",""
"","","","","","audio-keyboard-response","106","253266","0.0-110.0","17","1","2023-10-31 18:56:44","a725c3012b74bf33a1020a98cb69c237","45.71.5.119","Mozilla/5.0 (Windows NT 10.0; Win64; x64) AppleWebKit/537.36 (KHTML, like Gecko) Chrome/118.0.0.0 Safari/537.36 Edg/118.0.2088.76","WebKit","Edge","118.0.2088.76","Windows","10.0","null","es-419,es;q=0.9,es-ES;q=0.8,en;q=0.7,en-GB;q=0.6,en-US;q=0.5","true","419","tones/880hz_short.mp3","s","","","tone_number_task","992.5","cuarenta y seis","tones/880hz_short.mp3","1142.5","60","2","14",""
"","","","","","html-keyboard-response","107","253854","0.0-111.0-0.0","17","1","2023-10-31 18:56:44","a725c3012b74bf33a1020a98cb69c237","45.71.5.119","Mozilla/5.0 (Windows NT 10.0; Win64; x64) AppleWebKit/537.36 (KHTML, like Gecko) Chrome/118.0.0.0 Safari/537.36 Edg/118.0.2088.76","WebKit","Edge","118.0.2088.76","Windows","10.0","null","es-419,es;q=0.9,es-ES;q=0.8,en;q=0.7,en-GB;q=0.6,en-US;q=0.5","true","null","","null","","","delay_block","","","","","","2","14",""
"","","","","","html-keyboard-response","108","254013","0.0-111.0-1.0","17","1","2023-10-31 18:56:44","a725c3012b74bf33a1020a98cb69c237","45.71.5.119","Mozilla/5.0 (Windows NT 10.0; Win64; x64) AppleWebKit/537.36 (KHTML, like Gecko) Chrome/118.0.0.0 Safari/537.36 Edg/118.0.2088.76","WebKit","Edge","118.0.2088.76","Windows","10.0","null","es-419,es;q=0.9,es-ES;q=0.8,en;q=0.7,en-GB;q=0.6,en-US;q=0.5","true","null","<p id=""stimulus"" style=""font-size:60px;"">cuarenta y seis</p>","null","","","tone_number_task_remaining_before_delay","","cuarenta y seis","","723.5","60","2","14",""
"","","","","","html-keyboard-response","109","254853","0.0-114.0-0.0","17","1","2023-10-31 18:56:44","a725c3012b74bf33a1020a98cb69c237","45.71.5.119","Mozilla/5.0 (Windows NT 10.0; Win64; x64) AppleWebKit/537.36 (KHTML, like Gecko) Chrome/118.0.0.0 Safari/537.36 Edg/118.0.2088.76","WebKit","Edge","118.0.2088.76","Windows","10.0","null","es-419,es;q=0.9,es-ES;q=0.8,en;q=0.7,en-GB;q=0.6,en-US;q=0.5","true","832","<p id=""stimulus"" style=""font-size:60px;"">cuarenta y seis</p>","k","","","empty_block","","cuarenta y seis","","","","2","14",""
"","","","","","html-keyboard-response","110","257746","0.0-115.0","17","1","2023-10-31 18:56:44","a725c3012b74bf33a1020a98cb69c237","45.71.5.119","Mozilla/5.0 (Windows NT 10.0; Win64; x64) AppleWebKit/537.36 (KHTML, like Gecko) Chrome/118.0.0.0 Safari/537.36 Edg/118.0.2088.76","WebKit","Edge","118.0.2088.76","Windows","10.0","null","es-419,es;q=0.9,es-ES;q=0.8,en;q=0.7,en-GB;q=0.6,en-US;q=0.5","true","null","<div style=""font-size:100px;"">X</div>","null","","","fixation","","","","","","","",""
"","","","","","audio-keyboard-response","111","258412","0.0-116.0","17","1","2023-10-31 18:56:44","a725c3012b74bf33a1020a98cb69c237","45.71.5.119","Mozilla/5.0 (Windows NT 10.0; Win64; x64) AppleWebKit/537.36 (KHTML, like Gecko) Chrome/118.0.0.0 Safari/537.36 Edg/118.0.2088.76","WebKit","Edge","118.0.2088.76","Windows","10.0","null","es-419,es;q=0.9,es-ES;q=0.8,en;q=0.7,en-GB;q=0.6,en-US;q=0.5","true","659","tones/440hz_short.mp3","a","","","tone_number_task","1025","veinticuatro","tones/440hz_short.mp3","1175","60","2","15",""
"","","","","","html-keyboard-response","112","258790","0.0-117.0-0.0","17","1","2023-10-31 18:56:44","a725c3012b74bf33a1020a98cb69c237","45.71.5.119","Mozilla/5.0 (Windows NT 10.0; Win64; x64) AppleWebKit/537.36 (KHTML, like Gecko) Chrome/118.0.0.0 Safari/537.36 Edg/118.0.2088.76","WebKit","Edge","118.0.2088.76","Windows","10.0","null","es-419,es;q=0.9,es-ES;q=0.8,en;q=0.7,en-GB;q=0.6,en-US;q=0.5","true","null","","null","","","delay_block","","","","","","2","15",""
"","","","","","html-keyboard-response","113","258951","0.0-117.0-1.0","17","1","2023-10-31 18:56:44","a725c3012b74bf33a1020a98cb69c237","45.71.5.119","Mozilla/5.0 (Windows NT 10.0; Win64; x64) AppleWebKit/537.36 (KHTML, like Gecko) Chrome/118.0.0.0 Safari/537.36 Edg/118.0.2088.76","WebKit","Edge","118.0.2088.76","Windows","10.0","null","es-419,es;q=0.9,es-ES;q=0.8,en;q=0.7,en-GB;q=0.6,en-US;q=0.5","true","null","<p id=""stimulus"" style=""font-size:60px;"">veinticuatro</p>","null","","","tone_number_task_remaining_before_delay","","veinticuatro","","516","60","2","15",""
"","","","","","html-keyboard-response","114","259290","0.0-120.0-0.0","17","1","2023-10-31 18:56:44","a725c3012b74bf33a1020a98cb69c237","45.71.5.119","Mozilla/5.0 (Windows NT 10.0; Win64; x64) AppleWebKit/537.36 (KHTML, like Gecko) Chrome/118.0.0.0 Safari/537.36 Edg/118.0.2088.76","WebKit","Edge","118.0.2088.76","Windows","10.0","null","es-419,es;q=0.9,es-ES;q=0.8,en;q=0.7,en-GB;q=0.6,en-US;q=0.5","true","330","<p id=""stimulus"" style=""font-size:60px;"">veinticuatro</p>","j","","","empty_block","","veinticuatro","","","","2","15",""
"","","","","","html-keyboard-response","115","262180","0.0-121.0","17","1","2023-10-31 18:56:44","a725c3012b74bf33a1020a98cb69c237","45.71.5.119","Mozilla/5.0 (Windows NT 10.0; Win64; x64) AppleWebKit/537.36 (KHTML, like Gecko) Chrome/118.0.0.0 Safari/537.36 Edg/118.0.2088.76","WebKit","Edge","118.0.2088.76","Windows","10.0","null","es-419,es;q=0.9,es-ES;q=0.8,en;q=0.7,en-GB;q=0.6,en-US;q=0.5","true","null","<div style=""font-size:100px;"">X</div>","null","","","fixation","","","","","","","",""
"","","","","","audio-keyboard-response","116","262891","0.0-122.0","17","1","2023-10-31 18:56:44","a725c3012b74bf33a1020a98cb69c237","45.71.5.119","Mozilla/5.0 (Windows NT 10.0; Win64; x64) AppleWebKit/537.36 (KHTML, like Gecko) Chrome/118.0.0.0 Safari/537.36 Edg/118.0.2088.76","WebKit","Edge","118.0.2088.76","Windows","10.0","null","es-419,es;q=0.9,es-ES;q=0.8,en;q=0.7,en-GB;q=0.6,en-US;q=0.5","true","709","tones/440hz_short.mp3","a","","","tone_number_task","1025","treinta","tones/440hz_short.mp3","1175","60","2","16",""
"","","","","","html-keyboard-response","117","263220","0.0-123.0-0.0","17","1","2023-10-31 18:56:44","a725c3012b74bf33a1020a98cb69c237","45.71.5.119","Mozilla/5.0 (Windows NT 10.0; Win64; x64) AppleWebKit/537.36 (KHTML, like Gecko) Chrome/118.0.0.0 Safari/537.36 Edg/118.0.2088.76","WebKit","Edge","118.0.2088.76","Windows","10.0","null","es-419,es;q=0.9,es-ES;q=0.8,en;q=0.7,en-GB;q=0.6,en-US;q=0.5","true","null","","null","","","delay_block","","","","","","2","16",""
"","","","","","html-keyboard-response","118","263394","0.0-123.0-1.0","17","1","2023-10-31 18:56:44","a725c3012b74bf33a1020a98cb69c237","45.71.5.119","Mozilla/5.0 (Windows NT 10.0; Win64; x64) AppleWebKit/537.36 (KHTML, like Gecko) Chrome/118.0.0.0 Safari/537.36 Edg/118.0.2088.76","WebKit","Edge","118.0.2088.76","Windows","10.0","null","es-419,es;q=0.9,es-ES;q=0.8,en;q=0.7,en-GB;q=0.6,en-US;q=0.5","true","null","<p id=""stimulus"" style=""font-size:60px;"">treinta</p>","null","","","tone_number_task_remaining_before_delay","","treinta","","466","60","2","16",""
"","","","","","html-keyboard-response","119","264084","0.0-126.0-0.0","17","1","2023-10-31 18:56:44","a725c3012b74bf33a1020a98cb69c237","45.71.5.119","Mozilla/5.0 (Windows NT 10.0; Win64; x64) AppleWebKit/537.36 (KHTML, like Gecko) Chrome/118.0.0.0 Safari/537.36 Edg/118.0.2088.76","WebKit","Edge","118.0.2088.76","Windows","10.0","null","es-419,es;q=0.9,es-ES;q=0.8,en;q=0.7,en-GB;q=0.6,en-US;q=0.5","true","681","<p id=""stimulus"" style=""font-size:60px;"">treinta</p>","j","","","empty_block","","treinta","","","","2","16",""
"","","","","","html-keyboard-response","120","266964","0.0-127.0","17","1","2023-10-31 18:56:44","a725c3012b74bf33a1020a98cb69c237","45.71.5.119","Mozilla/5.0 (Windows NT 10.0; Win64; x64) AppleWebKit/537.36 (KHTML, like Gecko) Chrome/118.0.0.0 Safari/537.36 Edg/118.0.2088.76","WebKit","Edge","118.0.2088.76","Windows","10.0","null","es-419,es;q=0.9,es-ES;q=0.8,en;q=0.7,en-GB;q=0.6,en-US;q=0.5","true","null","<div style=""font-size:100px;"">X</div>","null","","","fixation","","","","","","","",""
"","","","","","audio-keyboard-response","121","267126","0.0-128.0","17","1","2023-10-31 18:56:44","a725c3012b74bf33a1020a98cb69c237","45.71.5.119","Mozilla/5.0 (Windows NT 10.0; Win64; x64) AppleWebKit/537.36 (KHTML, like Gecko) Chrome/118.0.0.0 Safari/537.36 Edg/118.0.2088.76","WebKit","Edge","118.0.2088.76","Windows","10.0","null","es-419,es;q=0.9,es-ES;q=0.8,en;q=0.7,en-GB;q=0.6,en-US;q=0.5","true","null","tones/440hz_short.mp3","null","","","tone_number_task","0","sesenta y cuatro","tones/440hz_short.mp3","150","60","2","17",""
"","","","","","html-keyboard-response","122","267545","0.0-131.0-0.0","17","1","2023-10-31 18:56:44","a725c3012b74bf33a1020a98cb69c237","45.71.5.119","Mozilla/5.0 (Windows NT 10.0; Win64; x64) AppleWebKit/537.36 (KHTML, like Gecko) Chrome/118.0.0.0 Safari/537.36 Edg/118.0.2088.76","WebKit","Edge","118.0.2088.76","Windows","10.0","null","es-419,es;q=0.9,es-ES;q=0.8,en;q=0.7,en-GB;q=0.6,en-US;q=0.5","true","412","tones/440hz_short.mp3","a","","","empty_block","","sesenta y cuatro","","","","2","17",""
"","","","","","html-keyboard-response","123","267790","0.0-131.0-1.0","17","1","2023-10-31 18:56:44","a725c3012b74bf33a1020a98cb69c237","45.71.5.119","Mozilla/5.0 (Windows NT 10.0; Win64; x64) AppleWebKit/537.36 (KHTML, like Gecko) Chrome/118.0.0.0 Safari/537.36 Edg/118.0.2088.76","WebKit","Edge","118.0.2088.76","Windows","10.0","null","es-419,es;q=0.9,es-ES;q=0.8,en;q=0.7,en-GB;q=0.6,en-US;q=0.5","true","235","tones/440hz_short.mp3","k","","","empty_block","","sesenta y cuatro","","","","2","17",""
"","","","","","html-keyboard-response","124","270671","0.0-133.0","17","1","2023-10-31 18:56:44","a725c3012b74bf33a1020a98cb69c237","45.71.5.119","Mozilla/5.0 (Windows NT 10.0; Win64; x64) AppleWebKit/537.36 (KHTML, like Gecko) Chrome/118.0.0.0 Safari/537.36 Edg/118.0.2088.76","WebKit","Edge","118.0.2088.76","Windows","10.0","null","es-419,es;q=0.9,es-ES;q=0.8,en;q=0.7,en-GB;q=0.6,en-US;q=0.5","true","null","<div style=""font-size:100px;"">X</div>","null","","","fixation","","","","","","","",""
"","","","","","audio-keyboard-response","125","271258","0.0-134.0","17","1","2023-10-31 18:56:44","a725c3012b74bf33a1020a98cb69c237","45.71.5.119","Mozilla/5.0 (Windows NT 10.0; Win64; x64) AppleWebKit/537.36 (KHTML, like Gecko) Chrome/118.0.0.0 Safari/537.36 Edg/118.0.2088.76","WebKit","Edge","118.0.2088.76","Windows","10.0","null","es-419,es;q=0.9,es-ES;q=0.8,en;q=0.7,en-GB;q=0.6,en-US;q=0.5","true","568","tones/880hz_short.mp3","s","","","tone_number_task","1025","cuarenta y nueve","tones/880hz_short.mp3","1175","60","2","18",""
"","","","","","html-keyboard-response","126","271726","0.0-135.0-0.0","17","1","2023-10-31 18:56:44","a725c3012b74bf33a1020a98cb69c237","45.71.5.119","Mozilla/5.0 (Windows NT 10.0; Win64; x64) AppleWebKit/537.36 (KHTML, like Gecko) Chrome/118.0.0.0 Safari/537.36 Edg/118.0.2088.76","WebKit","Edge","118.0.2088.76","Windows","10.0","null","es-419,es;q=0.9,es-ES;q=0.8,en;q=0.7,en-GB;q=0.6,en-US;q=0.5","true","null","","null","","","delay_block","","","","","","2","18",""
"","","","","","html-keyboard-response","127","271886","0.0-135.0-1.0","17","1","2023-10-31 18:56:44","a725c3012b74bf33a1020a98cb69c237","45.71.5.119","Mozilla/5.0 (Windows NT 10.0; Win64; x64) AppleWebKit/537.36 (KHTML, like Gecko) Chrome/118.0.0.0 Safari/537.36 Edg/118.0.2088.76","WebKit","Edge","118.0.2088.76","Windows","10.0","null","es-419,es;q=0.9,es-ES;q=0.8,en;q=0.7,en-GB;q=0.6,en-US;q=0.5","true","null","<p id=""stimulus"" style=""font-size:60px;"">cuarenta y nueve</p>","null","","","tone_number_task_remaining_before_delay","","cuarenta y nueve","","607","60","2","18",""
"","","","","","html-keyboard-response","128","272666","0.0-138.0-0.0","17","1","2023-10-31 18:56:44","a725c3012b74bf33a1020a98cb69c237","45.71.5.119","Mozilla/5.0 (Windows NT 10.0; Win64; x64) AppleWebKit/537.36 (KHTML, like Gecko) Chrome/118.0.0.0 Safari/537.36 Edg/118.0.2088.76","WebKit","Edge","118.0.2088.76","Windows","10.0","null","es-419,es;q=0.9,es-ES;q=0.8,en;q=0.7,en-GB;q=0.6,en-US;q=0.5","true","772","<p id=""stimulus"" style=""font-size:60px;"">cuarenta y nueve</p>","k","","","empty_block","","cuarenta y nueve","","","","2","18",""
"","","","","","html-keyboard-response","129","275548","0.0-139.0","17","1","2023-10-31 18:56:44","a725c3012b74bf33a1020a98cb69c237","45.71.5.119","Mozilla/5.0 (Windows NT 10.0; Win64; x64) AppleWebKit/537.36 (KHTML, like Gecko) Chrome/118.0.0.0 Safari/537.36 Edg/118.0.2088.76","WebKit","Edge","118.0.2088.76","Windows","10.0","null","es-419,es;q=0.9,es-ES;q=0.8,en;q=0.7,en-GB;q=0.6,en-US;q=0.5","true","null","<div style=""font-size:100px;"">X</div>","null","","","fixation","","","","","","","",""
"","","","","","audio-keyboard-response","130","275809","0.0-140.0","17","1","2023-10-31 18:56:44","a725c3012b74bf33a1020a98cb69c237","45.71.5.119","Mozilla/5.0 (Windows NT 10.0; Win64; x64) AppleWebKit/537.36 (KHTML, like Gecko) Chrome/118.0.0.0 Safari/537.36 Edg/118.0.2088.76","WebKit","Edge","118.0.2088.76","Windows","10.0","null","es-419,es;q=0.9,es-ES;q=0.8,en;q=0.7,en-GB;q=0.6,en-US;q=0.5","true","null","tones/440hz_short.mp3","null","","","tone_number_task","102.5","sesenta y seis","tones/440hz_short.mp3","252.5","60","2","19",""
"","","","","","html-keyboard-response","131","276400","0.0-143.0-0.0","17","1","2023-10-31 18:56:44","a725c3012b74bf33a1020a98cb69c237","45.71.5.119","Mozilla/5.0 (Windows NT 10.0; Win64; x64) AppleWebKit/537.36 (KHTML, like Gecko) Chrome/118.0.0.0 Safari/537.36 Edg/118.0.2088.76","WebKit","Edge","118.0.2088.76","Windows","10.0","null","es-419,es;q=0.9,es-ES;q=0.8,en;q=0.7,en-GB;q=0.6,en-US;q=0.5","true","582","tones/440hz_short.mp3","s","","","empty_block","","sesenta y seis","","","","2","19",""
"","","","","","html-keyboard-response","132","277529","0.0-143.0-1.0","17","1","2023-10-31 18:56:44","a725c3012b74bf33a1020a98cb69c237","45.71.5.119","Mozilla/5.0 (Windows NT 10.0; Win64; x64) AppleWebKit/537.36 (KHTML, like Gecko) Chrome/118.0.0.0 Safari/537.36 Edg/118.0.2088.76","WebKit","Edge","118.0.2088.76","Windows","10.0","null","es-419,es;q=0.9,es-ES;q=0.8,en;q=0.7,en-GB;q=0.6,en-US;q=0.5","true","1120","tones/440hz_short.mp3","k","","","empty_block","","sesenta y seis","","","","2","19",""
"","","","","","html-keyboard-response","133","280410","0.0-145.0","17","1","2023-10-31 18:56:44","a725c3012b74bf33a1020a98cb69c237","45.71.5.119","Mozilla/5.0 (Windows NT 10.0; Win64; x64) AppleWebKit/537.36 (KHTML, like Gecko) Chrome/118.0.0.0 Safari/537.36 Edg/118.0.2088.76","WebKit","Edge","118.0.2088.76","Windows","10.0","null","es-419,es;q=0.9,es-ES;q=0.8,en;q=0.7,en-GB;q=0.6,en-US;q=0.5","true","null","<div style=""font-size:100px;"">X</div>","null","","","fixation","","","","","","","",""
"","","","","","audio-keyboard-response","134","280954","0.0-146.0","17","1","2023-10-31 18:56:44","a725c3012b74bf33a1020a98cb69c237","45.71.5.119","Mozilla/5.0 (Windows NT 10.0; Win64; x64) AppleWebKit/537.36 (KHTML, like Gecko) Chrome/118.0.0.0 Safari/537.36 Edg/118.0.2088.76","WebKit","Edge","118.0.2088.76","Windows","10.0","null","es-419,es;q=0.9,es-ES;q=0.8,en;q=0.7,en-GB;q=0.6,en-US;q=0.5","true","531","tones/440hz_short.mp3","a","","","tone_number_task","992.5","treinta y cuatro","tones/440hz_short.mp3","1142.5","60","2","20",""
"","","","","","html-keyboard-response","135","281430","0.0-147.0-0.0","17","1","2023-10-31 18:56:44","a725c3012b74bf33a1020a98cb69c237","45.71.5.119","Mozilla/5.0 (Windows NT 10.0; Win64; x64) AppleWebKit/537.36 (KHTML, like Gecko) Chrome/118.0.0.0 Safari/537.36 Edg/118.0.2088.76","WebKit","Edge","118.0.2088.76","Windows","10.0","null","es-419,es;q=0.9,es-ES;q=0.8,en;q=0.7,en-GB;q=0.6,en-US;q=0.5","true","null","","null","","","delay_block","","","","","","2","20",""
"","","","","","html-keyboard-response","136","281592","0.0-147.0-1.0","17","1","2023-10-31 18:56:44","a725c3012b74bf33a1020a98cb69c237","45.71.5.119","Mozilla/5.0 (Windows NT 10.0; Win64; x64) AppleWebKit/537.36 (KHTML, like Gecko) Chrome/118.0.0.0 Safari/537.36 Edg/118.0.2088.76","WebKit","Edge","118.0.2088.76","Windows","10.0","null","es-419,es;q=0.9,es-ES;q=0.8,en;q=0.7,en-GB;q=0.6,en-US;q=0.5","true","null","<p id=""stimulus"" style=""font-size:60px;"">treinta y cuatro</p>","null","","","tone_number_task_remaining_before_delay","","treinta y cuatro","","611.5","60","2","20",""
"","","","","","html-keyboard-response","137","282047","0.0-150.0-0.0","17","1","2023-10-31 18:56:44","a725c3012b74bf33a1020a98cb69c237","45.71.5.119","Mozilla/5.0 (Windows NT 10.0; Win64; x64) AppleWebKit/537.36 (KHTML, like Gecko) Chrome/118.0.0.0 Safari/537.36 Edg/118.0.2088.76","WebKit","Edge","118.0.2088.76","Windows","10.0","null","es-419,es;q=0.9,es-ES;q=0.8,en;q=0.7,en-GB;q=0.6,en-US;q=0.5","true","445","<p id=""stimulus"" style=""font-size:60px;"">treinta y cuatro</p>","j","","","empty_block","","treinta y cuatro","","","","2","20",""
"","","","","","html-keyboard-response","138","284931","0.0-151.0","17","1","2023-10-31 18:56:44","a725c3012b74bf33a1020a98cb69c237","45.71.5.119","Mozilla/5.0 (Windows NT 10.0; Win64; x64) AppleWebKit/537.36 (KHTML, like Gecko) Chrome/118.0.0.0 Safari/537.36 Edg/118.0.2088.76","WebKit","Edge","118.0.2088.76","Windows","10.0","null","es-419,es;q=0.9,es-ES;q=0.8,en;q=0.7,en-GB;q=0.6,en-US;q=0.5","true","null","<div style=""font-size:100px;"">X</div>","null","","","fixation","","","","","","","",""
"","","","","","audio-keyboard-response","139","285193","0.0-152.0","17","1","2023-10-31 18:56:44","a725c3012b74bf33a1020a98cb69c237","45.71.5.119","Mozilla/5.0 (Windows NT 10.0; Win64; x64) AppleWebKit/537.36 (KHTML, like Gecko) Chrome/118.0.0.0 Safari/537.36 Edg/118.0.2088.76","WebKit","Edge","118.0.2088.76","Windows","10.0","null","es-419,es;q=0.9,es-ES;q=0.8,en;q=0.7,en-GB;q=0.6,en-US;q=0.5","true","null","tones/440hz_short.mp3","null","","","tone_number_task","102.5","cuarenta y siete","tones/440hz_short.mp3","252.5","60","2","21",""
"","","","","","html-keyboard-response","140","285923","0.0-155.0-0.0","17","1","2023-10-31 18:56:44","a725c3012b74bf33a1020a98cb69c237","45.71.5.119","Mozilla/5.0 (Windows NT 10.0; Win64; x64) AppleWebKit/537.36 (KHTML, like Gecko) Chrome/118.0.0.0 Safari/537.36 Edg/118.0.2088.76","WebKit","Edge","118.0.2088.76","Windows","10.0","null","es-419,es;q=0.9,es-ES;q=0.8,en;q=0.7,en-GB;q=0.6,en-US;q=0.5","true","720","tones/440hz_short.mp3","a","","","empty_block","","cuarenta y siete","","","","2","21",""
"","","","","","html-keyboard-response","141","286658","0.0-155.0-1.0","17","1","2023-10-31 18:56:44","a725c3012b74bf33a1020a98cb69c237","45.71.5.119","Mozilla/5.0 (Windows NT 10.0; Win64; x64) AppleWebKit/537.36 (KHTML, like Gecko) Chrome/118.0.0.0 Safari/537.36 Edg/118.0.2088.76","WebKit","Edge","118.0.2088.76","Windows","10.0","null","es-419,es;q=0.9,es-ES;q=0.8,en;q=0.7,en-GB;q=0.6,en-US;q=0.5","true","726","tones/440hz_short.mp3","k","","","empty_block","","cuarenta y siete","","","","2","21",""
"","","","","","html-keyboard-response","142","289540","0.0-157.0","17","1","2023-10-31 18:56:44","a725c3012b74bf33a1020a98cb69c237","45.71.5.119","Mozilla/5.0 (Windows NT 10.0; Win64; x64) AppleWebKit/537.36 (KHTML, like Gecko) Chrome/118.0.0.0 Safari/537.36 Edg/118.0.2088.76","WebKit","Edge","118.0.2088.76","Windows","10.0","null","es-419,es;q=0.9,es-ES;q=0.8,en;q=0.7,en-GB;q=0.6,en-US;q=0.5","true","null","<div style=""font-size:100px;"">X</div>","null","","","fixation","","","","","","","",""
"","","","","","audio-keyboard-response","143","289699","0.0-158.0","17","1","2023-10-31 18:56:44","a725c3012b74bf33a1020a98cb69c237","45.71.5.119","Mozilla/5.0 (Windows NT 10.0; Win64; x64) AppleWebKit/537.36 (KHTML, like Gecko) Chrome/118.0.0.0 Safari/537.36 Edg/118.0.2088.76","WebKit","Edge","118.0.2088.76","Windows","10.0","null","es-419,es;q=0.9,es-ES;q=0.8,en;q=0.7,en-GB;q=0.6,en-US;q=0.5","true","null","tones/880hz_short.mp3","null","","","tone_number_task","0","sesenta y cinco","tones/880hz_short.mp3","150","60","2","22",""
"","","","","","html-keyboard-response","144","290914","0.0-161.0-0.0","17","1","2023-10-31 18:56:44","a725c3012b74bf33a1020a98cb69c237","45.71.5.119","Mozilla/5.0 (Windows NT 10.0; Win64; x64) AppleWebKit/537.36 (KHTML, like Gecko) Chrome/118.0.0.0 Safari/537.36 Edg/118.0.2088.76","WebKit","Edge","118.0.2088.76","Windows","10.0","null","es-419,es;q=0.9,es-ES;q=0.8,en;q=0.7,en-GB;q=0.6,en-US;q=0.5","true","null","tones/880hz_short.mp3","null","","","empty_block","","sesenta y cinco","","","","2","22",""
"","","","","","html-keyboard-response","145","291017","0.0-161.0-1.0","17","1","2023-10-31 18:56:44","a725c3012b74bf33a1020a98cb69c237","45.71.5.119","Mozilla/5.0 (Windows NT 10.0; Win64; x64) AppleWebKit/537.36 (KHTML, like Gecko) Chrome/118.0.0.0 Safari/537.36 Edg/118.0.2088.76","WebKit","Edge","118.0.2088.76","Windows","10.0","null","es-419,es;q=0.9,es-ES;q=0.8,en;q=0.7,en-GB;q=0.6,en-US;q=0.5","true","93","tones/880hz_short.mp3","s","","","empty_block","","sesenta y cinco","","","","2","22",""
"","","","","","html-keyboard-response","146","293903","0.0-163.0","17","1","2023-10-31 18:56:44","a725c3012b74bf33a1020a98cb69c237","45.71.5.119","Mozilla/5.0 (Windows NT 10.0; Win64; x64) AppleWebKit/537.36 (KHTML, like Gecko) Chrome/118.0.0.0 Safari/537.36 Edg/118.0.2088.76","WebKit","Edge","118.0.2088.76","Windows","10.0","null","es-419,es;q=0.9,es-ES;q=0.8,en;q=0.7,en-GB;q=0.6,en-US;q=0.5","true","null","<div style=""font-size:100px;"">X</div>","null","","","fixation","","","","","","","",""
"","","","","","audio-keyboard-response","147","294508","0.0-164.0","17","1","2023-10-31 18:56:44","a725c3012b74bf33a1020a98cb69c237","45.71.5.119","Mozilla/5.0 (Windows NT 10.0; Win64; x64) AppleWebKit/537.36 (KHTML, like Gecko) Chrome/118.0.0.0 Safari/537.36 Edg/118.0.2088.76","WebKit","Edge","118.0.2088.76","Windows","10.0","null","es-419,es;q=0.9,es-ES;q=0.8,en;q=0.7,en-GB;q=0.6,en-US;q=0.5","true","589","tones/440hz_short.mp3","a","","","tone_number_task","1025","cuarenta y seis","tones/440hz_short.mp3","1175","60","2","23",""
"","","","","","html-keyboard-response","148","294956","0.0-165.0-0.0","17","1","2023-10-31 18:56:44","a725c3012b74bf33a1020a98cb69c237","45.71.5.119","Mozilla/5.0 (Windows NT 10.0; Win64; x64) AppleWebKit/537.36 (KHTML, like Gecko) Chrome/118.0.0.0 Safari/537.36 Edg/118.0.2088.76","WebKit","Edge","118.0.2088.76","Windows","10.0","null","es-419,es;q=0.9,es-ES;q=0.8,en;q=0.7,en-GB;q=0.6,en-US;q=0.5","true","null","","null","","","delay_block","","","","","","2","23",""
"","","","","","html-keyboard-response","149","295118","0.0-165.0-1.0","17","1","2023-10-31 18:56:44","a725c3012b74bf33a1020a98cb69c237","45.71.5.119","Mozilla/5.0 (Windows NT 10.0; Win64; x64) AppleWebKit/537.36 (KHTML, like Gecko) Chrome/118.0.0.0 Safari/537.36 Edg/118.0.2088.76","WebKit","Edge","118.0.2088.76","Windows","10.0","null","es-419,es;q=0.9,es-ES;q=0.8,en;q=0.7,en-GB;q=0.6,en-US;q=0.5","true","null","<p id=""stimulus"" style=""font-size:60px;"">cuarenta y seis</p>","null","","","tone_number_task_remaining_before_delay","","cuarenta y seis","","586","60","2","23",""
"","","","","","html-keyboard-response","150","295858","0.0-168.0-0.0","17","1","2023-10-31 18:56:44","a725c3012b74bf33a1020a98cb69c237","45.71.5.119","Mozilla/5.0 (Windows NT 10.0; Win64; x64) AppleWebKit/537.36 (KHTML, like Gecko) Chrome/118.0.0.0 Safari/537.36 Edg/118.0.2088.76","WebKit","Edge","118.0.2088.76","Windows","10.0","null","es-419,es;q=0.9,es-ES;q=0.8,en;q=0.7,en-GB;q=0.6,en-US;q=0.5","true","730","<p id=""stimulus"" style=""font-size:60px;"">cuarenta y seis</p>","k","","","empty_block","","cuarenta y seis","","","","2","23",""
"","","","","","html-keyboard-response","151","298744","0.0-169.0","17","1","2023-10-31 18:56:44","a725c3012b74bf33a1020a98cb69c237","45.71.5.119","Mozilla/5.0 (Windows NT 10.0; Win64; x64) AppleWebKit/537.36 (KHTML, like Gecko) Chrome/118.0.0.0 Safari/537.36 Edg/118.0.2088.76","WebKit","Edge","118.0.2088.76","Windows","10.0","null","es-419,es;q=0.9,es-ES;q=0.8,en;q=0.7,en-GB;q=0.6,en-US;q=0.5","true","null","<div style=""font-size:100px;"">X</div>","null","","","fixation","","","","","","","",""
"","","","","","audio-keyboard-response","152","299461","0.0-170.0","17","1","2023-10-31 18:56:44","a725c3012b74bf33a1020a98cb69c237","45.71.5.119","Mozilla/5.0 (Windows NT 10.0; Win64; x64) AppleWebKit/537.36 (KHTML, like Gecko) Chrome/118.0.0.0 Safari/537.36 Edg/118.0.2088.76","WebKit","Edge","118.0.2088.76","Windows","10.0","null","es-419,es;q=0.9,es-ES;q=0.8,en;q=0.7,en-GB;q=0.6,en-US;q=0.5","true","709","tones/440hz_short.mp3","a","","","tone_number_task","1025","cuarenta y tres","tones/440hz_short.mp3","1175","60","2","24",""
"","","","","","html-keyboard-response","153","299790","0.0-171.0-0.0","17","1","2023-10-31 18:56:44","a725c3012b74bf33a1020a98cb69c237","45.71.5.119","Mozilla/5.0 (Windows NT 10.0; Win64; x64) AppleWebKit/537.36 (KHTML, like Gecko) Chrome/118.0.0.0 Safari/537.36 Edg/118.0.2088.76","WebKit","Edge","118.0.2088.76","Windows","10.0","null","es-419,es;q=0.9,es-ES;q=0.8,en;q=0.7,en-GB;q=0.6,en-US;q=0.5","true","null","","null","","","delay_block","","","","","","2","24",""
"","","","","","html-keyboard-response","154","299954","0.0-171.0-1.0","17","1","2023-10-31 18:56:44","a725c3012b74bf33a1020a98cb69c237","45.71.5.119","Mozilla/5.0 (Windows NT 10.0; Win64; x64) AppleWebKit/537.36 (KHTML, like Gecko) Chrome/118.0.0.0 Safari/537.36 Edg/118.0.2088.76","WebKit","Edge","118.0.2088.76","Windows","10.0","null","es-419,es;q=0.9,es-ES;q=0.8,en;q=0.7,en-GB;q=0.6,en-US;q=0.5","true","null","<p id=""stimulus"" style=""font-size:60px;"">cuarenta y tres</p>","null","","","tone_number_task_remaining_before_delay","","cuarenta y tres","","466","60","2","24",""
"","","","","","html-keyboard-response","155","300479","0.0-174.0-0.0","17","1","2023-10-31 18:56:44","a725c3012b74bf33a1020a98cb69c237","45.71.5.119","Mozilla/5.0 (Windows NT 10.0; Win64; x64) AppleWebKit/537.36 (KHTML, like Gecko) Chrome/118.0.0.0 Safari/537.36 Edg/118.0.2088.76","WebKit","Edge","118.0.2088.76","Windows","10.0","null","es-419,es;q=0.9,es-ES;q=0.8,en;q=0.7,en-GB;q=0.6,en-US;q=0.5","true","514","<p id=""stimulus"" style=""font-size:60px;"">cuarenta y tres</p>","j","","","empty_block","","cuarenta y tres","","","","2","24",""
"","","","","","html-keyboard-response","156","303361","0.0-175.0","17","1","2023-10-31 18:56:44","a725c3012b74bf33a1020a98cb69c237","45.71.5.119","Mozilla/5.0 (Windows NT 10.0; Win64; x64) AppleWebKit/537.36 (KHTML, like Gecko) Chrome/118.0.0.0 Safari/537.36 Edg/118.0.2088.76","WebKit","Edge","118.0.2088.76","Windows","10.0","null","es-419,es;q=0.9,es-ES;q=0.8,en;q=0.7,en-GB;q=0.6,en-US;q=0.5","true","null","<div style=""font-size:100px;"">X</div>","null","","","fixation","","","","","","","",""
"","","","","","audio-keyboard-response","157","303629","0.0-176.0","17","1","2023-10-31 18:56:44","a725c3012b74bf33a1020a98cb69c237","45.71.5.119","Mozilla/5.0 (Windows NT 10.0; Win64; x64) AppleWebKit/537.36 (KHTML, like Gecko) Chrome/118.0.0.0 Safari/537.36 Edg/118.0.2088.76","WebKit","Edge","118.0.2088.76","Windows","10.0","null","es-419,es;q=0.9,es-ES;q=0.8,en;q=0.7,en-GB;q=0.6,en-US;q=0.5","true","null","tones/440hz_short.mp3","null","","","tone_number_task","102.5","cuarenta y nueve","tones/440hz_short.mp3","252.5","60","2","25",""
"","","","","","html-keyboard-response","158","303902","0.0-179.0-0.0","17","1","2023-10-31 18:56:44","a725c3012b74bf33a1020a98cb69c237","45.71.5.119","Mozilla/5.0 (Windows NT 10.0; Win64; x64) AppleWebKit/537.36 (KHTML, like Gecko) Chrome/118.0.0.0 Safari/537.36 Edg/118.0.2088.76","WebKit","Edge","118.0.2088.76","Windows","10.0","null","es-419,es;q=0.9,es-ES;q=0.8,en;q=0.7,en-GB;q=0.6,en-US;q=0.5","true","262","tones/440hz_short.mp3","a","","","empty_block","","cuarenta y nueve","","","","2","25",""
"","","","","","html-keyboard-response","159","304328","0.0-179.0-1.0","17","1","2023-10-31 18:56:44","a725c3012b74bf33a1020a98cb69c237","45.71.5.119","Mozilla/5.0 (Windows NT 10.0; Win64; x64) AppleWebKit/537.36 (KHTML, like Gecko) Chrome/118.0.0.0 Safari/537.36 Edg/118.0.2088.76","WebKit","Edge","118.0.2088.76","Windows","10.0","null","es-419,es;q=0.9,es-ES;q=0.8,en;q=0.7,en-GB;q=0.6,en-US;q=0.5","true","415","tones/440hz_short.mp3","k","","","empty_block","","cuarenta y nueve","","","","2","25",""
"","","","","","html-keyboard-response","160","307214","0.0-181.0","17","1","2023-10-31 18:56:44","a725c3012b74bf33a1020a98cb69c237","45.71.5.119","Mozilla/5.0 (Windows NT 10.0; Win64; x64) AppleWebKit/537.36 (KHTML, like Gecko) Chrome/118.0.0.0 Safari/537.36 Edg/118.0.2088.76","WebKit","Edge","118.0.2088.76","Windows","10.0","null","es-419,es;q=0.9,es-ES;q=0.8,en;q=0.7,en-GB;q=0.6,en-US;q=0.5","true","null","<div style=""font-size:100px;"">X</div>","null","","","fixation","","","","","","","",""
"","","","","","audio-keyboard-response","161","307380","0.0-182.0","17","1","2023-10-31 18:56:44","a725c3012b74bf33a1020a98cb69c237","45.71.5.119","Mozilla/5.0 (Windows NT 10.0; Win64; x64) AppleWebKit/537.36 (KHTML, like Gecko) Chrome/118.0.0.0 Safari/537.36 Edg/118.0.2088.76","WebKit","Edge","118.0.2088.76","Windows","10.0","null","es-419,es;q=0.9,es-ES;q=0.8,en;q=0.7,en-GB;q=0.6,en-US;q=0.5","true","null","tones/440hz_short.mp3","null","","","tone_number_task","0","treinta y cuatro","tones/440hz_short.mp3","150","60","2","26",""
"","","","","","html-keyboard-response","162","308028","0.0-185.0-0.0","17","1","2023-10-31 18:56:44","a725c3012b74bf33a1020a98cb69c237","45.71.5.119","Mozilla/5.0 (Windows NT 10.0; Win64; x64) AppleWebKit/537.36 (KHTML, like Gecko) Chrome/118.0.0.0 Safari/537.36 Edg/118.0.2088.76","WebKit","Edge","118.0.2088.76","Windows","10.0","null","es-419,es;q=0.9,es-ES;q=0.8,en;q=0.7,en-GB;q=0.6,en-US;q=0.5","true","636","tones/440hz_short.mp3","a","","","empty_block","","treinta y cuatro","","","","2","26",""
"","","","","","html-keyboard-response","163","308409","0.0-185.0-1.0","17","1","2023-10-31 18:56:44","a725c3012b74bf33a1020a98cb69c237","45.71.5.119","Mozilla/5.0 (Windows NT 10.0; Win64; x64) AppleWebKit/537.36 (KHTML, like Gecko) Chrome/118.0.0.0 Safari/537.36 Edg/118.0.2088.76","WebKit","Edge","118.0.2088.76","Windows","10.0","null","es-419,es;q=0.9,es-ES;q=0.8,en;q=0.7,en-GB;q=0.6,en-US;q=0.5","true","368","tones/440hz_short.mp3","j","","","empty_block","","treinta y cuatro","","","","2","26",""
"","","","","","html-keyboard-response","164","311296","0.0-187.0","17","1","2023-10-31 18:56:44","a725c3012b74bf33a1020a98cb69c237","45.71.5.119","Mozilla/5.0 (Windows NT 10.0; Win64; x64) AppleWebKit/537.36 (KHTML, like Gecko) Chrome/118.0.0.0 Safari/537.36 Edg/118.0.2088.76","WebKit","Edge","118.0.2088.76","Windows","10.0","null","es-419,es;q=0.9,es-ES;q=0.8,en;q=0.7,en-GB;q=0.6,en-US;q=0.5","true","null","<div style=""font-size:100px;"">X</div>","null","","","fixation","","","","","","","",""
"","","","","","audio-keyboard-response","165","311564","0.0-188.0","17","1","2023-10-31 18:56:44","a725c3012b74bf33a1020a98cb69c237","45.71.5.119","Mozilla/5.0 (Windows NT 10.0; Win64; x64) AppleWebKit/537.36 (KHTML, like Gecko) Chrome/118.0.0.0 Safari/537.36 Edg/118.0.2088.76","WebKit","Edge","118.0.2088.76","Windows","10.0","null","es-419,es;q=0.9,es-ES;q=0.8,en;q=0.7,en-GB;q=0.6,en-US;q=0.5","true","null","tones/440hz_short.mp3","null","","","tone_number_task","102.5","cuarenta y seis","tones/440hz_short.mp3","252.5","60","2","27",""
"","","","","","html-keyboard-response","166","311819","0.0-191.0-0.0","17","1","2023-10-31 18:56:44","a725c3012b74bf33a1020a98cb69c237","45.71.5.119","Mozilla/5.0 (Windows NT 10.0; Win64; x64) AppleWebKit/537.36 (KHTML, like Gecko) Chrome/118.0.0.0 Safari/537.36 Edg/118.0.2088.76","WebKit","Edge","118.0.2088.76","Windows","10.0","null","es-419,es;q=0.9,es-ES;q=0.8,en;q=0.7,en-GB;q=0.6,en-US;q=0.5","true","243","tones/440hz_short.mp3","a","","","empty_block","","cuarenta y seis","","","","2","27",""
"","","","","","html-keyboard-response","167","312674","0.0-191.0-1.0","17","1","2023-10-31 18:56:44","a725c3012b74bf33a1020a98cb69c237","45.71.5.119","Mozilla/5.0 (Windows NT 10.0; Win64; x64) AppleWebKit/537.36 (KHTML, like Gecko) Chrome/118.0.0.0 Safari/537.36 Edg/118.0.2088.76","WebKit","Edge","118.0.2088.76","Windows","10.0","null","es-419,es;q=0.9,es-ES;q=0.8,en;q=0.7,en-GB;q=0.6,en-US;q=0.5","true","843","tones/440hz_short.mp3","k","","","empty_block","","cuarenta y seis","","","","2","27",""
"","","","","","html-keyboard-response","168","315560","0.0-193.0","17","1","2023-10-31 18:56:44","a725c3012b74bf33a1020a98cb69c237","45.71.5.119","Mozilla/5.0 (Windows NT 10.0; Win64; x64) AppleWebKit/537.36 (KHTML, like Gecko) Chrome/118.0.0.0 Safari/537.36 Edg/118.0.2088.76","WebKit","Edge","118.0.2088.76","Windows","10.0","null","es-419,es;q=0.9,es-ES;q=0.8,en;q=0.7,en-GB;q=0.6,en-US;q=0.5","true","null","<div style=""font-size:100px;"">X</div>","null","","","fixation","","","","","","","",""
"","","","","","audio-keyboard-response","169","316279","0.0-194.0","17","1","2023-10-31 18:56:44","a725c3012b74bf33a1020a98cb69c237","45.71.5.119","Mozilla/5.0 (Windows NT 10.0; Win64; x64) AppleWebKit/537.36 (KHTML, like Gecko) Chrome/118.0.0.0 Safari/537.36 Edg/118.0.2088.76","WebKit","Edge","118.0.2088.76","Windows","10.0","null","es-419,es;q=0.9,es-ES;q=0.8,en;q=0.7,en-GB;q=0.6,en-US;q=0.5","true","712","tones/880hz_short.mp3","s","","","tone_number_task","1025","sesenta y nueve","tones/880hz_short.mp3","1175","60","2","28",""
"","","","","","html-keyboard-response","170","316608","0.0-195.0-0.0","17","1","2023-10-31 18:56:44","a725c3012b74bf33a1020a98cb69c237","45.71.5.119","Mozilla/5.0 (Windows NT 10.0; Win64; x64) AppleWebKit/537.36 (KHTML, like Gecko) Chrome/118.0.0.0 Safari/537.36 Edg/118.0.2088.76","WebKit","Edge","118.0.2088.76","Windows","10.0","null","es-419,es;q=0.9,es-ES;q=0.8,en;q=0.7,en-GB;q=0.6,en-US;q=0.5","true","null","","null","","","delay_block","","","","","","2","28",""
"","","","","","html-keyboard-response","171","316773","0.0-195.0-1.0","17","1","2023-10-31 18:56:44","a725c3012b74bf33a1020a98cb69c237","45.71.5.119","Mozilla/5.0 (Windows NT 10.0; Win64; x64) AppleWebKit/537.36 (KHTML, like Gecko) Chrome/118.0.0.0 Safari/537.36 Edg/118.0.2088.76","WebKit","Edge","118.0.2088.76","Windows","10.0","null","es-419,es;q=0.9,es-ES;q=0.8,en;q=0.7,en-GB;q=0.6,en-US;q=0.5","true","null","<p id=""stimulus"" style=""font-size:60px;"">sesenta y nueve</p>","null","","","tone_number_task_remaining_before_delay","","sesenta y nueve","","463","60","2","28",""
"","","","","","html-keyboard-response","172","317282","0.0-198.0-0.0","17","1","2023-10-31 18:56:44","a725c3012b74bf33a1020a98cb69c237","45.71.5.119","Mozilla/5.0 (Windows NT 10.0; Win64; x64) AppleWebKit/537.36 (KHTML, like Gecko) Chrome/118.0.0.0 Safari/537.36 Edg/118.0.2088.76","WebKit","Edge","118.0.2088.76","Windows","10.0","null","es-419,es;q=0.9,es-ES;q=0.8,en;q=0.7,en-GB;q=0.6,en-US;q=0.5","true","498","<p id=""stimulus"" style=""font-size:60px;"">sesenta y nueve</p>","k","","","empty_block","","sesenta y nueve","","","","2","28",""
"","","","","","html-keyboard-response","173","320165","0.0-199.0","17","1","2023-10-31 18:56:44","a725c3012b74bf33a1020a98cb69c237","45.71.5.119","Mozilla/5.0 (Windows NT 10.0; Win64; x64) AppleWebKit/537.36 (KHTML, like Gecko) Chrome/118.0.0.0 Safari/537.36 Edg/118.0.2088.76","WebKit","Edge","118.0.2088.76","Windows","10.0","null","es-419,es;q=0.9,es-ES;q=0.8,en;q=0.7,en-GB;q=0.6,en-US;q=0.5","true","null","<div style=""font-size:100px;"">X</div>","null","","","fixation","","","","","","","",""
"","","","","","audio-keyboard-response","174","320329","0.0-200.0","17","1","2023-10-31 18:56:44","a725c3012b74bf33a1020a98cb69c237","45.71.5.119","Mozilla/5.0 (Windows NT 10.0; Win64; x64) AppleWebKit/537.36 (KHTML, like Gecko) Chrome/118.0.0.0 Safari/537.36 Edg/118.0.2088.76","WebKit","Edge","118.0.2088.76","Windows","10.0","null","es-419,es;q=0.9,es-ES;q=0.8,en;q=0.7,en-GB;q=0.6,en-US;q=0.5","true","null","tones/880hz_short.mp3","null","","","tone_number_task","0","veintitres","tones/880hz_short.mp3","150","60","2","29",""
"","","","","","html-keyboard-response","175","320814","0.0-203.0-0.0","17","1","2023-10-31 18:56:44","a725c3012b74bf33a1020a98cb69c237","45.71.5.119","Mozilla/5.0 (Windows NT 10.0; Win64; x64) AppleWebKit/537.36 (KHTML, like Gecko) Chrome/118.0.0.0 Safari/537.36 Edg/118.0.2088.76","WebKit","Edge","118.0.2088.76","Windows","10.0","null","es-419,es;q=0.9,es-ES;q=0.8,en;q=0.7,en-GB;q=0.6,en-US;q=0.5","true","472","tones/880hz_short.mp3","s","","","empty_block","","veintitres","","","","2","29",""
"","","","","","html-keyboard-response","176","321192","0.0-203.0-1.0","17","1","2023-10-31 18:56:44","a725c3012b74bf33a1020a98cb69c237","45.71.5.119","Mozilla/5.0 (Windows NT 10.0; Win64; x64) AppleWebKit/537.36 (KHTML, like Gecko) Chrome/118.0.0.0 Safari/537.36 Edg/118.0.2088.76","WebKit","Edge","118.0.2088.76","Windows","10.0","null","es-419,es;q=0.9,es-ES;q=0.8,en;q=0.7,en-GB;q=0.6,en-US;q=0.5","true","367","tones/880hz_short.mp3","j","","","empty_block","","veintitres","","","","2","29",""
"","","","","","html-keyboard-response","177","324078","0.0-205.0","17","1","2023-10-31 18:56:44","a725c3012b74bf33a1020a98cb69c237","45.71.5.119","Mozilla/5.0 (Windows NT 10.0; Win64; x64) AppleWebKit/537.36 (KHTML, like Gecko) Chrome/118.0.0.0 Safari/537.36 Edg/118.0.2088.76","WebKit","Edge","118.0.2088.76","Windows","10.0","null","es-419,es;q=0.9,es-ES;q=0.8,en;q=0.7,en-GB;q=0.6,en-US;q=0.5","true","null","<div style=""font-size:100px;"">X</div>","null","","","fixation","","","","","","","",""
"","","","","","audio-keyboard-response","178","324690","0.0-206.0","17","1","2023-10-31 18:56:44","a725c3012b74bf33a1020a98cb69c237","45.71.5.119","Mozilla/5.0 (Windows NT 10.0; Win64; x64) AppleWebKit/537.36 (KHTML, like Gecko) Chrome/118.0.0.0 Safari/537.36 Edg/118.0.2088.76","WebKit","Edge","118.0.2088.76","Windows","10.0","null","es-419,es;q=0.9,es-ES;q=0.8,en;q=0.7,en-GB;q=0.6,en-US;q=0.5","true","600","tones/440hz_short.mp3","a","","","tone_number_task","992.5","treinta y cuatro","tones/440hz_short.mp3","1142.5","60","2","30",""
"","","","","","html-keyboard-response","179","325094","0.0-207.0-0.0","17","1","2023-10-31 18:56:44","a725c3012b74bf33a1020a98cb69c237","45.71.5.119","Mozilla/5.0 (Windows NT 10.0; Win64; x64) AppleWebKit/537.36 (KHTML, like Gecko) Chrome/118.0.0.0 Safari/537.36 Edg/118.0.2088.76","WebKit","Edge","118.0.2088.76","Windows","10.0","null","es-419,es;q=0.9,es-ES;q=0.8,en;q=0.7,en-GB;q=0.6,en-US;q=0.5","true","null","","null","","","delay_block","","","","","","2","30",""
"","","","","","html-keyboard-response","180","325265","0.0-207.0-1.0","17","1","2023-10-31 18:56:44","a725c3012b74bf33a1020a98cb69c237","45.71.5.119","Mozilla/5.0 (Windows NT 10.0; Win64; x64) AppleWebKit/537.36 (KHTML, like Gecko) Chrome/118.0.0.0 Safari/537.36 Edg/118.0.2088.76","WebKit","Edge","118.0.2088.76","Windows","10.0","null","es-419,es;q=0.9,es-ES;q=0.8,en;q=0.7,en-GB;q=0.6,en-US;q=0.5","true","null","<p id=""stimulus"" style=""font-size:60px;"">treinta y cuatro</p>","null","","","tone_number_task_remaining_before_delay","","treinta y cuatro","","542.5","60","2","30",""
"","","","","","html-keyboard-response","181","325833","0.0-210.0-0.0","17","1","2023-10-31 18:56:44","a725c3012b74bf33a1020a98cb69c237","45.71.5.119","Mozilla/5.0 (Windows NT 10.0; Win64; x64) AppleWebKit/537.36 (KHTML, like Gecko) Chrome/118.0.0.0 Safari/537.36 Edg/118.0.2088.76","WebKit","Edge","118.0.2088.76","Windows","10.0","null","es-419,es;q=0.9,es-ES;q=0.8,en;q=0.7,en-GB;q=0.6,en-US;q=0.5","true","557","<p id=""stimulus"" style=""font-size:60px;"">treinta y cuatro</p>","j","","","empty_block","","treinta y cuatro","","","","2","30",""
"","","","","","html-keyboard-response","182","328729","0.0-211.0","17","1","2023-10-31 18:56:44","a725c3012b74bf33a1020a98cb69c237","45.71.5.119","Mozilla/5.0 (Windows NT 10.0; Win64; x64) AppleWebKit/537.36 (KHTML, like Gecko) Chrome/118.0.0.0 Safari/537.36 Edg/118.0.2088.76","WebKit","Edge","118.0.2088.76","Windows","10.0","null","es-419,es;q=0.9,es-ES;q=0.8,en;q=0.7,en-GB;q=0.6,en-US;q=0.5","true","null","<div style=""font-size:100px;"">X</div>","null","","","fixation","","","","","","","",""
"","","","","","audio-keyboard-response","183","328997","0.0-212.0","17","1","2023-10-31 18:56:44","a725c3012b74bf33a1020a98cb69c237","45.71.5.119","Mozilla/5.0 (Windows NT 10.0; Win64; x64) AppleWebKit/537.36 (KHTML, like Gecko) Chrome/118.0.0.0 Safari/537.36 Edg/118.0.2088.76","WebKit","Edge","118.0.2088.76","Windows","10.0","null","es-419,es;q=0.9,es-ES;q=0.8,en;q=0.7,en-GB;q=0.6,en-US;q=0.5","true","null","tones/440hz_short.mp3","null","","","tone_number_task","102.5","veintiuno","tones/440hz_short.mp3","252.5","60","2","31",""
"","","","","","html-keyboard-response","184","329760","0.0-215.0-0.0","17","1","2023-10-31 18:56:44","a725c3012b74bf33a1020a98cb69c237","45.71.5.119","Mozilla/5.0 (Windows NT 10.0; Win64; x64) AppleWebKit/537.36 (KHTML, like Gecko) Chrome/118.0.0.0 Safari/537.36 Edg/118.0.2088.76","WebKit","Edge","118.0.2088.76","Windows","10.0","null","es-419,es;q=0.9,es-ES;q=0.8,en;q=0.7,en-GB;q=0.6,en-US;q=0.5","true","748","tones/440hz_short.mp3","a","","","empty_block","","veintiuno","","","","2","31",""
"","","","","","html-keyboard-response","185","330434","0.0-215.0-1.0","17","1","2023-10-31 18:56:44","a725c3012b74bf33a1020a98cb69c237","45.71.5.119","Mozilla/5.0 (Windows NT 10.0; Win64; x64) AppleWebKit/537.36 (KHTML, like Gecko) Chrome/118.0.0.0 Safari/537.36 Edg/118.0.2088.76","WebKit","Edge","118.0.2088.76","Windows","10.0","null","es-419,es;q=0.9,es-ES;q=0.8,en;q=0.7,en-GB;q=0.6,en-US;q=0.5","true","661","tones/440hz_short.mp3","j","","","empty_block","","veintiuno","","","","2","31",""
"","","","","","html-keyboard-response","186","333320","0.0-217.0","17","1","2023-10-31 18:56:44","a725c3012b74bf33a1020a98cb69c237","45.71.5.119","Mozilla/5.0 (Windows NT 10.0; Win64; x64) AppleWebKit/537.36 (KHTML, like Gecko) Chrome/118.0.0.0 Safari/537.36 Edg/118.0.2088.76","WebKit","Edge","118.0.2088.76","Windows","10.0","null","es-419,es;q=0.9,es-ES;q=0.8,en;q=0.7,en-GB;q=0.6,en-US;q=0.5","true","null","<div style=""font-size:100px;"">X</div>","null","","","fixation","","","","","","","",""
"","","","","","audio-keyboard-response","187","333491","0.0-218.0","17","1","2023-10-31 18:56:44","a725c3012b74bf33a1020a98cb69c237","45.71.5.119","Mozilla/5.0 (Windows NT 10.0; Win64; x64) AppleWebKit/537.36 (KHTML, like Gecko) Chrome/118.0.0.0 Safari/537.36 Edg/118.0.2088.76","WebKit","Edge","118.0.2088.76","Windows","10.0","null","es-419,es;q=0.9,es-ES;q=0.8,en;q=0.7,en-GB;q=0.6,en-US;q=0.5","true","null","tones/440hz_short.mp3","null","","","tone_number_task","0","veintiocho","tones/440hz_short.mp3","150","60","2","32",""
"","","","","","html-keyboard-response","188","333875","0.0-221.0-0.0","17","1","2023-10-31 18:56:44","a725c3012b74bf33a1020a98cb69c237","45.71.5.119","Mozilla/5.0 (Windows NT 10.0; Win64; x64) AppleWebKit/537.36 (KHTML, like Gecko) Chrome/118.0.0.0 Safari/537.36 Edg/118.0.2088.76","WebKit","Edge","118.0.2088.76","Windows","10.0","null","es-419,es;q=0.9,es-ES;q=0.8,en;q=0.7,en-GB;q=0.6,en-US;q=0.5","true","373","tones/440hz_short.mp3","a","","","empty_block","","veintiocho","","","","2","32",""
"","","","","","html-keyboard-response","189","334145","0.0-221.0-1.0","17","1","2023-10-31 18:56:44","a725c3012b74bf33a1020a98cb69c237","45.71.5.119","Mozilla/5.0 (Windows NT 10.0; Win64; x64) AppleWebKit/537.36 (KHTML, like Gecko) Chrome/118.0.0.0 Safari/537.36 Edg/118.0.2088.76","WebKit","Edge","118.0.2088.76","Windows","10.0","null","es-419,es;q=0.9,es-ES;q=0.8,en;q=0.7,en-GB;q=0.6,en-US;q=0.5","true","259","tones/440hz_short.mp3","j","","","empty_block","","veintiocho","","","","2","32",""
"","","","","","html-keyboard-response","190","337030","0.0-223.0","17","1","2023-10-31 18:56:44","a725c3012b74bf33a1020a98cb69c237","45.71.5.119","Mozilla/5.0 (Windows NT 10.0; Win64; x64) AppleWebKit/537.36 (KHTML, like Gecko) Chrome/118.0.0.0 Safari/537.36 Edg/118.0.2088.76","WebKit","Edge","118.0.2088.76","Windows","10.0","null","es-419,es;q=0.9,es-ES;q=0.8,en;q=0.7,en-GB;q=0.6,en-US;q=0.5","true","null","<div style=""font-size:100px;"">X</div>","null","","","fixation","","","","","","","",""
