"success","timeout","failed_images","failed_audio","failed_video","trial_type","trial_index","time_elapsed","internal_node_id","run_id","condition","recorded_at","source_code_version","ip","user_agent","device","browser","browser_version","platform","platform_version","referer","accept_language","check","rt","stimulus","response","question_order","url","task","delay","number","audioFile","trial_duration","font_size","block","round","value"
"true","false","[]","[]","[]","preload","0","415","0.0-0.0","62","1","2023-11-01 17:07:11","a725c3012b74bf33a1020a98cb69c237","45.71.5.119","Mozilla/5.0 (Windows NT 10.0; Win64; x64) AppleWebKit/537.36 (KHTML, like Gecko) Chrome/118.0.0.0 Safari/537.36","WebKit","Chrome","118.0.0.0","Windows","10.0","null","es-ES,es;q=0.9","true","","","","","","","","","","","","","",""
"true","","","","","fullscreen","1","29677","0.0-1.0","62","1","2023-11-01 17:07:11","a725c3012b74bf33a1020a98cb69c237","45.71.5.119","Mozilla/5.0 (Windows NT 10.0; Win64; x64) AppleWebKit/537.36 (KHTML, like Gecko) Chrome/118.0.0.0 Safari/537.36","WebKit","Chrome","118.0.0.0","Windows","10.0","null","es-ES,es;q=0.9","true","","","","","","","","","","","","","",""
"","","","","","html-button-response","2","35381","0.0-2.0","62","1","2023-11-01 17:07:11","a725c3012b74bf33a1020a98cb69c237","45.71.5.119","Mozilla/5.0 (Windows NT 10.0; Win64; x64) AppleWebKit/537.36 (KHTML, like Gecko) Chrome/118.0.0.0 Safari/537.36","WebKit","Chrome","118.0.0.0","Windows","10.0","null","es-ES,es;q=0.9","true","5702","<p style=""font-size:24px; color:red;"">Cosas importantes a tener en cuenta antes de comenzar el experimento:</p>","0","","","","","","","","","","",""
"","","","","","html-button-response","3","42446","0.0-3.0","62","1","2023-11-01 17:07:11","a725c3012b74bf33a1020a98cb69c237","45.71.5.119","Mozilla/5.0 (Windows NT 10.0; Win64; x64) AppleWebKit/537.36 (KHTML, like Gecko) Chrome/118.0.0.0 Safari/537.36","WebKit","Chrome","118.0.0.0","Windows","10.0","null","es-ES,es;q=0.9","true","7064","<p style=""font-size:24px;"">El experimento dura aproximadamente 15 minutos.</p><p style=""font-size:24px;"">Por favor, no cierres la ventana del navegador durante el experimento.</p><p style=""font-size:24px;"">Si se completa de forma parcial, no se guardará ningún resultado.</p>","0","","","","","","","","","","",""
"","","","","","html-button-response","4","45641","0.0-4.0","62","1","2023-11-01 17:07:11","a725c3012b74bf33a1020a98cb69c237","45.71.5.119","Mozilla/5.0 (Windows NT 10.0; Win64; x64) AppleWebKit/537.36 (KHTML, like Gecko) Chrome/118.0.0.0 Safari/537.36","WebKit","Chrome","118.0.0.0","Windows","10.0","null","es-ES,es;q=0.9","true","3193","<p style=""font-size:24px;"">El experimento contiene estímulos sonoros.</p>","0","","","","","","","","","","",""
"","","","","","audio-button-response","5","51132","0.0-5.0-0.0","62","1","2023-11-01 17:07:11","a725c3012b74bf33a1020a98cb69c237","45.71.5.119","Mozilla/5.0 (Windows NT 10.0; Win64; x64) AppleWebKit/537.36 (KHTML, like Gecko) Chrome/118.0.0.0 Safari/537.36","WebKit","Chrome","118.0.0.0","Windows","10.0","null","es-ES,es;q=0.9","true","4789","tones/440hz_short.mp3","1","","","","","","","","","","",""
"","","","","","audio-button-response","6","53592","0.0-6.0-0.0","62","1","2023-11-01 17:07:11","a725c3012b74bf33a1020a98cb69c237","45.71.5.119","Mozilla/5.0 (Windows NT 10.0; Win64; x64) AppleWebKit/537.36 (KHTML, like Gecko) Chrome/118.0.0.0 Safari/537.36","WebKit","Chrome","118.0.0.0","Windows","10.0","null","es-ES,es;q=0.9","true","2461","tones/880hz_short.mp3","1","","","","","","","","","","",""
"","","","","","survey-html-form","7","58692","0.0-7.0","62","1","2023-11-01 17:07:11","a725c3012b74bf33a1020a98cb69c237","45.71.5.119","Mozilla/5.0 (Windows NT 10.0; Win64; x64) AppleWebKit/537.36 (KHTML, like Gecko) Chrome/118.0.0.0 Safari/537.36","WebKit","Chrome","118.0.0.0","Windows","10.0","null","es-ES,es;q=0.9","true","5097","","{""response"":""26""}","","","","","","","","","","",""
"","","","","","survey-multi-choice","8","64176","0.0-8.0","62","1","2023-11-01 17:07:11","a725c3012b74bf33a1020a98cb69c237","45.71.5.119","Mozilla/5.0 (Windows NT 10.0; Win64; x64) AppleWebKit/537.36 (KHTML, like Gecko) Chrome/118.0.0.0 Safari/537.36","WebKit","Chrome","118.0.0.0","Windows","10.0","null","es-ES,es;q=0.9","true","5481","","{""gender"":""Mujer"",""hand"":""Derecha""}","[0,1]","","","","","","","","","",""
"","","","","","external-html","9","129447","0.0-9.0","62","1","2023-11-01 17:07:11","a725c3012b74bf33a1020a98cb69c237","45.71.5.119","Mozilla/5.0 (Windows NT 10.0; Win64; x64) AppleWebKit/537.36 (KHTML, like Gecko) Chrome/118.0.0.0 Safari/537.36","WebKit","Chrome","118.0.0.0","Windows","10.0","null","es-ES,es;q=0.9","true","64591","","","","instructions/instructions.html","","","","","","","","",""
"","","","","","external-html","10","173033","0.0-10.0","62","1","2023-11-01 17:07:11","a725c3012b74bf33a1020a98cb69c237","45.71.5.119","Mozilla/5.0 (Windows NT 10.0; Win64; x64) AppleWebKit/537.36 (KHTML, like Gecko) Chrome/118.0.0.0 Safari/537.36","WebKit","Chrome","118.0.0.0","Windows","10.0","null","es-ES,es;q=0.9","true","42948","","","","instructions/animation.html","","","","","","","","",""
"","","","","","html-keyboard-response","11","175661","0.0-11.0-0.0","62","1","2023-11-01 17:07:11","a725c3012b74bf33a1020a98cb69c237","45.71.5.119","Mozilla/5.0 (Windows NT 10.0; Win64; x64) AppleWebKit/537.36 (KHTML, like Gecko) Chrome/118.0.0.0 Safari/537.36","WebKit","Chrome","118.0.0.0","Windows","10.0","null","es-ES,es;q=0.9","true","null","<div style=""font-size:100px;"">X</div>","null","","","fixation","","","","","","","",""
"","","","","","audio-keyboard-response","12","176813","0.0-11.0-1.0","62","1","2023-11-01 17:07:11","a725c3012b74bf33a1020a98cb69c237","45.71.5.119","Mozilla/5.0 (Windows NT 10.0; Win64; x64) AppleWebKit/537.36 (KHTML, like Gecko) Chrome/118.0.0.0 Safari/537.36","WebKit","Chrome","118.0.0.0","Windows","10.0","null","es-ES,es;q=0.9","true","null","tones/440hz_short.mp3","null","","","tone_number_task","1000","46","tones/440hz_short.mp3","1150","100","null","null",""
"","","","","","html-keyboard-response","13","177208","0.0-11.0-4.0-0.0","62","1","2023-11-01 17:07:11","a725c3012b74bf33a1020a98cb69c237","45.71.5.119","Mozilla/5.0 (Windows NT 10.0; Win64; x64) AppleWebKit/537.36 (KHTML, like Gecko) Chrome/118.0.0.0 Safari/537.36","WebKit","Chrome","118.0.0.0","Windows","10.0","null","es-ES,es;q=0.9","true","394","tones/440hz_short.mp3","s","","","empty_block","","46","","","","null","null",""
"","","","","","html-keyboard-response","14","177879","0.0-11.0-4.0-1.0","62","1","2023-11-01 17:07:11","a725c3012b74bf33a1020a98cb69c237","45.71.5.119","Mozilla/5.0 (Windows NT 10.0; Win64; x64) AppleWebKit/537.36 (KHTML, like Gecko) Chrome/118.0.0.0 Safari/537.36","WebKit","Chrome","118.0.0.0","Windows","10.0","null","es-ES,es;q=0.9","true","669","tones/440hz_short.mp3","k","","","empty_block","","46","","","","null","null",""
"","","","","","html-button-response","15","185342","0.0-11.0-6.0-0.0","62","1","2023-11-01 17:07:11","a725c3012b74bf33a1020a98cb69c237","45.71.5.119","Mozilla/5.0 (Windows NT 10.0; Win64; x64) AppleWebKit/537.36 (KHTML, like Gecko) Chrome/118.0.0.0 Safari/537.36","WebKit","Chrome","118.0.0.0","Windows","10.0","null","es-ES,es;q=0.9","true","7461","
  '<p style=""font-size:24px; color:red;"">Incorrecto</p><p> Respondiste alguno de los estímulos de manera incorrecta.</p><p>Por favor, repasá las instrucciones y seguimos desde donde nos quedamos. </p>
  ","0","","","","","","","","","","",""
"","","","","","external-html","16","191366","0.0-11.0-6.0-1.0","62","1","2023-11-01 17:07:11","a725c3012b74bf33a1020a98cb69c237","45.71.5.119","Mozilla/5.0 (Windows NT 10.0; Win64; x64) AppleWebKit/537.36 (KHTML, like Gecko) Chrome/118.0.0.0 Safari/537.36","WebKit","Chrome","118.0.0.0","Windows","10.0","null","es-ES,es;q=0.9","true","5340","","","","instructions/instructions_B.html","","","","","","","","",""
"","","","","","html-keyboard-response","17","193993","0.0-11.1-0.1","62","1","2023-11-01 17:07:11","a725c3012b74bf33a1020a98cb69c237","45.71.5.119","Mozilla/5.0 (Windows NT 10.0; Win64; x64) AppleWebKit/537.36 (KHTML, like Gecko) Chrome/118.0.0.0 Safari/537.36","WebKit","Chrome","118.0.0.0","Windows","10.0","null","es-ES,es;q=0.9","true","null","<div style=""font-size:100px;"">X</div>","null","","","fixation","","","","","","","",""
"","","","","","audio-keyboard-response","18","195152","0.0-11.1-1.1","62","1","2023-11-01 17:07:11","a725c3012b74bf33a1020a98cb69c237","45.71.5.119","Mozilla/5.0 (Windows NT 10.0; Win64; x64) AppleWebKit/537.36 (KHTML, like Gecko) Chrome/118.0.0.0 Safari/537.36","WebKit","Chrome","118.0.0.0","Windows","10.0","null","es-ES,es;q=0.9","true","null","tones/440hz_short.mp3","null","","","tone_number_task","1000","46","tones/440hz_short.mp3","1150","100","null","null",""
"","","","","","html-keyboard-response","19","195588","0.0-11.1-4.1-0.1","62","1","2023-11-01 17:07:11","a725c3012b74bf33a1020a98cb69c237","45.71.5.119","Mozilla/5.0 (Windows NT 10.0; Win64; x64) AppleWebKit/537.36 (KHTML, like Gecko) Chrome/118.0.0.0 Safari/537.36","WebKit","Chrome","118.0.0.0","Windows","10.0","null","es-ES,es;q=0.9","true","434","tones/440hz_short.mp3","a","","","empty_block","","46","","","","null","null",""
"","","","","","html-keyboard-response","20","196045","0.0-11.1-4.1-1.1","62","1","2023-11-01 17:07:11","a725c3012b74bf33a1020a98cb69c237","45.71.5.119","Mozilla/5.0 (Windows NT 10.0; Win64; x64) AppleWebKit/537.36 (KHTML, like Gecko) Chrome/118.0.0.0 Safari/537.36","WebKit","Chrome","118.0.0.0","Windows","10.0","null","es-ES,es;q=0.9","true","455","tones/440hz_short.mp3","k","","","empty_block","","46","","","","null","null",""
"","","","","","html-keyboard-response","21","198673","0.0-13.0-0.0","62","1","2023-11-01 17:07:11","a725c3012b74bf33a1020a98cb69c237","45.71.5.119","Mozilla/5.0 (Windows NT 10.0; Win64; x64) AppleWebKit/537.36 (KHTML, like Gecko) Chrome/118.0.0.0 Safari/537.36","WebKit","Chrome","118.0.0.0","Windows","10.0","null","es-ES,es;q=0.9","true","null","<div style=""font-size:100px;"">X</div>","null","","","fixation","","","","","","","",""
"","","","","","audio-keyboard-response","22","199333","0.0-13.0-1.0","62","1","2023-11-01 17:07:11","a725c3012b74bf33a1020a98cb69c237","45.71.5.119","Mozilla/5.0 (Windows NT 10.0; Win64; x64) AppleWebKit/537.36 (KHTML, like Gecko) Chrome/118.0.0.0 Safari/537.36","WebKit","Chrome","118.0.0.0","Windows","10.0","null","es-ES,es;q=0.9","true","null","tones/440hz_short.mp3","null","","","tone_number_task","500","66","tones/440hz_short.mp3","650","100","null","null",""
"","","","","","html-keyboard-response","23","199701","0.0-13.0-4.0-0.0","62","1","2023-11-01 17:07:11","a725c3012b74bf33a1020a98cb69c237","45.71.5.119","Mozilla/5.0 (Windows NT 10.0; Win64; x64) AppleWebKit/537.36 (KHTML, like Gecko) Chrome/118.0.0.0 Safari/537.36","WebKit","Chrome","118.0.0.0","Windows","10.0","null","es-ES,es;q=0.9","true","365","tones/440hz_short.mp3","a","","","empty_block","","66","","","","null","null",""
"","","","","","html-keyboard-response","24","199942","0.0-13.0-4.0-1.0","62","1","2023-11-01 17:07:11","a725c3012b74bf33a1020a98cb69c237","45.71.5.119","Mozilla/5.0 (Windows NT 10.0; Win64; x64) AppleWebKit/537.36 (KHTML, like Gecko) Chrome/118.0.0.0 Safari/537.36","WebKit","Chrome","118.0.0.0","Windows","10.0","null","es-ES,es;q=0.9","true","240","tones/440hz_short.mp3","k","","","empty_block","","66","","","","null","null",""
"","","","","","html-keyboard-response","25","202563","0.0-15.0-0.0","62","1","2023-11-01 17:07:11","a725c3012b74bf33a1020a98cb69c237","45.71.5.119","Mozilla/5.0 (Windows NT 10.0; Win64; x64) AppleWebKit/537.36 (KHTML, like Gecko) Chrome/118.0.0.0 Safari/537.36","WebKit","Chrome","118.0.0.0","Windows","10.0","null","es-ES,es;q=0.9","true","null","<div style=""font-size:100px;"">X</div>","null","","","fixation","","","","","","","",""
"","","","","","audio-keyboard-response","26","202873","0.0-15.0-1.0","62","1","2023-11-01 17:07:11","a725c3012b74bf33a1020a98cb69c237","45.71.5.119","Mozilla/5.0 (Windows NT 10.0; Win64; x64) AppleWebKit/537.36 (KHTML, like Gecko) Chrome/118.0.0.0 Safari/537.36","WebKit","Chrome","118.0.0.0","Windows","10.0","null","es-ES,es;q=0.9","true","null","tones/880hz_short.mp3","null","","","tone_number_task","150","67","tones/880hz_short.mp3","300","100","null","null",""
"","","","","","html-keyboard-response","27","203132","0.0-15.0-4.0-0.0","62","1","2023-11-01 17:07:11","a725c3012b74bf33a1020a98cb69c237","45.71.5.119","Mozilla/5.0 (Windows NT 10.0; Win64; x64) AppleWebKit/537.36 (KHTML, like Gecko) Chrome/118.0.0.0 Safari/537.36","WebKit","Chrome","118.0.0.0","Windows","10.0","null","es-ES,es;q=0.9","true","256","tones/880hz_short.mp3","s","","","empty_block","","67","","","","null","null",""
"","","","","","html-keyboard-response","28","204114","0.0-15.0-4.0-1.0","62","1","2023-11-01 17:07:11","a725c3012b74bf33a1020a98cb69c237","45.71.5.119","Mozilla/5.0 (Windows NT 10.0; Win64; x64) AppleWebKit/537.36 (KHTML, like Gecko) Chrome/118.0.0.0 Safari/537.36","WebKit","Chrome","118.0.0.0","Windows","10.0","null","es-ES,es;q=0.9","true","981","tones/880hz_short.mp3","k","","","empty_block","","67","","","","null","null",""
"","","","","","html-keyboard-response","29","206743","0.0-17.0-0.0","62","1","2023-11-01 17:07:11","a725c3012b74bf33a1020a98cb69c237","45.71.5.119","Mozilla/5.0 (Windows NT 10.0; Win64; x64) AppleWebKit/537.36 (KHTML, like Gecko) Chrome/118.0.0.0 Safari/537.36","WebKit","Chrome","118.0.0.0","Windows","10.0","null","es-ES,es;q=0.9","true","null","<div style=""font-size:100px;"">X</div>","null","","","fixation","","","","","","","",""
"","","","","","audio-keyboard-response","30","206953","0.0-17.0-1.0","62","1","2023-11-01 17:07:11","a725c3012b74bf33a1020a98cb69c237","45.71.5.119","Mozilla/5.0 (Windows NT 10.0; Win64; x64) AppleWebKit/537.36 (KHTML, like Gecko) Chrome/118.0.0.0 Safari/537.36","WebKit","Chrome","118.0.0.0","Windows","10.0","null","es-ES,es;q=0.9","true","null","tones/880hz_short.mp3","null","","","tone_number_task","50","23","tones/880hz_short.mp3","200","100","null","null",""
"","","","","","html-keyboard-response","31","207690","0.0-17.0-4.0-0.0","62","1","2023-11-01 17:07:11","a725c3012b74bf33a1020a98cb69c237","45.71.5.119","Mozilla/5.0 (Windows NT 10.0; Win64; x64) AppleWebKit/537.36 (KHTML, like Gecko) Chrome/118.0.0.0 Safari/537.36","WebKit","Chrome","118.0.0.0","Windows","10.0","null","es-ES,es;q=0.9","true","735","tones/880hz_short.mp3","s","","","empty_block","","23","","","","null","null",""
"","","","","","html-keyboard-response","32","207916","0.0-17.0-4.0-1.0","62","1","2023-11-01 17:07:11","a725c3012b74bf33a1020a98cb69c237","45.71.5.119","Mozilla/5.0 (Windows NT 10.0; Win64; x64) AppleWebKit/537.36 (KHTML, like Gecko) Chrome/118.0.0.0 Safari/537.36","WebKit","Chrome","118.0.0.0","Windows","10.0","null","es-ES,es;q=0.9","true","224","tones/880hz_short.mp3","j","","","empty_block","","23","","","","null","null",""
"","","","","","html-button-response","33","215256","0.0-19.0","62","1","2023-11-01 17:07:11","a725c3012b74bf33a1020a98cb69c237","45.71.5.119","Mozilla/5.0 (Windows NT 10.0; Win64; x64) AppleWebKit/537.36 (KHTML, like Gecko) Chrome/118.0.0.0 Safari/537.36","WebKit","Chrome","118.0.0.0","Windows","10.0","null","es-ES,es;q=0.9","true","7336","
  <h1> Muy bien </h1>
  <p> Ahora, en vez de ser presentados en dígitos, los números vendrán escritos en palabras. </p>
  <p> Por ejemplo, en vez de 44 te aparecerá ""cuarenta y cuatro"". </p>
  ","0","","","","","","","","","","",""
"","","","","","html-keyboard-response","34","217883","0.0-20.0-0.0","62","1","2023-11-01 17:07:11","a725c3012b74bf33a1020a98cb69c237","45.71.5.119","Mozilla/5.0 (Windows NT 10.0; Win64; x64) AppleWebKit/537.36 (KHTML, like Gecko) Chrome/118.0.0.0 Safari/537.36","WebKit","Chrome","118.0.0.0","Windows","10.0","null","es-ES,es;q=0.9","true","null","<div style=""font-size:100px;"">X</div>","null","","","fixation","","","","","","","",""
"","","","","","audio-keyboard-response","35","218510","0.0-20.0-1.0","62","1","2023-11-01 17:07:11","a725c3012b74bf33a1020a98cb69c237","45.71.5.119","Mozilla/5.0 (Windows NT 10.0; Win64; x64) AppleWebKit/537.36 (KHTML, like Gecko) Chrome/118.0.0.0 Safari/537.36","WebKit","Chrome","118.0.0.0","Windows","10.0","null","es-ES,es;q=0.9","true","619","tones/880hz_short.mp3","s","","","tone_number_task","1000","veintisiete","tones/880hz_short.mp3","1150","60","null","null",""
"","","","","","html-keyboard-response","36","218903","0.0-20.0-2.0-0.0","62","1","2023-11-01 17:07:11","a725c3012b74bf33a1020a98cb69c237","45.71.5.119","Mozilla/5.0 (Windows NT 10.0; Win64; x64) AppleWebKit/537.36 (KHTML, like Gecko) Chrome/118.0.0.0 Safari/537.36","WebKit","Chrome","118.0.0.0","Windows","10.0","null","es-ES,es;q=0.9","true","null","","null","","","delay_block","","","","","","null","null",""
"","","","","","html-keyboard-response","37","219062","0.0-20.0-2.0-1.0","62","1","2023-11-01 17:07:11","a725c3012b74bf33a1020a98cb69c237","45.71.5.119","Mozilla/5.0 (Windows NT 10.0; Win64; x64) AppleWebKit/537.36 (KHTML, like Gecko) Chrome/118.0.0.0 Safari/537.36","WebKit","Chrome","118.0.0.0","Windows","10.0","null","es-ES,es;q=0.9","true","null","<p id=""stimulus"" style=""font-size:60px;"">veintisiete</p>","null","","","tone_number_task_remaining_before_delay","","veintisiete","","531","60","null","null",""
"","","","","","html-keyboard-response","38","219780","0.0-20.0-5.0-0.0","62","1","2023-11-01 17:07:11","a725c3012b74bf33a1020a98cb69c237","45.71.5.119","Mozilla/5.0 (Windows NT 10.0; Win64; x64) AppleWebKit/537.36 (KHTML, like Gecko) Chrome/118.0.0.0 Safari/537.36","WebKit","Chrome","118.0.0.0","Windows","10.0","null","es-ES,es;q=0.9","true","714","<p id=""stimulus"" style=""font-size:60px;"">veintisiete</p>","j","","","empty_block","","veintisiete","","","","null","null",""
"","","","","","html-button-response","39","259895","0.0-22.0","62","1","2023-11-01 17:07:11","a725c3012b74bf33a1020a98cb69c237","45.71.5.119","Mozilla/5.0 (Windows NT 10.0; Win64; x64) AppleWebKit/537.36 (KHTML, like Gecko) Chrome/118.0.0.0 Safari/537.36","WebKit","Chrome","118.0.0.0","Windows","10.0","null","es-ES,es;q=0.9","true","40112","
  <h1> Fin del Entrenamiento </h1>
  <p> ¡Felicitaciones, terminaste el entrenamiento! Ahora vamos a comenzar con el experimento. </p>
  <p> Es importante tener en cuenta que consta de cuatro bloques.</p>
  <p> Podés aprovechar los momentos entre bloques para tomar un breve descanso o tomar agua entre cada uno</p>
  <p> Recordá que tenés que responder lo más rápido que puedas, pero sin equivocarte. </p>
  ","0","","","","","","","","","","",""
"","","","","","external-html","40","282448","0.0-23.0","62","1","2023-11-01 17:07:11","a725c3012b74bf33a1020a98cb69c237","45.71.5.119","Mozilla/5.0 (Windows NT 10.0; Win64; x64) AppleWebKit/537.36 (KHTML, like Gecko) Chrome/118.0.0.0 Safari/537.36","WebKit","Chrome","118.0.0.0","Windows","10.0","null","es-ES,es;q=0.9","true","22189","","","","instructions/instructions_digits_first.html","","","","","","","","",""
"","","","","","call-function","41","282454","0.0-24.0","62","1","2023-11-01 17:07:11","a725c3012b74bf33a1020a98cb69c237","45.71.5.119","Mozilla/5.0 (Windows NT 10.0; Win64; x64) AppleWebKit/537.36 (KHTML, like Gecko) Chrome/118.0.0.0 Safari/537.36","WebKit","Chrome","118.0.0.0","Windows","10.0","null","es-ES,es;q=0.9","true","","","","","","","","","","","","","",""
"","","","","","html-keyboard-response","42","285084","0.0-25.0","62","1","2023-11-01 17:07:11","a725c3012b74bf33a1020a98cb69c237","45.71.5.119","Mozilla/5.0 (Windows NT 10.0; Win64; x64) AppleWebKit/537.36 (KHTML, like Gecko) Chrome/118.0.0.0 Safari/537.36","WebKit","Chrome","118.0.0.0","Windows","10.0","null","es-ES,es;q=0.9","true","null","<div style=""font-size:100px;"">X</div>","null","","","fixation","","","","","","","",""
"","","","","","audio-keyboard-response","43","285344","0.0-26.0","62","1","2023-11-01 17:07:11","a725c3012b74bf33a1020a98cb69c237","45.71.5.119","Mozilla/5.0 (Windows NT 10.0; Win64; x64) AppleWebKit/537.36 (KHTML, like Gecko) Chrome/118.0.0.0 Safari/537.36","WebKit","Chrome","118.0.0.0","Windows","10.0","null","es-ES,es;q=0.9","true","null","tones/880hz_short.mp3","null","","","tone_number_task","102.5","37","tones/880hz_short.mp3","252.5","100","0","0",""
"","","","","","html-keyboard-response","44","285579","0.0-29.0-0.0","62","1","2023-11-01 17:07:11","a725c3012b74bf33a1020a98cb69c237","45.71.5.119","Mozilla/5.0 (Windows NT 10.0; Win64; x64) AppleWebKit/537.36 (KHTML, like Gecko) Chrome/118.0.0.0 Safari/537.36","WebKit","Chrome","118.0.0.0","Windows","10.0","null","es-ES,es;q=0.9","true","233","tones/880hz_short.mp3","s","","","empty_block","","37","","","","0","0",""
"","","","","","html-keyboard-response","45","286785","0.0-29.0-1.0","62","1","2023-11-01 17:07:11","a725c3012b74bf33a1020a98cb69c237","45.71.5.119","Mozilla/5.0 (Windows NT 10.0; Win64; x64) AppleWebKit/537.36 (KHTML, like Gecko) Chrome/118.0.0.0 Safari/537.36","WebKit","Chrome","118.0.0.0","Windows","10.0","null","es-ES,es;q=0.9","true","null","tones/880hz_short.mp3","null","","","empty_block","","37","","","","0","0",""
"","","","","","html-keyboard-response","46","289414","0.0-31.0","62","1","2023-11-01 17:07:11","a725c3012b74bf33a1020a98cb69c237","45.71.5.119","Mozilla/5.0 (Windows NT 10.0; Win64; x64) AppleWebKit/537.36 (KHTML, like Gecko) Chrome/118.0.0.0 Safari/537.36","WebKit","Chrome","118.0.0.0","Windows","10.0","null","es-ES,es;q=0.9","true","null","<div style=""font-size:100px;"">X</div>","null","","","fixation","","","","","","","",""
"","","","","","audio-keyboard-response","47","289994","0.0-32.0","62","1","2023-11-01 17:07:11","a725c3012b74bf33a1020a98cb69c237","45.71.5.119","Mozilla/5.0 (Windows NT 10.0; Win64; x64) AppleWebKit/537.36 (KHTML, like Gecko) Chrome/118.0.0.0 Safari/537.36","WebKit","Chrome","118.0.0.0","Windows","10.0","null","es-ES,es;q=0.9","true","579","tones/440hz_short.mp3","a","","","tone_number_task","992.5","29","tones/440hz_short.mp3","1142.5","100","0","1",""
"","","","","","html-keyboard-response","48","290414","0.0-33.0-0.0","62","1","2023-11-01 17:07:11","a725c3012b74bf33a1020a98cb69c237","45.71.5.119","Mozilla/5.0 (Windows NT 10.0; Win64; x64) AppleWebKit/537.36 (KHTML, like Gecko) Chrome/118.0.0.0 Safari/537.36","WebKit","Chrome","118.0.0.0","Windows","10.0","null","es-ES,es;q=0.9","true","null","","null","","","delay_block","","","","","","0","1",""
"","","","","","html-keyboard-response","49","290575","0.0-33.0-1.0","62","1","2023-11-01 17:07:11","a725c3012b74bf33a1020a98cb69c237","45.71.5.119","Mozilla/5.0 (Windows NT 10.0; Win64; x64) AppleWebKit/537.36 (KHTML, like Gecko) Chrome/118.0.0.0 Safari/537.36","WebKit","Chrome","118.0.0.0","Windows","10.0","null","es-ES,es;q=0.9","true","null","<p id=""stimulus"" style=""font-size:100px;"">29</p>","null","","","tone_number_task_remaining_before_delay","","29","","563.5","100","0","1",""
"","","","","","html-keyboard-response","50","291053","0.0-36.0-0.0","62","1","2023-11-01 17:07:11","a725c3012b74bf33a1020a98cb69c237","45.71.5.119","Mozilla/5.0 (Windows NT 10.0; Win64; x64) AppleWebKit/537.36 (KHTML, like Gecko) Chrome/118.0.0.0 Safari/537.36","WebKit","Chrome","118.0.0.0","Windows","10.0","null","es-ES,es;q=0.9","true","476","<p id=""stimulus"" style=""font-size:100px;"">29</p>","j","","","empty_block","","29","","","","0","1",""
"","","","","","html-keyboard-response","51","293674","0.0-37.0","62","1","2023-11-01 17:07:11","a725c3012b74bf33a1020a98cb69c237","45.71.5.119","Mozilla/5.0 (Windows NT 10.0; Win64; x64) AppleWebKit/537.36 (KHTML, like Gecko) Chrome/118.0.0.0 Safari/537.36","WebKit","Chrome","118.0.0.0","Windows","10.0","null","es-ES,es;q=0.9","true","null","<div style=""font-size:100px;"">X</div>","null","","","fixation","","","","","","","",""
"","","","","","audio-keyboard-response","52","293829","0.0-38.0","62","1","2023-11-01 17:07:11","a725c3012b74bf33a1020a98cb69c237","45.71.5.119","Mozilla/5.0 (Windows NT 10.0; Win64; x64) AppleWebKit/537.36 (KHTML, like Gecko) Chrome/118.0.0.0 Safari/537.36","WebKit","Chrome","118.0.0.0","Windows","10.0","null","es-ES,es;q=0.9","true","null","tones/880hz_short.mp3","null","","","tone_number_task","0","47","tones/880hz_short.mp3","150","100","0","2",""
"","","","","","html-keyboard-response","53","295033","0.0-41.0-0.0","62","1","2023-11-01 17:07:11","a725c3012b74bf33a1020a98cb69c237","45.71.5.119","Mozilla/5.0 (Windows NT 10.0; Win64; x64) AppleWebKit/537.36 (KHTML, like Gecko) Chrome/118.0.0.0 Safari/537.36","WebKit","Chrome","118.0.0.0","Windows","10.0","null","es-ES,es;q=0.9","true","null","tones/880hz_short.mp3","null","","","empty_block","","47","","","","0","2",""
"","","","","","html-keyboard-response","54","295216","0.0-41.0-1.0","62","1","2023-11-01 17:07:11","a725c3012b74bf33a1020a98cb69c237","45.71.5.119","Mozilla/5.0 (Windows NT 10.0; Win64; x64) AppleWebKit/537.36 (KHTML, like Gecko) Chrome/118.0.0.0 Safari/537.36","WebKit","Chrome","118.0.0.0","Windows","10.0","null","es-ES,es;q=0.9","true","181","tones/880hz_short.mp3","s","","","empty_block","","47","","","","0","2",""
"","","","","","html-keyboard-response","55","297844","0.0-43.0","62","1","2023-11-01 17:07:11","a725c3012b74bf33a1020a98cb69c237","45.71.5.119","Mozilla/5.0 (Windows NT 10.0; Win64; x64) AppleWebKit/537.36 (KHTML, like Gecko) Chrome/118.0.0.0 Safari/537.36","WebKit","Chrome","118.0.0.0","Windows","10.0","null","es-ES,es;q=0.9","true","null","<div style=""font-size:100px;"">X</div>","null","","","fixation","","","","","","","",""
"","","","","","audio-keyboard-response","56","298426","0.0-44.0","62","1","2023-11-01 17:07:11","a725c3012b74bf33a1020a98cb69c237","45.71.5.119","Mozilla/5.0 (Windows NT 10.0; Win64; x64) AppleWebKit/537.36 (KHTML, like Gecko) Chrome/118.0.0.0 Safari/537.36","WebKit","Chrome","118.0.0.0","Windows","10.0","null","es-ES,es;q=0.9","true","579","tones/440hz_short.mp3","a","","","tone_number_task","992.5","53","tones/440hz_short.mp3","1142.5","100","0","3",""
"","","","","","html-keyboard-response","57","298842","0.0-45.0-0.0","62","1","2023-11-01 17:07:11","a725c3012b74bf33a1020a98cb69c237","45.71.5.119","Mozilla/5.0 (Windows NT 10.0; Win64; x64) AppleWebKit/537.36 (KHTML, like Gecko) Chrome/118.0.0.0 Safari/537.36","WebKit","Chrome","118.0.0.0","Windows","10.0","null","es-ES,es;q=0.9","true","null","","null","","","delay_block","","","","","","0","3",""
"","","","","","html-keyboard-response","58","299003","0.0-45.0-1.0","62","1","2023-11-01 17:07:11","a725c3012b74bf33a1020a98cb69c237","45.71.5.119","Mozilla/5.0 (Windows NT 10.0; Win64; x64) AppleWebKit/537.36 (KHTML, like Gecko) Chrome/118.0.0.0 Safari/537.36","WebKit","Chrome","118.0.0.0","Windows","10.0","null","es-ES,es;q=0.9","true","null","<p id=""stimulus"" style=""font-size:100px;"">53</p>","null","","","tone_number_task_remaining_before_delay","","53","","563.5","100","0","3",""
"","","","","","html-keyboard-response","59","299526","0.0-48.0-0.0","62","1","2023-11-01 17:07:11","a725c3012b74bf33a1020a98cb69c237","45.71.5.119","Mozilla/5.0 (Windows NT 10.0; Win64; x64) AppleWebKit/537.36 (KHTML, like Gecko) Chrome/118.0.0.0 Safari/537.36","WebKit","Chrome","118.0.0.0","Windows","10.0","null","es-ES,es;q=0.9","true","521","<p id=""stimulus"" style=""font-size:100px;"">53</p>","k","","","empty_block","","53","","","","0","3",""
"","","","","","html-keyboard-response","60","302146","0.0-49.0","62","1","2023-11-01 17:07:11","a725c3012b74bf33a1020a98cb69c237","45.71.5.119","Mozilla/5.0 (Windows NT 10.0; Win64; x64) AppleWebKit/537.36 (KHTML, like Gecko) Chrome/118.0.0.0 Safari/537.36","WebKit","Chrome","118.0.0.0","Windows","10.0","null","es-ES,es;q=0.9","true","null","<div style=""font-size:100px;"">X</div>","null","","","fixation","","","","","","","",""
"","","","","","audio-keyboard-response","61","302405","0.0-50.0","62","1","2023-11-01 17:07:11","a725c3012b74bf33a1020a98cb69c237","45.71.5.119","Mozilla/5.0 (Windows NT 10.0; Win64; x64) AppleWebKit/537.36 (KHTML, like Gecko) Chrome/118.0.0.0 Safari/537.36","WebKit","Chrome","118.0.0.0","Windows","10.0","null","es-ES,es;q=0.9","true","null","tones/440hz_short.mp3","null","","","tone_number_task","102.5","56","tones/440hz_short.mp3","252.5","100","0","4",""
"","","","","","html-keyboard-response","62","302677","0.0-53.0-0.0","62","1","2023-11-01 17:07:11","a725c3012b74bf33a1020a98cb69c237","45.71.5.119","Mozilla/5.0 (Windows NT 10.0; Win64; x64) AppleWebKit/537.36 (KHTML, like Gecko) Chrome/118.0.0.0 Safari/537.36","WebKit","Chrome","118.0.0.0","Windows","10.0","null","es-ES,es;q=0.9","true","270","tones/440hz_short.mp3","a","","","empty_block","","56","","","","0","4",""
"","","","","","html-keyboard-response","63","303885","0.0-53.0-1.0","62","1","2023-11-01 17:07:11","a725c3012b74bf33a1020a98cb69c237","45.71.5.119","Mozilla/5.0 (Windows NT 10.0; Win64; x64) AppleWebKit/537.36 (KHTML, like Gecko) Chrome/118.0.0.0 Safari/537.36","WebKit","Chrome","118.0.0.0","Windows","10.0","null","es-ES,es;q=0.9","true","null","tones/440hz_short.mp3","null","","","empty_block","","56","","","","0","4",""
"","","","","","html-keyboard-response","64","306506","0.0-55.0","62","1","2023-11-01 17:07:11","a725c3012b74bf33a1020a98cb69c237","45.71.5.119","Mozilla/5.0 (Windows NT 10.0; Win64; x64) AppleWebKit/537.36 (KHTML, like Gecko) Chrome/118.0.0.0 Safari/537.36","WebKit","Chrome","118.0.0.0","Windows","10.0","null","es-ES,es;q=0.9","true","null","<div style=""font-size:100px;"">X</div>","null","","","fixation","","","","","","","",""
"","","","","","audio-keyboard-response","65","306765","0.0-56.0","62","1","2023-11-01 17:07:11","a725c3012b74bf33a1020a98cb69c237","45.71.5.119","Mozilla/5.0 (Windows NT 10.0; Win64; x64) AppleWebKit/537.36 (KHTML, like Gecko) Chrome/118.0.0.0 Safari/537.36","WebKit","Chrome","118.0.0.0","Windows","10.0","null","es-ES,es;q=0.9","true","null","tones/440hz_short.mp3","null","","","tone_number_task","102.5","57","tones/440hz_short.mp3","252.5","100","0","5",""
"","","","","","html-keyboard-response","66","307514","0.0-59.0-0.0","62","1","2023-11-01 17:07:11","a725c3012b74bf33a1020a98cb69c237","45.71.5.119","Mozilla/5.0 (Windows NT 10.0; Win64; x64) AppleWebKit/537.36 (KHTML, like Gecko) Chrome/118.0.0.0 Safari/537.36","WebKit","Chrome","118.0.0.0","Windows","10.0","null","es-ES,es;q=0.9","true","747","tones/440hz_short.mp3","a","","","empty_block","","57","","","","0","5",""
"","","","","","html-keyboard-response","67","307849","0.0-59.0-1.0","62","1","2023-11-01 17:07:11","a725c3012b74bf33a1020a98cb69c237","45.71.5.119","Mozilla/5.0 (Windows NT 10.0; Win64; x64) AppleWebKit/537.36 (KHTML, like Gecko) Chrome/118.0.0.0 Safari/537.36","WebKit","Chrome","118.0.0.0","Windows","10.0","null","es-ES,es;q=0.9","true","331","tones/440hz_short.mp3","k","","","empty_block","","57","","","","0","5",""
"","","","","","html-keyboard-response","68","310475","0.0-61.0","62","1","2023-11-01 17:07:11","a725c3012b74bf33a1020a98cb69c237","45.71.5.119","Mozilla/5.0 (Windows NT 10.0; Win64; x64) AppleWebKit/537.36 (KHTML, like Gecko) Chrome/118.0.0.0 Safari/537.36","WebKit","Chrome","118.0.0.0","Windows","10.0","null","es-ES,es;q=0.9","true","null","<div style=""font-size:100px;"">X</div>","null","","","fixation","","","","","","","",""
"","","","","","audio-keyboard-response","69","311012","0.0-62.0","62","1","2023-11-01 17:07:11","a725c3012b74bf33a1020a98cb69c237","45.71.5.119","Mozilla/5.0 (Windows NT 10.0; Win64; x64) AppleWebKit/537.36 (KHTML, like Gecko) Chrome/118.0.0.0 Safari/537.36","WebKit","Chrome","118.0.0.0","Windows","10.0","null","es-ES,es;q=0.9","true","531","tones/440hz_short.mp3","a","","","tone_number_task","992.5","29","tones/440hz_short.mp3","1142.5","100","0","6",""
"","","","","","html-keyboard-response","70","311485","0.0-63.0-0.0","62","1","2023-11-01 17:07:11","a725c3012b74bf33a1020a98cb69c237","45.71.5.119","Mozilla/5.0 (Windows NT 10.0; Win64; x64) AppleWebKit/537.36 (KHTML, like Gecko) Chrome/118.0.0.0 Safari/537.36","WebKit","Chrome","118.0.0.0","Windows","10.0","null","es-ES,es;q=0.9","true","null","","null","","","delay_block","","","","","","0","6",""
"","","","","","html-keyboard-response","71","311645","0.0-63.0-1.0","62","1","2023-11-01 17:07:11","a725c3012b74bf33a1020a98cb69c237","45.71.5.119","Mozilla/5.0 (Windows NT 10.0; Win64; x64) AppleWebKit/537.36 (KHTML, like Gecko) Chrome/118.0.0.0 Safari/537.36","WebKit","Chrome","118.0.0.0","Windows","10.0","null","es-ES,es;q=0.9","true","null","<p id=""stimulus"" style=""font-size:100px;"">29</p>","null","","","tone_number_task_remaining_before_delay","","29","","611.5","100","0","6",""
"","","","","","html-keyboard-response","72","312010","0.0-66.0-0.0","62","1","2023-11-01 17:07:11","a725c3012b74bf33a1020a98cb69c237","45.71.5.119","Mozilla/5.0 (Windows NT 10.0; Win64; x64) AppleWebKit/537.36 (KHTML, like Gecko) Chrome/118.0.0.0 Safari/537.36","WebKit","Chrome","118.0.0.0","Windows","10.0","null","es-ES,es;q=0.9","true","363","<p id=""stimulus"" style=""font-size:100px;"">29</p>","j","","","empty_block","","29","","","","0","6",""
"","","","","","html-keyboard-response","73","314635","0.0-67.0","62","1","2023-11-01 17:07:11","a725c3012b74bf33a1020a98cb69c237","45.71.5.119","Mozilla/5.0 (Windows NT 10.0; Win64; x64) AppleWebKit/537.36 (KHTML, like Gecko) Chrome/118.0.0.0 Safari/537.36","WebKit","Chrome","118.0.0.0","Windows","10.0","null","es-ES,es;q=0.9","true","null","<div style=""font-size:100px;"">X</div>","null","","","fixation","","","","","","","",""
"","","","","","audio-keyboard-response","74","314796","0.0-68.0","62","1","2023-11-01 17:07:11","a725c3012b74bf33a1020a98cb69c237","45.71.5.119","Mozilla/5.0 (Windows NT 10.0; Win64; x64) AppleWebKit/537.36 (KHTML, like Gecko) Chrome/118.0.0.0 Safari/537.36","WebKit","Chrome","118.0.0.0","Windows","10.0","null","es-ES,es;q=0.9","true","null","tones/880hz_short.mp3","null","","","tone_number_task","0","64","tones/880hz_short.mp3","150","100","0","7",""
"","","","","","html-keyboard-response","75","315144","0.0-71.0-0.0","62","1","2023-11-01 17:07:11","a725c3012b74bf33a1020a98cb69c237","45.71.5.119","Mozilla/5.0 (Windows NT 10.0; Win64; x64) AppleWebKit/537.36 (KHTML, like Gecko) Chrome/118.0.0.0 Safari/537.36","WebKit","Chrome","118.0.0.0","Windows","10.0","null","es-ES,es;q=0.9","true","345","tones/880hz_short.mp3","s","","","empty_block","","64","","","","0","7",""
"","","","","","html-keyboard-response","76","315652","0.0-71.0-1.0","62","1","2023-11-01 17:07:11","a725c3012b74bf33a1020a98cb69c237","45.71.5.119","Mozilla/5.0 (Windows NT 10.0; Win64; x64) AppleWebKit/537.36 (KHTML, like Gecko) Chrome/118.0.0.0 Safari/537.36","WebKit","Chrome","118.0.0.0","Windows","10.0","null","es-ES,es;q=0.9","true","503","tones/880hz_short.mp3","k","","","empty_block","","64","","","","0","7",""
"","","","","","html-keyboard-response","77","318275","0.0-73.0","62","1","2023-11-01 17:07:11","a725c3012b74bf33a1020a98cb69c237","45.71.5.119","Mozilla/5.0 (Windows NT 10.0; Win64; x64) AppleWebKit/537.36 (KHTML, like Gecko) Chrome/118.0.0.0 Safari/537.36","WebKit","Chrome","118.0.0.0","Windows","10.0","null","es-ES,es;q=0.9","true","null","<div style=""font-size:100px;"">X</div>","null","","","fixation","","","","","","","",""
"","","","","","audio-keyboard-response","78","318435","0.0-74.0","62","1","2023-11-01 17:07:11","a725c3012b74bf33a1020a98cb69c237","45.71.5.119","Mozilla/5.0 (Windows NT 10.0; Win64; x64) AppleWebKit/537.36 (KHTML, like Gecko) Chrome/118.0.0.0 Safari/537.36","WebKit","Chrome","118.0.0.0","Windows","10.0","null","es-ES,es;q=0.9","true","null","tones/440hz_short.mp3","null","","","tone_number_task","0","38","tones/440hz_short.mp3","150","100","0","8",""
"","","","","","html-keyboard-response","79","319053","0.0-77.0-0.0","62","1","2023-11-01 17:07:11","a725c3012b74bf33a1020a98cb69c237","45.71.5.119","Mozilla/5.0 (Windows NT 10.0; Win64; x64) AppleWebKit/537.36 (KHTML, like Gecko) Chrome/118.0.0.0 Safari/537.36","WebKit","Chrome","118.0.0.0","Windows","10.0","null","es-ES,es;q=0.9","true","614","tones/440hz_short.mp3","a","","","empty_block","","38","","","","0","8",""
"","","","","","html-keyboard-response","80","319653","0.0-77.0-1.0","62","1","2023-11-01 17:07:11","a725c3012b74bf33a1020a98cb69c237","45.71.5.119","Mozilla/5.0 (Windows NT 10.0; Win64; x64) AppleWebKit/537.36 (KHTML, like Gecko) Chrome/118.0.0.0 Safari/537.36","WebKit","Chrome","118.0.0.0","Windows","10.0","null","es-ES,es;q=0.9","true","598","tones/440hz_short.mp3","j","","","empty_block","","38","","","","0","8",""
"","","","","","html-keyboard-response","81","322276","0.0-79.0","62","1","2023-11-01 17:07:11","a725c3012b74bf33a1020a98cb69c237","45.71.5.119","Mozilla/5.0 (Windows NT 10.0; Win64; x64) AppleWebKit/537.36 (KHTML, like Gecko) Chrome/118.0.0.0 Safari/537.36","WebKit","Chrome","118.0.0.0","Windows","10.0","null","es-ES,es;q=0.9","true","null","<div style=""font-size:100px;"">X</div>","null","","","fixation","","","","","","","",""
"","","","","","audio-keyboard-response","82","322436","0.0-80.0","62","1","2023-11-01 17:07:11","a725c3012b74bf33a1020a98cb69c237","45.71.5.119","Mozilla/5.0 (Windows NT 10.0; Win64; x64) AppleWebKit/537.36 (KHTML, like Gecko) Chrome/118.0.0.0 Safari/537.36","WebKit","Chrome","118.0.0.0","Windows","10.0","null","es-ES,es;q=0.9","true","null","tones/440hz_short.mp3","null","","","tone_number_task","0","28","tones/440hz_short.mp3","150","100","0","9",""
"","","","","","html-keyboard-response","83","322729","0.0-83.0-0.0","62","1","2023-11-01 17:07:11","a725c3012b74bf33a1020a98cb69c237","45.71.5.119","Mozilla/5.0 (Windows NT 10.0; Win64; x64) AppleWebKit/537.36 (KHTML, like Gecko) Chrome/118.0.0.0 Safari/537.36","WebKit","Chrome","118.0.0.0","Windows","10.0","null","es-ES,es;q=0.9","true","289","tones/440hz_short.mp3","a","","","empty_block","","28","","","","0","9",""
"","","","","","html-keyboard-response","84","323040","0.0-83.0-1.0","62","1","2023-11-01 17:07:11","a725c3012b74bf33a1020a98cb69c237","45.71.5.119","Mozilla/5.0 (Windows NT 10.0; Win64; x64) AppleWebKit/537.36 (KHTML, like Gecko) Chrome/118.0.0.0 Safari/537.36","WebKit","Chrome","118.0.0.0","Windows","10.0","null","es-ES,es;q=0.9","true","307","tones/440hz_short.mp3","j","","","empty_block","","28","","","","0","9",""
"","","","","","html-keyboard-response","85","325666","0.0-85.0","62","1","2023-11-01 17:07:11","a725c3012b74bf33a1020a98cb69c237","45.71.5.119","Mozilla/5.0 (Windows NT 10.0; Win64; x64) AppleWebKit/537.36 (KHTML, like Gecko) Chrome/118.0.0.0 Safari/537.36","WebKit","Chrome","118.0.0.0","Windows","10.0","null","es-ES,es;q=0.9","true","null","<div style=""font-size:100px;"">X</div>","null","","","fixation","","","","","","","",""
"","","","","","audio-keyboard-response","86","326264","0.0-86.0","62","1","2023-11-01 17:07:11","a725c3012b74bf33a1020a98cb69c237","45.71.5.119","Mozilla/5.0 (Windows NT 10.0; Win64; x64) AppleWebKit/537.36 (KHTML, like Gecko) Chrome/118.0.0.0 Safari/537.36","WebKit","Chrome","118.0.0.0","Windows","10.0","null","es-ES,es;q=0.9","true","589","tones/880hz_short.mp3","s","","","tone_number_task","1025","21","tones/880hz_short.mp3","1175","100","0","10",""
"","","","","","html-keyboard-response","87","326706","0.0-87.0-0.0","62","1","2023-11-01 17:07:11","a725c3012b74bf33a1020a98cb69c237","45.71.5.119","Mozilla/5.0 (Windows NT 10.0; Win64; x64) AppleWebKit/537.36 (KHTML, like Gecko) Chrome/118.0.0.0 Safari/537.36","WebKit","Chrome","118.0.0.0","Windows","10.0","null","es-ES,es;q=0.9","true","null","","null","","","delay_block","","","","","","0","10",""
"","","","","","html-keyboard-response","88","326866","0.0-87.0-1.0","62","1","2023-11-01 17:07:11","a725c3012b74bf33a1020a98cb69c237","45.71.5.119","Mozilla/5.0 (Windows NT 10.0; Win64; x64) AppleWebKit/537.36 (KHTML, like Gecko) Chrome/118.0.0.0 Safari/537.36","WebKit","Chrome","118.0.0.0","Windows","10.0","null","es-ES,es;q=0.9","true","null","<p id=""stimulus"" style=""font-size:100px;"">21</p>","null","","","tone_number_task_remaining_before_delay","","21","","586","100","0","10",""
"","","","","","html-keyboard-response","89","327153","0.0-90.0-0.0","62","1","2023-11-01 17:07:11","a725c3012b74bf33a1020a98cb69c237","45.71.5.119","Mozilla/5.0 (Windows NT 10.0; Win64; x64) AppleWebKit/537.36 (KHTML, like Gecko) Chrome/118.0.0.0 Safari/537.36","WebKit","Chrome","118.0.0.0","Windows","10.0","null","es-ES,es;q=0.9","true","284","<p id=""stimulus"" style=""font-size:100px;"">21</p>","j","","","empty_block","","21","","","","0","10",""
"","","","","","html-keyboard-response","90","329776","0.0-91.0","62","1","2023-11-01 17:07:11","a725c3012b74bf33a1020a98cb69c237","45.71.5.119","Mozilla/5.0 (Windows NT 10.0; Win64; x64) AppleWebKit/537.36 (KHTML, like Gecko) Chrome/118.0.0.0 Safari/537.36","WebKit","Chrome","118.0.0.0","Windows","10.0","null","es-ES,es;q=0.9","true","null","<div style=""font-size:100px;"">X</div>","null","","","fixation","","","","","","","",""
"","","","","","audio-keyboard-response","91","330036","0.0-92.0","62","1","2023-11-01 17:07:11","a725c3012b74bf33a1020a98cb69c237","45.71.5.119","Mozilla/5.0 (Windows NT 10.0; Win64; x64) AppleWebKit/537.36 (KHTML, like Gecko) Chrome/118.0.0.0 Safari/537.36","WebKit","Chrome","118.0.0.0","Windows","10.0","null","es-ES,es;q=0.9","true","null","tones/880hz_short.mp3","null","","","tone_number_task","102.5","24","tones/880hz_short.mp3","252.5","100","0","11",""
"","","","","","html-keyboard-response","92","330891","0.0-95.0-0.0","62","1","2023-11-01 17:07:11","a725c3012b74bf33a1020a98cb69c237","45.71.5.119","Mozilla/5.0 (Windows NT 10.0; Win64; x64) AppleWebKit/537.36 (KHTML, like Gecko) Chrome/118.0.0.0 Safari/537.36","WebKit","Chrome","118.0.0.0","Windows","10.0","null","es-ES,es;q=0.9","true","851","tones/880hz_short.mp3","s","","","empty_block","","24","","","","0","11",""
"","","","","","html-keyboard-response","93","331313","0.0-95.0-1.0","62","1","2023-11-01 17:07:11","a725c3012b74bf33a1020a98cb69c237","45.71.5.119","Mozilla/5.0 (Windows NT 10.0; Win64; x64) AppleWebKit/537.36 (KHTML, like Gecko) Chrome/118.0.0.0 Safari/537.36","WebKit","Chrome","118.0.0.0","Windows","10.0","null","es-ES,es;q=0.9","true","418","tones/880hz_short.mp3","j","","","empty_block","","24","","","","0","11",""
"","","","","","html-keyboard-response","94","333936","0.0-97.0","62","1","2023-11-01 17:07:11","a725c3012b74bf33a1020a98cb69c237","45.71.5.119","Mozilla/5.0 (Windows NT 10.0; Win64; x64) AppleWebKit/537.36 (KHTML, like Gecko) Chrome/118.0.0.0 Safari/537.36","WebKit","Chrome","118.0.0.0","Windows","10.0","null","es-ES,es;q=0.9","true","null","<div style=""font-size:100px;"">X</div>","null","","","fixation","","","","","","","",""
"","","","","","audio-keyboard-response","95","334817","0.0-98.0","62","1","2023-11-01 17:07:11","a725c3012b74bf33a1020a98cb69c237","45.71.5.119","Mozilla/5.0 (Windows NT 10.0; Win64; x64) AppleWebKit/537.36 (KHTML, like Gecko) Chrome/118.0.0.0 Safari/537.36","WebKit","Chrome","118.0.0.0","Windows","10.0","null","es-ES,es;q=0.9","true","872","tones/440hz_short.mp3","a","","","tone_number_task","1025","67","tones/440hz_short.mp3","1175","100","0","12",""
"","","","","","html-keyboard-response","96","334976","0.0-99.0-0.0","62","1","2023-11-01 17:07:11","a725c3012b74bf33a1020a98cb69c237","45.71.5.119","Mozilla/5.0 (Windows NT 10.0; Win64; x64) AppleWebKit/537.36 (KHTML, like Gecko) Chrome/118.0.0.0 Safari/537.36","WebKit","Chrome","118.0.0.0","Windows","10.0","null","es-ES,es;q=0.9","true","null","","null","","","delay_block","","","","","","0","12",""
"","","","","","html-keyboard-response","97","335136","0.0-99.0-1.0","62","1","2023-11-01 17:07:11","a725c3012b74bf33a1020a98cb69c237","45.71.5.119","Mozilla/5.0 (Windows NT 10.0; Win64; x64) AppleWebKit/537.36 (KHTML, like Gecko) Chrome/118.0.0.0 Safari/537.36","WebKit","Chrome","118.0.0.0","Windows","10.0","null","es-ES,es;q=0.9","true","null","<p id=""stimulus"" style=""font-size:100px;"">67</p>","null","","","tone_number_task_remaining_before_delay","","67","","303","100","0","12",""
"","","","","","html-keyboard-response","98","335659","0.0-102.0-0.0","62","1","2023-11-01 17:07:11","a725c3012b74bf33a1020a98cb69c237","45.71.5.119","Mozilla/5.0 (Windows NT 10.0; Win64; x64) AppleWebKit/537.36 (KHTML, like Gecko) Chrome/118.0.0.0 Safari/537.36","WebKit","Chrome","118.0.0.0","Windows","10.0","null","es-ES,es;q=0.9","true","520","<p id=""stimulus"" style=""font-size:100px;"">67</p>","k","","","empty_block","","67","","","","0","12",""
"","","","","","html-keyboard-response","99","338286","0.0-103.0","62","1","2023-11-01 17:07:11","a725c3012b74bf33a1020a98cb69c237","45.71.5.119","Mozilla/5.0 (Windows NT 10.0; Win64; x64) AppleWebKit/537.36 (KHTML, like Gecko) Chrome/118.0.0.0 Safari/537.36","WebKit","Chrome","118.0.0.0","Windows","10.0","null","es-ES,es;q=0.9","true","null","<div style=""font-size:100px;"">X</div>","null","","","fixation","","","","","","","",""
"","","","","","audio-keyboard-response","100","339039","0.0-104.0","62","1","2023-11-01 17:07:11","a725c3012b74bf33a1020a98cb69c237","45.71.5.119","Mozilla/5.0 (Windows NT 10.0; Win64; x64) AppleWebKit/537.36 (KHTML, like Gecko) Chrome/118.0.0.0 Safari/537.36","WebKit","Chrome","118.0.0.0","Windows","10.0","null","es-ES,es;q=0.9","true","749","tones/440hz_short.mp3","a","","","tone_number_task","992.5","25","tones/440hz_short.mp3","1142.5","100","0","13",""
"","","","","","html-keyboard-response","101","339286","0.0-105.0-0.0","62","1","2023-11-01 17:07:11","a725c3012b74bf33a1020a98cb69c237","45.71.5.119","Mozilla/5.0 (Windows NT 10.0; Win64; x64) AppleWebKit/537.36 (KHTML, like Gecko) Chrome/118.0.0.0 Safari/537.36","WebKit","Chrome","118.0.0.0","Windows","10.0","null","es-ES,es;q=0.9","true","null","","null","","","delay_block","","","","","","0","13",""
"","","","","","html-keyboard-response","102","339446","0.0-105.0-1.0","62","1","2023-11-01 17:07:11","a725c3012b74bf33a1020a98cb69c237","45.71.5.119","Mozilla/5.0 (Windows NT 10.0; Win64; x64) AppleWebKit/537.36 (KHTML, like Gecko) Chrome/118.0.0.0 Safari/537.36","WebKit","Chrome","118.0.0.0","Windows","10.0","null","es-ES,es;q=0.9","true","null","<p id=""stimulus"" style=""font-size:100px;"">25</p>","null","","","tone_number_task_remaining_before_delay","","25","","393.5","100","0","13",""
"","","","","","html-keyboard-response","103","339860","0.0-108.0-0.0","62","1","2023-11-01 17:07:11","a725c3012b74bf33a1020a98cb69c237","45.71.5.119","Mozilla/5.0 (Windows NT 10.0; Win64; x64) AppleWebKit/537.36 (KHTML, like Gecko) Chrome/118.0.0.0 Safari/537.36","WebKit","Chrome","118.0.0.0","Windows","10.0","null","es-ES,es;q=0.9","true","411","<p id=""stimulus"" style=""font-size:100px;"">25</p>","j","","","empty_block","","25","","","","0","13",""
"","","","","","html-keyboard-response","104","342486","0.0-109.0","62","1","2023-11-01 17:07:11","a725c3012b74bf33a1020a98cb69c237","45.71.5.119","Mozilla/5.0 (Windows NT 10.0; Win64; x64) AppleWebKit/537.36 (KHTML, like Gecko) Chrome/118.0.0.0 Safari/537.36","WebKit","Chrome","118.0.0.0","Windows","10.0","null","es-ES,es;q=0.9","true","null","<div style=""font-size:100px;"">X</div>","null","","","fixation","","","","","","","",""
"","","","","","audio-keyboard-response","105","342913","0.0-110.0","62","1","2023-11-01 17:07:11","a725c3012b74bf33a1020a98cb69c237","45.71.5.119","Mozilla/5.0 (Windows NT 10.0; Win64; x64) AppleWebKit/537.36 (KHTML, like Gecko) Chrome/118.0.0.0 Safari/537.36","WebKit","Chrome","118.0.0.0","Windows","10.0","null","es-ES,es;q=0.9","true","419","tones/880hz_short.mp3","s","","","tone_number_task","992.5","69","tones/880hz_short.mp3","1142.5","100","0","14",""
"","","","","","html-keyboard-response","106","343492","0.0-111.0-0.0","62","1","2023-11-01 17:07:11","a725c3012b74bf33a1020a98cb69c237","45.71.5.119","Mozilla/5.0 (Windows NT 10.0; Win64; x64) AppleWebKit/537.36 (KHTML, like Gecko) Chrome/118.0.0.0 Safari/537.36","WebKit","Chrome","118.0.0.0","Windows","10.0","null","es-ES,es;q=0.9","true","null","","null","","","delay_block","","","","","","0","14",""
"","","","","","html-keyboard-response","107","343654","0.0-111.0-1.0","62","1","2023-11-01 17:07:11","a725c3012b74bf33a1020a98cb69c237","45.71.5.119","Mozilla/5.0 (Windows NT 10.0; Win64; x64) AppleWebKit/537.36 (KHTML, like Gecko) Chrome/118.0.0.0 Safari/537.36","WebKit","Chrome","118.0.0.0","Windows","10.0","null","es-ES,es;q=0.9","true","null","<p id=""stimulus"" style=""font-size:100px;"">69</p>","null","","","tone_number_task_remaining_before_delay","","69","","723.5","100","0","14",""
"","","","","","html-keyboard-response","108","343900","0.0-114.0-0.0","62","1","2023-11-01 17:07:11","a725c3012b74bf33a1020a98cb69c237","45.71.5.119","Mozilla/5.0 (Windows NT 10.0; Win64; x64) AppleWebKit/537.36 (KHTML, like Gecko) Chrome/118.0.0.0 Safari/537.36","WebKit","Chrome","118.0.0.0","Windows","10.0","null","es-ES,es;q=0.9","true","243","<p id=""stimulus"" style=""font-size:100px;"">69</p>","k","","","empty_block","","69","","","","0","14",""
"","","","","","html-keyboard-response","109","346526","0.0-115.0","62","1","2023-11-01 17:07:11","a725c3012b74bf33a1020a98cb69c237","45.71.5.119","Mozilla/5.0 (Windows NT 10.0; Win64; x64) AppleWebKit/537.36 (KHTML, like Gecko) Chrome/118.0.0.0 Safari/537.36","WebKit","Chrome","118.0.0.0","Windows","10.0","null","es-ES,es;q=0.9","true","null","<div style=""font-size:100px;"">X</div>","null","","","fixation","","","","","","","",""
"","","","","","audio-keyboard-response","110","346785","0.0-116.0","62","1","2023-11-01 17:07:11","a725c3012b74bf33a1020a98cb69c237","45.71.5.119","Mozilla/5.0 (Windows NT 10.0; Win64; x64) AppleWebKit/537.36 (KHTML, like Gecko) Chrome/118.0.0.0 Safari/537.36","WebKit","Chrome","118.0.0.0","Windows","10.0","null","es-ES,es;q=0.9","true","null","tones/880hz_short.mp3","null","","","tone_number_task","102.5","37","tones/880hz_short.mp3","252.5","100","0","15",""
"","","","","","html-keyboard-response","111","346947","0.0-119.0-0.0","62","1","2023-11-01 17:07:11","a725c3012b74bf33a1020a98cb69c237","45.71.5.119","Mozilla/5.0 (Windows NT 10.0; Win64; x64) AppleWebKit/537.36 (KHTML, like Gecko) Chrome/118.0.0.0 Safari/537.36","WebKit","Chrome","118.0.0.0","Windows","10.0","null","es-ES,es;q=0.9","true","157","tones/880hz_short.mp3","s","","","empty_block","","37","","","","0","15",""
"","","","","","html-keyboard-response","112","347359","0.0-119.0-1.0","62","1","2023-11-01 17:07:11","a725c3012b74bf33a1020a98cb69c237","45.71.5.119","Mozilla/5.0 (Windows NT 10.0; Win64; x64) AppleWebKit/537.36 (KHTML, like Gecko) Chrome/118.0.0.0 Safari/537.36","WebKit","Chrome","118.0.0.0","Windows","10.0","null","es-ES,es;q=0.9","true","410","tones/880hz_short.mp3","j","","","empty_block","","37","","","","0","15",""
"","","","","","html-keyboard-response","113","349986","0.0-121.0","62","1","2023-11-01 17:07:11","a725c3012b74bf33a1020a98cb69c237","45.71.5.119","Mozilla/5.0 (Windows NT 10.0; Win64; x64) AppleWebKit/537.36 (KHTML, like Gecko) Chrome/118.0.0.0 Safari/537.36","WebKit","Chrome","118.0.0.0","Windows","10.0","null","es-ES,es;q=0.9","true","null","<div style=""font-size:100px;"">X</div>","null","","","fixation","","","","","","","",""
"","","","","","audio-keyboard-response","114","350368","0.0-122.0","62","1","2023-11-01 17:07:11","a725c3012b74bf33a1020a98cb69c237","45.71.5.119","Mozilla/5.0 (Windows NT 10.0; Win64; x64) AppleWebKit/537.36 (KHTML, like Gecko) Chrome/118.0.0.0 Safari/537.36","WebKit","Chrome","118.0.0.0","Windows","10.0","null","es-ES,es;q=0.9","true","381","tones/880hz_short.mp3","s","","","tone_number_task","1025","29","tones/880hz_short.mp3","1175","100","0","16",""
"","","","","","html-keyboard-response","115","351026","0.0-123.0-0.0","62","1","2023-11-01 17:07:11","a725c3012b74bf33a1020a98cb69c237","45.71.5.119","Mozilla/5.0 (Windows NT 10.0; Win64; x64) AppleWebKit/537.36 (KHTML, like Gecko) Chrome/118.0.0.0 Safari/537.36","WebKit","Chrome","118.0.0.0","Windows","10.0","null","es-ES,es;q=0.9","true","null","","null","","","delay_block","","","","","","0","16",""
"","","","","","html-keyboard-response","116","351186","0.0-123.0-1.0","62","1","2023-11-01 17:07:11","a725c3012b74bf33a1020a98cb69c237","45.71.5.119","Mozilla/5.0 (Windows NT 10.0; Win64; x64) AppleWebKit/537.36 (KHTML, like Gecko) Chrome/118.0.0.0 Safari/537.36","WebKit","Chrome","118.0.0.0","Windows","10.0","null","es-ES,es;q=0.9","true","null","<p id=""stimulus"" style=""font-size:100px;"">29</p>","null","","","tone_number_task_remaining_before_delay","","29","","794","100","0","16",""
"","","","","","html-keyboard-response","117","351431","0.0-126.0-0.0","62","1","2023-11-01 17:07:11","a725c3012b74bf33a1020a98cb69c237","45.71.5.119","Mozilla/5.0 (Windows NT 10.0; Win64; x64) AppleWebKit/537.36 (KHTML, like Gecko) Chrome/118.0.0.0 Safari/537.36","WebKit","Chrome","118.0.0.0","Windows","10.0","null","es-ES,es;q=0.9","true","242","<p id=""stimulus"" style=""font-size:100px;"">29</p>","j","","","empty_block","","29","","","","0","16",""
"","","","","","html-keyboard-response","118","354056","0.0-127.0","62","1","2023-11-01 17:07:11","a725c3012b74bf33a1020a98cb69c237","45.71.5.119","Mozilla/5.0 (Windows NT 10.0; Win64; x64) AppleWebKit/537.36 (KHTML, like Gecko) Chrome/118.0.0.0 Safari/537.36","WebKit","Chrome","118.0.0.0","Windows","10.0","null","es-ES,es;q=0.9","true","null","<div style=""font-size:100px;"">X</div>","null","","","fixation","","","","","","","",""
"","","","","","audio-keyboard-response","119","354316","0.0-128.0","62","1","2023-11-01 17:07:11","a725c3012b74bf33a1020a98cb69c237","45.71.5.119","Mozilla/5.0 (Windows NT 10.0; Win64; x64) AppleWebKit/537.36 (KHTML, like Gecko) Chrome/118.0.0.0 Safari/537.36","WebKit","Chrome","118.0.0.0","Windows","10.0","null","es-ES,es;q=0.9","true","null","tones/880hz_short.mp3","null","","","tone_number_task","102.5","25","tones/880hz_short.mp3","252.5","100","0","17",""
"","","","","","html-keyboard-response","120","354481","0.0-131.0-0.0","62","1","2023-11-01 17:07:11","a725c3012b74bf33a1020a98cb69c237","45.71.5.119","Mozilla/5.0 (Windows NT 10.0; Win64; x64) AppleWebKit/537.36 (KHTML, like Gecko) Chrome/118.0.0.0 Safari/537.36","WebKit","Chrome","118.0.0.0","Windows","10.0","null","es-ES,es;q=0.9","true","163","tones/880hz_short.mp3","s","","","empty_block","","25","","","","0","17",""
"","","","","","html-keyboard-response","121","355617","0.0-131.0-1.0","62","1","2023-11-01 17:07:11","a725c3012b74bf33a1020a98cb69c237","45.71.5.119","Mozilla/5.0 (Windows NT 10.0; Win64; x64) AppleWebKit/537.36 (KHTML, like Gecko) Chrome/118.0.0.0 Safari/537.36","WebKit","Chrome","118.0.0.0","Windows","10.0","null","es-ES,es;q=0.9","true","1132","tones/880hz_short.mp3","j","","","empty_block","","25","","","","0","17",""
"","","","","","html-keyboard-response","122","358244","0.0-133.0","62","1","2023-11-01 17:07:11","a725c3012b74bf33a1020a98cb69c237","45.71.5.119","Mozilla/5.0 (Windows NT 10.0; Win64; x64) AppleWebKit/537.36 (KHTML, like Gecko) Chrome/118.0.0.0 Safari/537.36","WebKit","Chrome","118.0.0.0","Windows","10.0","null","es-ES,es;q=0.9","true","null","<div style=""font-size:100px;"">X</div>","null","","","fixation","","","","","","","",""
"","","","","","audio-keyboard-response","123","358505","0.0-134.0","62","1","2023-11-01 17:07:11","a725c3012b74bf33a1020a98cb69c237","45.71.5.119","Mozilla/5.0 (Windows NT 10.0; Win64; x64) AppleWebKit/537.36 (KHTML, like Gecko) Chrome/118.0.0.0 Safari/537.36","WebKit","Chrome","118.0.0.0","Windows","10.0","null","es-ES,es;q=0.9","true","null","tones/880hz_short.mp3","null","","","tone_number_task","102.5","33","tones/880hz_short.mp3","252.5","100","0","18",""
"","","","","","html-keyboard-response","124","358660","0.0-137.0-0.0","62","1","2023-11-01 17:07:11","a725c3012b74bf33a1020a98cb69c237","45.71.5.119","Mozilla/5.0 (Windows NT 10.0; Win64; x64) AppleWebKit/537.36 (KHTML, like Gecko) Chrome/118.0.0.0 Safari/537.36","WebKit","Chrome","118.0.0.0","Windows","10.0","null","es-ES,es;q=0.9","true","150","tones/880hz_short.mp3","s","","","empty_block","","33","","","","0","18",""
"","","","","","html-keyboard-response","125","359203","0.0-137.0-1.0","62","1","2023-11-01 17:07:11","a725c3012b74bf33a1020a98cb69c237","45.71.5.119","Mozilla/5.0 (Windows NT 10.0; Win64; x64) AppleWebKit/537.36 (KHTML, like Gecko) Chrome/118.0.0.0 Safari/537.36","WebKit","Chrome","118.0.0.0","Windows","10.0","null","es-ES,es;q=0.9","true","537","tones/880hz_short.mp3","j","","","empty_block","","33","","","","0","18",""
"","","","","","html-keyboard-response","126","361834","0.0-139.0","62","1","2023-11-01 17:07:11","a725c3012b74bf33a1020a98cb69c237","45.71.5.119","Mozilla/5.0 (Windows NT 10.0; Win64; x64) AppleWebKit/537.36 (KHTML, like Gecko) Chrome/118.0.0.0 Safari/537.36","WebKit","Chrome","118.0.0.0","Windows","10.0","null","es-ES,es;q=0.9","true","null","<div style=""font-size:100px;"">X</div>","null","","","fixation","","","","","","","",""
"","","","","","audio-keyboard-response","127","362231","0.0-140.0","62","1","2023-11-01 17:07:11","a725c3012b74bf33a1020a98cb69c237","45.71.5.119","Mozilla/5.0 (Windows NT 10.0; Win64; x64) AppleWebKit/537.36 (KHTML, like Gecko) Chrome/118.0.0.0 Safari/537.36","WebKit","Chrome","118.0.0.0","Windows","10.0","null","es-ES,es;q=0.9","true","389","tones/440hz_short.mp3","a","","","tone_number_task","992.5","60","tones/440hz_short.mp3","1142.5","100","0","19",""
"","","","","","html-keyboard-response","128","362845","0.0-141.0-0.0","62","1","2023-11-01 17:07:11","a725c3012b74bf33a1020a98cb69c237","45.71.5.119","Mozilla/5.0 (Windows NT 10.0; Win64; x64) AppleWebKit/537.36 (KHTML, like Gecko) Chrome/118.0.0.0 Safari/537.36","WebKit","Chrome","118.0.0.0","Windows","10.0","null","es-ES,es;q=0.9","true","null","","null","","","delay_block","","","","","","0","19",""
"","","","","","html-keyboard-response","129","363003","0.0-141.0-1.0","62","1","2023-11-01 17:07:11","a725c3012b74bf33a1020a98cb69c237","45.71.5.119","Mozilla/5.0 (Windows NT 10.0; Win64; x64) AppleWebKit/537.36 (KHTML, like Gecko) Chrome/118.0.0.0 Safari/537.36","WebKit","Chrome","118.0.0.0","Windows","10.0","null","es-ES,es;q=0.9","true","null","<p id=""stimulus"" style=""font-size:100px;"">60</p>","null","","","tone_number_task_remaining_before_delay","","60","","753.5","100","0","19",""
"","","","","","html-keyboard-response","130","363330","0.0-144.0-0.0","62","1","2023-11-01 17:07:11","a725c3012b74bf33a1020a98cb69c237","45.71.5.119","Mozilla/5.0 (Windows NT 10.0; Win64; x64) AppleWebKit/537.36 (KHTML, like Gecko) Chrome/118.0.0.0 Safari/537.36","WebKit","Chrome","118.0.0.0","Windows","10.0","null","es-ES,es;q=0.9","true","324","<p id=""stimulus"" style=""font-size:100px;"">60</p>","k","","","empty_block","","60","","","","0","19",""
"","","","","","html-keyboard-response","131","365955","0.0-145.0","62","1","2023-11-01 17:07:11","a725c3012b74bf33a1020a98cb69c237","45.71.5.119","Mozilla/5.0 (Windows NT 10.0; Win64; x64) AppleWebKit/537.36 (KHTML, like Gecko) Chrome/118.0.0.0 Safari/537.36","WebKit","Chrome","118.0.0.0","Windows","10.0","null","es-ES,es;q=0.9","true","null","<div style=""font-size:100px;"">X</div>","null","","","fixation","","","","","","","",""
"","","","","","audio-keyboard-response","132","366540","0.0-146.0","62","1","2023-11-01 17:07:11","a725c3012b74bf33a1020a98cb69c237","45.71.5.119","Mozilla/5.0 (Windows NT 10.0; Win64; x64) AppleWebKit/537.36 (KHTML, like Gecko) Chrome/118.0.0.0 Safari/537.36","WebKit","Chrome","118.0.0.0","Windows","10.0","null","es-ES,es;q=0.9","true","579","tones/880hz_short.mp3","a","","","tone_number_task","1025","21","tones/880hz_short.mp3","1175","100","0","20",""
"","","","","","html-keyboard-response","133","366993","0.0-147.0-0.0","62","1","2023-11-01 17:07:11","a725c3012b74bf33a1020a98cb69c237","45.71.5.119","Mozilla/5.0 (Windows NT 10.0; Win64; x64) AppleWebKit/537.36 (KHTML, like Gecko) Chrome/118.0.0.0 Safari/537.36","WebKit","Chrome","118.0.0.0","Windows","10.0","null","es-ES,es;q=0.9","true","null","","null","","","delay_block","","","","","","0","20",""
"","","","","","html-keyboard-response","134","367153","0.0-147.0-1.0","62","1","2023-11-01 17:07:11","a725c3012b74bf33a1020a98cb69c237","45.71.5.119","Mozilla/5.0 (Windows NT 10.0; Win64; x64) AppleWebKit/537.36 (KHTML, like Gecko) Chrome/118.0.0.0 Safari/537.36","WebKit","Chrome","118.0.0.0","Windows","10.0","null","es-ES,es;q=0.9","true","null","<p id=""stimulus"" style=""font-size:100px;"">21</p>","null","","","tone_number_task_remaining_before_delay","","21","","596","100","0","20",""
"","","","","","html-keyboard-response","135","367623","0.0-150.0-0.0","62","1","2023-11-01 17:07:11","a725c3012b74bf33a1020a98cb69c237","45.71.5.119","Mozilla/5.0 (Windows NT 10.0; Win64; x64) AppleWebKit/537.36 (KHTML, like Gecko) Chrome/118.0.0.0 Safari/537.36","WebKit","Chrome","118.0.0.0","Windows","10.0","null","es-ES,es;q=0.9","true","467","<p id=""stimulus"" style=""font-size:100px;"">21</p>","j","","","empty_block","","21","","","","0","20",""
"","","","","","html-keyboard-response","136","370254","0.0-151.0","62","1","2023-11-01 17:07:11","a725c3012b74bf33a1020a98cb69c237","45.71.5.119","Mozilla/5.0 (Windows NT 10.0; Win64; x64) AppleWebKit/537.36 (KHTML, like Gecko) Chrome/118.0.0.0 Safari/537.36","WebKit","Chrome","118.0.0.0","Windows","10.0","null","es-ES,es;q=0.9","true","null","<div style=""font-size:100px;"">X</div>","null","","","fixation","","","","","","","",""
"","","","","","audio-keyboard-response","137","370615","0.0-152.0","62","1","2023-11-01 17:07:11","a725c3012b74bf33a1020a98cb69c237","45.71.5.119","Mozilla/5.0 (Windows NT 10.0; Win64; x64) AppleWebKit/537.36 (KHTML, like Gecko) Chrome/118.0.0.0 Safari/537.36","WebKit","Chrome","118.0.0.0","Windows","10.0","null","es-ES,es;q=0.9","true","360","tones/880hz_short.mp3","s","","","tone_number_task","1025","63","tones/880hz_short.mp3","1175","100","0","21",""
"","","","","","html-keyboard-response","138","371292","0.0-153.0-0.0","62","1","2023-11-01 17:07:11","a725c3012b74bf33a1020a98cb69c237","45.71.5.119","Mozilla/5.0 (Windows NT 10.0; Win64; x64) AppleWebKit/537.36 (KHTML, like Gecko) Chrome/118.0.0.0 Safari/537.36","WebKit","Chrome","118.0.0.0","Windows","10.0","null","es-ES,es;q=0.9","true","null","","null","","","delay_block","","","","","","0","21",""
"","","","","","html-keyboard-response","139","371453","0.0-153.0-1.0","62","1","2023-11-01 17:07:11","a725c3012b74bf33a1020a98cb69c237","45.71.5.119","Mozilla/5.0 (Windows NT 10.0; Win64; x64) AppleWebKit/537.36 (KHTML, like Gecko) Chrome/118.0.0.0 Safari/537.36","WebKit","Chrome","118.0.0.0","Windows","10.0","null","es-ES,es;q=0.9","true","null","<p id=""stimulus"" style=""font-size:100px;"">63</p>","null","","","tone_number_task_remaining_before_delay","","63","","815","100","0","21",""
"","","","","","html-keyboard-response","140","371898","0.0-156.0-0.0","62","1","2023-11-01 17:07:11","a725c3012b74bf33a1020a98cb69c237","45.71.5.119","Mozilla/5.0 (Windows NT 10.0; Win64; x64) AppleWebKit/537.36 (KHTML, like Gecko) Chrome/118.0.0.0 Safari/537.36","WebKit","Chrome","118.0.0.0","Windows","10.0","null","es-ES,es;q=0.9","true","439","<p id=""stimulus"" style=""font-size:100px;"">63</p>","k","","","empty_block","","63","","","","0","21",""
"","","","","","html-keyboard-response","141","374521","0.0-157.0","62","1","2023-11-01 17:07:11","a725c3012b74bf33a1020a98cb69c237","45.71.5.119","Mozilla/5.0 (Windows NT 10.0; Win64; x64) AppleWebKit/537.36 (KHTML, like Gecko) Chrome/118.0.0.0 Safari/537.36","WebKit","Chrome","118.0.0.0","Windows","10.0","null","es-ES,es;q=0.9","true","null","<div style=""font-size:100px;"">X</div>","null","","","fixation","","","","","","","",""
"","","","","","audio-keyboard-response","142","374683","0.0-158.0","62","1","2023-11-01 17:07:11","a725c3012b74bf33a1020a98cb69c237","45.71.5.119","Mozilla/5.0 (Windows NT 10.0; Win64; x64) AppleWebKit/537.36 (KHTML, like Gecko) Chrome/118.0.0.0 Safari/537.36","WebKit","Chrome","118.0.0.0","Windows","10.0","null","es-ES,es;q=0.9","true","null","tones/440hz_short.mp3","null","","","tone_number_task","0","36","tones/440hz_short.mp3","150","100","0","22",""
"","","","","","html-keyboard-response","143","375346","0.0-161.0-0.0","62","1","2023-11-01 17:07:11","a725c3012b74bf33a1020a98cb69c237","45.71.5.119","Mozilla/5.0 (Windows NT 10.0; Win64; x64) AppleWebKit/537.36 (KHTML, like Gecko) Chrome/118.0.0.0 Safari/537.36","WebKit","Chrome","118.0.0.0","Windows","10.0","null","es-ES,es;q=0.9","true","659","tones/440hz_short.mp3","a","","","empty_block","","36","","","","0","22",""
"","","","","","html-keyboard-response","144","375732","0.0-161.0-1.0","62","1","2023-11-01 17:07:11","a725c3012b74bf33a1020a98cb69c237","45.71.5.119","Mozilla/5.0 (Windows NT 10.0; Win64; x64) AppleWebKit/537.36 (KHTML, like Gecko) Chrome/118.0.0.0 Safari/537.36","WebKit","Chrome","118.0.0.0","Windows","10.0","null","es-ES,es;q=0.9","true","381","tones/440hz_short.mp3","j","","","empty_block","","36","","","","0","22",""
"","","","","","html-keyboard-response","145","378363","0.0-163.0","62","1","2023-11-01 17:07:11","a725c3012b74bf33a1020a98cb69c237","45.71.5.119","Mozilla/5.0 (Windows NT 10.0; Win64; x64) AppleWebKit/537.36 (KHTML, like Gecko) Chrome/118.0.0.0 Safari/537.36","WebKit","Chrome","118.0.0.0","Windows","10.0","null","es-ES,es;q=0.9","true","null","<div style=""font-size:100px;"">X</div>","null","","","fixation","","","","","","","",""
"","","","","","audio-keyboard-response","146","378523","0.0-164.0","62","1","2023-11-01 17:07:11","a725c3012b74bf33a1020a98cb69c237","45.71.5.119","Mozilla/5.0 (Windows NT 10.0; Win64; x64) AppleWebKit/537.36 (KHTML, like Gecko) Chrome/118.0.0.0 Safari/537.36","WebKit","Chrome","118.0.0.0","Windows","10.0","null","es-ES,es;q=0.9","true","null","tones/880hz_short.mp3","null","","","tone_number_task","0","56","tones/880hz_short.mp3","150","100","0","23",""
"","","","","","html-keyboard-response","147","379107","0.0-167.0-0.0","62","1","2023-11-01 17:07:11","a725c3012b74bf33a1020a98cb69c237","45.71.5.119","Mozilla/5.0 (Windows NT 10.0; Win64; x64) AppleWebKit/537.36 (KHTML, like Gecko) Chrome/118.0.0.0 Safari/537.36","WebKit","Chrome","118.0.0.0","Windows","10.0","null","es-ES,es;q=0.9","true","580","tones/880hz_short.mp3","s","","","empty_block","","56","","","","0","23",""
"","","","","","html-keyboard-response","148","379436","0.0-167.0-1.0","62","1","2023-11-01 17:07:11","a725c3012b74bf33a1020a98cb69c237","45.71.5.119","Mozilla/5.0 (Windows NT 10.0; Win64; x64) AppleWebKit/537.36 (KHTML, like Gecko) Chrome/118.0.0.0 Safari/537.36","WebKit","Chrome","118.0.0.0","Windows","10.0","null","es-ES,es;q=0.9","true","326","tones/880hz_short.mp3","k","","","empty_block","","56","","","","0","23",""
"","","","","","html-keyboard-response","149","382062","0.0-169.0","62","1","2023-11-01 17:07:11","a725c3012b74bf33a1020a98cb69c237","45.71.5.119","Mozilla/5.0 (Windows NT 10.0; Win64; x64) AppleWebKit/537.36 (KHTML, like Gecko) Chrome/118.0.0.0 Safari/537.36","WebKit","Chrome","118.0.0.0","Windows","10.0","null","es-ES,es;q=0.9","true","null","<div style=""font-size:100px;"">X</div>","null","","","fixation","","","","","","","",""
"","","","","","audio-keyboard-response","150","382972","0.0-170.0","62","1","2023-11-01 17:07:11","a725c3012b74bf33a1020a98cb69c237","45.71.5.119","Mozilla/5.0 (Windows NT 10.0; Win64; x64) AppleWebKit/537.36 (KHTML, like Gecko) Chrome/118.0.0.0 Safari/537.36","WebKit","Chrome","118.0.0.0","Windows","10.0","null","es-ES,es;q=0.9","true","901","tones/440hz_short.mp3","s","","","tone_number_task","992.5","57","tones/440hz_short.mp3","1142.5","100","0","24",""
"","","","","","html-keyboard-response","151","383073","0.0-171.0-0.0","62","1","2023-11-01 17:07:11","a725c3012b74bf33a1020a98cb69c237","45.71.5.119","Mozilla/5.0 (Windows NT 10.0; Win64; x64) AppleWebKit/537.36 (KHTML, like Gecko) Chrome/118.0.0.0 Safari/537.36","WebKit","Chrome","118.0.0.0","Windows","10.0","null","es-ES,es;q=0.9","true","null","","null","","","delay_block","","","","","","0","24",""
"","","","","","html-keyboard-response","152","383233","0.0-171.0-1.0","62","1","2023-11-01 17:07:11","a725c3012b74bf33a1020a98cb69c237","45.71.5.119","Mozilla/5.0 (Windows NT 10.0; Win64; x64) AppleWebKit/537.36 (KHTML, like Gecko) Chrome/118.0.0.0 Safari/537.36","WebKit","Chrome","118.0.0.0","Windows","10.0","null","es-ES,es;q=0.9","true","null","<p id=""stimulus"" style=""font-size:100px;"">57</p>","null","","","tone_number_task_remaining_before_delay","","57","","241.5","100","0","24",""
"","","","","","html-keyboard-response","153","383952","0.0-174.0-0.0","62","1","2023-11-01 17:07:11","a725c3012b74bf33a1020a98cb69c237","45.71.5.119","Mozilla/5.0 (Windows NT 10.0; Win64; x64) AppleWebKit/537.36 (KHTML, like Gecko) Chrome/118.0.0.0 Safari/537.36","WebKit","Chrome","118.0.0.0","Windows","10.0","null","es-ES,es;q=0.9","true","715","<p id=""stimulus"" style=""font-size:100px;"">57</p>","k","","","empty_block","","57","","","","0","24",""
"","","","","","html-keyboard-response","154","386581","0.0-175.0","62","1","2023-11-01 17:07:11","a725c3012b74bf33a1020a98cb69c237","45.71.5.119","Mozilla/5.0 (Windows NT 10.0; Win64; x64) AppleWebKit/537.36 (KHTML, like Gecko) Chrome/118.0.0.0 Safari/537.36","WebKit","Chrome","118.0.0.0","Windows","10.0","null","es-ES,es;q=0.9","true","null","<div style=""font-size:100px;"">X</div>","null","","","fixation","","","","","","","",""
"","","","","","audio-keyboard-response","155","387505","0.0-176.0","62","1","2023-11-01 17:07:11","a725c3012b74bf33a1020a98cb69c237","45.71.5.119","Mozilla/5.0 (Windows NT 10.0; Win64; x64) AppleWebKit/537.36 (KHTML, like Gecko) Chrome/118.0.0.0 Safari/537.36","WebKit","Chrome","118.0.0.0","Windows","10.0","null","es-ES,es;q=0.9","true","931","tones/880hz_short.mp3","s","","","tone_number_task","992.5","56","tones/880hz_short.mp3","1142.5","100","0","25",""
"","","","","","html-keyboard-response","156","387572","0.0-177.0-0.0","62","1","2023-11-01 17:07:11","a725c3012b74bf33a1020a98cb69c237","45.71.5.119","Mozilla/5.0 (Windows NT 10.0; Win64; x64) AppleWebKit/537.36 (KHTML, like Gecko) Chrome/118.0.0.0 Safari/537.36","WebKit","Chrome","118.0.0.0","Windows","10.0","null","es-ES,es;q=0.9","true","null","","null","","","delay_block","","","","","","0","25",""
"","","","","","html-keyboard-response","157","387732","0.0-177.0-1.0","62","1","2023-11-01 17:07:11","a725c3012b74bf33a1020a98cb69c237","45.71.5.119","Mozilla/5.0 (Windows NT 10.0; Win64; x64) AppleWebKit/537.36 (KHTML, like Gecko) Chrome/118.0.0.0 Safari/537.36","WebKit","Chrome","118.0.0.0","Windows","10.0","null","es-ES,es;q=0.9","true","null","<p id=""stimulus"" style=""font-size:100px;"">56</p>","null","","","tone_number_task_remaining_before_delay","","56","","211.5","100","0","25",""
"","","","","","html-keyboard-response","158","388169","0.0-180.0-0.0","62","1","2023-11-01 17:07:11","a725c3012b74bf33a1020a98cb69c237","45.71.5.119","Mozilla/5.0 (Windows NT 10.0; Win64; x64) AppleWebKit/537.36 (KHTML, like Gecko) Chrome/118.0.0.0 Safari/537.36","WebKit","Chrome","118.0.0.0","Windows","10.0","null","es-ES,es;q=0.9","true","430","<p id=""stimulus"" style=""font-size:100px;"">56</p>","k","","","empty_block","","56","","","","0","25",""
"","","","","","html-keyboard-response","159","390802","0.0-181.0","62","1","2023-11-01 17:07:11","a725c3012b74bf33a1020a98cb69c237","45.71.5.119","Mozilla/5.0 (Windows NT 10.0; Win64; x64) AppleWebKit/537.36 (KHTML, like Gecko) Chrome/118.0.0.0 Safari/537.36","WebKit","Chrome","118.0.0.0","Windows","10.0","null","es-ES,es;q=0.9","true","null","<div style=""font-size:100px;"">X</div>","null","","","fixation","","","","","","","",""
"","","","","","audio-keyboard-response","160","391063","0.0-182.0","62","1","2023-11-01 17:07:11","a725c3012b74bf33a1020a98cb69c237","45.71.5.119","Mozilla/5.0 (Windows NT 10.0; Win64; x64) AppleWebKit/537.36 (KHTML, like Gecko) Chrome/118.0.0.0 Safari/537.36","WebKit","Chrome","118.0.0.0","Windows","10.0","null","es-ES,es;q=0.9","true","null","tones/880hz_short.mp3","null","","","tone_number_task","102.5","55","tones/880hz_short.mp3","252.5","100","0","26",""
"","","","","","html-keyboard-response","161","391186","0.0-185.0-0.0","62","1","2023-11-01 17:07:11","a725c3012b74bf33a1020a98cb69c237","45.71.5.119","Mozilla/5.0 (Windows NT 10.0; Win64; x64) AppleWebKit/537.36 (KHTML, like Gecko) Chrome/118.0.0.0 Safari/537.36","WebKit","Chrome","118.0.0.0","Windows","10.0","null","es-ES,es;q=0.9","true","116","tones/880hz_short.mp3","s","","","empty_block","","55","","","","0","26",""
"","","","","","html-keyboard-response","162","391561","0.0-185.0-1.0","62","1","2023-11-01 17:07:11","a725c3012b74bf33a1020a98cb69c237","45.71.5.119","Mozilla/5.0 (Windows NT 10.0; Win64; x64) AppleWebKit/537.36 (KHTML, like Gecko) Chrome/118.0.0.0 Safari/537.36","WebKit","Chrome","118.0.0.0","Windows","10.0","null","es-ES,es;q=0.9","true","368","tones/880hz_short.mp3","k","","","empty_block","","55","","","","0","26",""
"","","","","","html-keyboard-response","163","394183","0.0-187.0","62","1","2023-11-01 17:07:11","a725c3012b74bf33a1020a98cb69c237","45.71.5.119","Mozilla/5.0 (Windows NT 10.0; Win64; x64) AppleWebKit/537.36 (KHTML, like Gecko) Chrome/118.0.0.0 Safari/537.36","WebKit","Chrome","118.0.0.0","Windows","10.0","null","es-ES,es;q=0.9","true","null","<div style=""font-size:100px;"">X</div>","null","","","fixation","","","","","","","",""
"","","","","","audio-keyboard-response","164","394620","0.0-188.0","62","1","2023-11-01 17:07:11","a725c3012b74bf33a1020a98cb69c237","45.71.5.119","Mozilla/5.0 (Windows NT 10.0; Win64; x64) AppleWebKit/537.36 (KHTML, like Gecko) Chrome/118.0.0.0 Safari/537.36","WebKit","Chrome","118.0.0.0","Windows","10.0","null","es-ES,es;q=0.9","true","429","tones/880hz_short.mp3","s","","","tone_number_task","1025","67","tones/880hz_short.mp3","1175","100","0","27",""
"","","","","","html-keyboard-response","165","395228","0.0-189.0-0.0","62","1","2023-11-01 17:07:11","a725c3012b74bf33a1020a98cb69c237","45.71.5.119","Mozilla/5.0 (Windows NT 10.0; Win64; x64) AppleWebKit/537.36 (KHTML, like Gecko) Chrome/118.0.0.0 Safari/537.36","WebKit","Chrome","118.0.0.0","Windows","10.0","null","es-ES,es;q=0.9","true","null","","null","","","delay_block","","","","","","0","27",""
"","","","","","html-keyboard-response","166","395382","0.0-189.0-1.0","62","1","2023-11-01 17:07:11","a725c3012b74bf33a1020a98cb69c237","45.71.5.119","Mozilla/5.0 (Windows NT 10.0; Win64; x64) AppleWebKit/537.36 (KHTML, like Gecko) Chrome/118.0.0.0 Safari/537.36","WebKit","Chrome","118.0.0.0","Windows","10.0","null","es-ES,es;q=0.9","true","null","<p id=""stimulus"" style=""font-size:100px;"">67</p>","null","","","tone_number_task_remaining_before_delay","","67","","746","100","0","27",""
"","","","","","html-keyboard-response","167","395779","0.0-192.0-0.0","62","1","2023-11-01 17:07:11","a725c3012b74bf33a1020a98cb69c237","45.71.5.119","Mozilla/5.0 (Windows NT 10.0; Win64; x64) AppleWebKit/537.36 (KHTML, like Gecko) Chrome/118.0.0.0 Safari/537.36","WebKit","Chrome","118.0.0.0","Windows","10.0","null","es-ES,es;q=0.9","true","390","<p id=""stimulus"" style=""font-size:100px;"">67</p>","k","","","empty_block","","67","","","","0","27",""
"","","","","","html-keyboard-response","168","398413","0.0-193.0","62","1","2023-11-01 17:07:11","a725c3012b74bf33a1020a98cb69c237","45.71.5.119","Mozilla/5.0 (Windows NT 10.0; Win64; x64) AppleWebKit/537.36 (KHTML, like Gecko) Chrome/118.0.0.0 Safari/537.36","WebKit","Chrome","118.0.0.0","Windows","10.0","null","es-ES,es;q=0.9","true","null","<div style=""font-size:100px;"">X</div>","null","","","fixation","","","","","","","",""
"","","","","","audio-keyboard-response","169","398817","0.0-194.0","62","1","2023-11-01 17:07:11","a725c3012b74bf33a1020a98cb69c237","45.71.5.119","Mozilla/5.0 (Windows NT 10.0; Win64; x64) AppleWebKit/537.36 (KHTML, like Gecko) Chrome/118.0.0.0 Safari/537.36","WebKit","Chrome","118.0.0.0","Windows","10.0","null","es-ES,es;q=0.9","true","400","tones/440hz_short.mp3","a","","","tone_number_task","1025","57","tones/440hz_short.mp3","1175","100","0","28",""
"","","","","","html-keyboard-response","170","399452","0.0-195.0-0.0","62","1","2023-11-01 17:07:11","a725c3012b74bf33a1020a98cb69c237","45.71.5.119","Mozilla/5.0 (Windows NT 10.0; Win64; x64) AppleWebKit/537.36 (KHTML, like Gecko) Chrome/118.0.0.0 Safari/537.36","WebKit","Chrome","118.0.0.0","Windows","10.0","null","es-ES,es;q=0.9","true","null","","null","","","delay_block","","","","","","0","28",""
"","","","","","html-keyboard-response","171","399609","0.0-195.0-1.0","62","1","2023-11-01 17:07:11","a725c3012b74bf33a1020a98cb69c237","45.71.5.119","Mozilla/5.0 (Windows NT 10.0; Win64; x64) AppleWebKit/537.36 (KHTML, like Gecko) Chrome/118.0.0.0 Safari/537.36","WebKit","Chrome","118.0.0.0","Windows","10.0","null","es-ES,es;q=0.9","true","null","<p id=""stimulus"" style=""font-size:100px;"">57</p>","null","","","tone_number_task_remaining_before_delay","","57","","775","100","0","28",""
"","","","","","html-keyboard-response","172","400024","0.0-198.0-0.0","62","1","2023-11-01 17:07:11","a725c3012b74bf33a1020a98cb69c237","45.71.5.119","Mozilla/5.0 (Windows NT 10.0; Win64; x64) AppleWebKit/537.36 (KHTML, like Gecko) Chrome/118.0.0.0 Safari/537.36","WebKit","Chrome","118.0.0.0","Windows","10.0","null","es-ES,es;q=0.9","true","411","<p id=""stimulus"" style=""font-size:100px;"">57</p>","k","","","empty_block","","57","","","","0","28",""
"","","","","","html-keyboard-response","173","402653","0.0-199.0","62","1","2023-11-01 17:07:11","a725c3012b74bf33a1020a98cb69c237","45.71.5.119","Mozilla/5.0 (Windows NT 10.0; Win64; x64) AppleWebKit/537.36 (KHTML, like Gecko) Chrome/118.0.0.0 Safari/537.36","WebKit","Chrome","118.0.0.0","Windows","10.0","null","es-ES,es;q=0.9","true","null","<div style=""font-size:100px;"">X</div>","null","","","fixation","","","","","","","",""
"","","","","","audio-keyboard-response","174","403098","0.0-200.0","62","1","2023-11-01 17:07:11","a725c3012b74bf33a1020a98cb69c237","45.71.5.119","Mozilla/5.0 (Windows NT 10.0; Win64; x64) AppleWebKit/537.36 (KHTML, like Gecko) Chrome/118.0.0.0 Safari/537.36","WebKit","Chrome","118.0.0.0","Windows","10.0","null","es-ES,es;q=0.9","true","440","tones/880hz_short.mp3","s","","","tone_number_task","1025","36","tones/880hz_short.mp3","1175","100","0","29",""
"","","","","","html-keyboard-response","175","403693","0.0-201.0-0.0","62","1","2023-11-01 17:07:11","a725c3012b74bf33a1020a98cb69c237","45.71.5.119","Mozilla/5.0 (Windows NT 10.0; Win64; x64) AppleWebKit/537.36 (KHTML, like Gecko) Chrome/118.0.0.0 Safari/537.36","WebKit","Chrome","118.0.0.0","Windows","10.0","null","es-ES,es;q=0.9","true","null","","null","","","delay_block","","","","","","0","29",""
"","","","","","html-keyboard-response","176","403853","0.0-201.0-1.0","62","1","2023-11-01 17:07:11","a725c3012b74bf33a1020a98cb69c237","45.71.5.119","Mozilla/5.0 (Windows NT 10.0; Win64; x64) AppleWebKit/537.36 (KHTML, like Gecko) Chrome/118.0.0.0 Safari/537.36","WebKit","Chrome","118.0.0.0","Windows","10.0","null","es-ES,es;q=0.9","true","null","<p id=""stimulus"" style=""font-size:100px;"">36</p>","null","","","tone_number_task_remaining_before_delay","","36","","735","100","0","29",""
"","","","","","html-keyboard-response","177","404356","0.0-204.0-0.0","62","1","2023-11-01 17:07:11","a725c3012b74bf33a1020a98cb69c237","45.71.5.119","Mozilla/5.0 (Windows NT 10.0; Win64; x64) AppleWebKit/537.36 (KHTML, like Gecko) Chrome/118.0.0.0 Safari/537.36","WebKit","Chrome","118.0.0.0","Windows","10.0","null","es-ES,es;q=0.9","true","498","<p id=""stimulus"" style=""font-size:100px;"">36</p>","j","","","empty_block","","36","","","","0","29",""
"","","","","","html-keyboard-response","178","406982","0.0-205.0","62","1","2023-11-01 17:07:11","a725c3012b74bf33a1020a98cb69c237","45.71.5.119","Mozilla/5.0 (Windows NT 10.0; Win64; x64) AppleWebKit/537.36 (KHTML, like Gecko) Chrome/118.0.0.0 Safari/537.36","WebKit","Chrome","118.0.0.0","Windows","10.0","null","es-ES,es;q=0.9","true","null","<div style=""font-size:100px;"">X</div>","null","","","fixation","","","","","","","",""
"","","","","","audio-keyboard-response","179","407243","0.0-206.0","62","1","2023-11-01 17:07:11","a725c3012b74bf33a1020a98cb69c237","45.71.5.119","Mozilla/5.0 (Windows NT 10.0; Win64; x64) AppleWebKit/537.36 (KHTML, like Gecko) Chrome/118.0.0.0 Safari/537.36","WebKit","Chrome","118.0.0.0","Windows","10.0","null","es-ES,es;q=0.9","true","null","tones/440hz_short.mp3","null","","","tone_number_task","102.5","32","tones/440hz_short.mp3","252.5","100","0","30",""
"","","","","","html-keyboard-response","180","408337","0.0-209.0-0.0","62","1","2023-11-01 17:07:11","a725c3012b74bf33a1020a98cb69c237","45.71.5.119","Mozilla/5.0 (Windows NT 10.0; Win64; x64) AppleWebKit/537.36 (KHTML, like Gecko) Chrome/118.0.0.0 Safari/537.36","WebKit","Chrome","118.0.0.0","Windows","10.0","null","es-ES,es;q=0.9","true","1089","tones/440hz_short.mp3","s","","","empty_block","","32","","","","0","30",""
"","","","","","html-keyboard-response","181","409354","0.0-209.0-1.0","62","1","2023-11-01 17:07:11","a725c3012b74bf33a1020a98cb69c237","45.71.5.119","Mozilla/5.0 (Windows NT 10.0; Win64; x64) AppleWebKit/537.36 (KHTML, like Gecko) Chrome/118.0.0.0 Safari/537.36","WebKit","Chrome","118.0.0.0","Windows","10.0","null","es-ES,es;q=0.9","true","1011","tones/440hz_short.mp3","j","","","empty_block","","32","","","","0","30",""
"","","","","","html-keyboard-response","182","411982","0.0-211.0","62","1","2023-11-01 17:07:11","a725c3012b74bf33a1020a98cb69c237","45.71.5.119","Mozilla/5.0 (Windows NT 10.0; Win64; x64) AppleWebKit/537.36 (KHTML, like Gecko) Chrome/118.0.0.0 Safari/537.36","WebKit","Chrome","118.0.0.0","Windows","10.0","null","es-ES,es;q=0.9","true","null","<div style=""font-size:100px;"">X</div>","null","","","fixation","","","","","","","",""
"","","","","","audio-keyboard-response","183","412582","0.0-212.0","62","1","2023-11-01 17:07:11","a725c3012b74bf33a1020a98cb69c237","45.71.5.119","Mozilla/5.0 (Windows NT 10.0; Win64; x64) AppleWebKit/537.36 (KHTML, like Gecko) Chrome/118.0.0.0 Safari/537.36","WebKit","Chrome","118.0.0.0","Windows","10.0","null","es-ES,es;q=0.9","true","589","tones/440hz_short.mp3","s","","","tone_number_task","992.5","63","tones/440hz_short.mp3","1142.5","100","0","31",""
"","","","","","html-keyboard-response","184","413003","0.0-213.0-0.0","62","1","2023-11-01 17:07:11","a725c3012b74bf33a1020a98cb69c237","45.71.5.119","Mozilla/5.0 (Windows NT 10.0; Win64; x64) AppleWebKit/537.36 (KHTML, like Gecko) Chrome/118.0.0.0 Safari/537.36","WebKit","Chrome","118.0.0.0","Windows","10.0","null","es-ES,es;q=0.9","true","null","","null","","","delay_block","","","","","","0","31",""
"","","","","","html-keyboard-response","185","413162","0.0-213.0-1.0","62","1","2023-11-01 17:07:11","a725c3012b74bf33a1020a98cb69c237","45.71.5.119","Mozilla/5.0 (Windows NT 10.0; Win64; x64) AppleWebKit/537.36 (KHTML, like Gecko) Chrome/118.0.0.0 Safari/537.36","WebKit","Chrome","118.0.0.0","Windows","10.0","null","es-ES,es;q=0.9","true","null","<p id=""stimulus"" style=""font-size:100px;"">63</p>","null","","","tone_number_task_remaining_before_delay","","63","","553.5","100","0","31",""
"","","","","","html-keyboard-response","186","414199","0.0-216.0-0.0","62","1","2023-11-01 17:07:11","a725c3012b74bf33a1020a98cb69c237","45.71.5.119","Mozilla/5.0 (Windows NT 10.0; Win64; x64) AppleWebKit/537.36 (KHTML, like Gecko) Chrome/118.0.0.0 Safari/537.36","WebKit","Chrome","118.0.0.0","Windows","10.0","null","es-ES,es;q=0.9","true","1033","<p id=""stimulus"" style=""font-size:100px;"">63</p>","k","","","empty_block","","63","","","","0","31",""
"","","","","","html-keyboard-response","187","416823","0.0-217.0","62","1","2023-11-01 17:07:11","a725c3012b74bf33a1020a98cb69c237","45.71.5.119","Mozilla/5.0 (Windows NT 10.0; Win64; x64) AppleWebKit/537.36 (KHTML, like Gecko) Chrome/118.0.0.0 Safari/537.36","WebKit","Chrome","118.0.0.0","Windows","10.0","null","es-ES,es;q=0.9","true","null","<div style=""font-size:100px;"">X</div>","null","","","fixation","","","","","","","",""
"","","","","","audio-keyboard-response","188","416983","0.0-218.0","62","1","2023-11-01 17:07:11","a725c3012b74bf33a1020a98cb69c237","45.71.5.119","Mozilla/5.0 (Windows NT 10.0; Win64; x64) AppleWebKit/537.36 (KHTML, like Gecko) Chrome/118.0.0.0 Safari/537.36","WebKit","Chrome","118.0.0.0","Windows","10.0","null","es-ES,es;q=0.9","true","null","tones/880hz_short.mp3","null","","","tone_number_task","0","59","tones/880hz_short.mp3","150","100","0","32",""
"","","","","","html-keyboard-response","189","417623","0.0-221.0-0.0","62","1","2023-11-01 17:07:11","a725c3012b74bf33a1020a98cb69c237","45.71.5.119","Mozilla/5.0 (Windows NT 10.0; Win64; x64) AppleWebKit/537.36 (KHTML, like Gecko) Chrome/118.0.0.0 Safari/537.36","WebKit","Chrome","118.0.0.0","Windows","10.0","null","es-ES,es;q=0.9","true","633","tones/880hz_short.mp3","s","","","empty_block","","59","","","","0","32",""
"","","","","","html-keyboard-response","190","418182","0.0-221.0-1.0","62","1","2023-11-01 17:07:11","a725c3012b74bf33a1020a98cb69c237","45.71.5.119","Mozilla/5.0 (Windows NT 10.0; Win64; x64) AppleWebKit/537.36 (KHTML, like Gecko) Chrome/118.0.0.0 Safari/537.36","WebKit","Chrome","118.0.0.0","Windows","10.0","null","es-ES,es;q=0.9","true","554","tones/880hz_short.mp3","j","","","empty_block","","59","","","","0","32",""
"","","","","","html-keyboard-response","191","420813","0.0-223.0","62","1","2023-11-01 17:07:11","a725c3012b74bf33a1020a98cb69c237","45.71.5.119","Mozilla/5.0 (Windows NT 10.0; Win64; x64) AppleWebKit/537.36 (KHTML, like Gecko) Chrome/118.0.0.0 Safari/537.36","WebKit","Chrome","118.0.0.0","Windows","10.0","null","es-ES,es;q=0.9","true","null","<div style=""font-size:100px;"">X</div>","null","","","fixation","","","","","","","",""
"","","","","","audio-keyboard-response","192","421743","0.0-224.0","62","1","2023-11-01 17:07:11","a725c3012b74bf33a1020a98cb69c237","45.71.5.119","Mozilla/5.0 (Windows NT 10.0; Win64; x64) AppleWebKit/537.36 (KHTML, like Gecko) Chrome/118.0.0.0 Safari/537.36","WebKit","Chrome","118.0.0.0","Windows","10.0","null","es-ES,es;q=0.9","true","920","tones/440hz_short.mp3","a","","","tone_number_task","1025","56","tones/440hz_short.mp3","1175","100","0","33",""
"","","","","","html-keyboard-response","193","421862","0.0-225.0-0.0","62","1","2023-11-01 17:07:11","a725c3012b74bf33a1020a98cb69c237","45.71.5.119","Mozilla/5.0 (Windows NT 10.0; Win64; x64) AppleWebKit/537.36 (KHTML, like Gecko) Chrome/118.0.0.0 Safari/537.36","WebKit","Chrome","118.0.0.0","Windows","10.0","null","es-ES,es;q=0.9","true","null","","null","","","delay_block","","","","","","0","33",""
"","","","","","html-keyboard-response","194","422022","0.0-225.0-1.0","62","1","2023-11-01 17:07:11","a725c3012b74bf33a1020a98cb69c237","45.71.5.119","Mozilla/5.0 (Windows NT 10.0; Win64; x64) AppleWebKit/537.36 (KHTML, like Gecko) Chrome/118.0.0.0 Safari/537.36","WebKit","Chrome","118.0.0.0","Windows","10.0","null","es-ES,es;q=0.9","true","null","<p id=""stimulus"" style=""font-size:100px;"">56</p>","null","","","tone_number_task_remaining_before_delay","","56","","255","100","0","33",""
"","","","","","html-keyboard-response","195","422569","0.0-228.0-0.0","62","1","2023-11-01 17:07:11","a725c3012b74bf33a1020a98cb69c237","45.71.5.119","Mozilla/5.0 (Windows NT 10.0; Win64; x64) AppleWebKit/537.36 (KHTML, like Gecko) Chrome/118.0.0.0 Safari/537.36","WebKit","Chrome","118.0.0.0","Windows","10.0","null","es-ES,es;q=0.9","true","541","<p id=""stimulus"" style=""font-size:100px;"">56</p>","k","","","empty_block","","56","","","","0","33",""
"","","","","","html-keyboard-response","196","425192","0.0-229.0","62","1","2023-11-01 17:07:11","a725c3012b74bf33a1020a98cb69c237","45.71.5.119","Mozilla/5.0 (Windows NT 10.0; Win64; x64) AppleWebKit/537.36 (KHTML, like Gecko) Chrome/118.0.0.0 Safari/537.36","WebKit","Chrome","118.0.0.0","Windows","10.0","null","es-ES,es;q=0.9","true","null","<div style=""font-size:100px;"">X</div>","null","","","fixation","","","","","","","",""
"","","","","","audio-keyboard-response","197","425353","0.0-230.0","62","1","2023-11-01 17:07:11","a725c3012b74bf33a1020a98cb69c237","45.71.5.119","Mozilla/5.0 (Windows NT 10.0; Win64; x64) AppleWebKit/537.36 (KHTML, like Gecko) Chrome/118.0.0.0 Safari/537.36","WebKit","Chrome","118.0.0.0","Windows","10.0","null","es-ES,es;q=0.9","true","null","tones/440hz_short.mp3","null","","","tone_number_task","0","40","tones/440hz_short.mp3","150","100","0","34",""
"","","","","","html-keyboard-response","198","425931","0.0-233.0-0.0","62","1","2023-11-01 17:07:11","a725c3012b74bf33a1020a98cb69c237","45.71.5.119","Mozilla/5.0 (Windows NT 10.0; Win64; x64) AppleWebKit/537.36 (KHTML, like Gecko) Chrome/118.0.0.0 Safari/537.36","WebKit","Chrome","118.0.0.0","Windows","10.0","null","es-ES,es;q=0.9","true","574","tones/440hz_short.mp3","a","","","empty_block","","40","","","","0","34",""
"","","","","","html-keyboard-response","199","426246","0.0-233.0-1.0","62","1","2023-11-01 17:07:11","a725c3012b74bf33a1020a98cb69c237","45.71.5.119","Mozilla/5.0 (Windows NT 10.0; Win64; x64) AppleWebKit/537.36 (KHTML, like Gecko) Chrome/118.0.0.0 Safari/537.36","WebKit","Chrome","118.0.0.0","Windows","10.0","null","es-ES,es;q=0.9","true","312","tones/440hz_short.mp3","j","","","empty_block","","40","","","","0","34",""
"","","","","","html-keyboard-response","200","428877","0.0-235.0","62","1","2023-11-01 17:07:11","a725c3012b74bf33a1020a98cb69c237","45.71.5.119","Mozilla/5.0 (Windows NT 10.0; Win64; x64) AppleWebKit/537.36 (KHTML, like Gecko) Chrome/118.0.0.0 Safari/537.36","WebKit","Chrome","118.0.0.0","Windows","10.0","null","es-ES,es;q=0.9","true","null","<div style=""font-size:100px;"">X</div>","null","","","fixation","","","","","","","",""
"","","","","","audio-keyboard-response","201","429135","0.0-236.0","62","1","2023-11-01 17:07:11","a725c3012b74bf33a1020a98cb69c237","45.71.5.119","Mozilla/5.0 (Windows NT 10.0; Win64; x64) AppleWebKit/537.36 (KHTML, like Gecko) Chrome/118.0.0.0 Safari/537.36","WebKit","Chrome","118.0.0.0","Windows","10.0","null","es-ES,es;q=0.9","true","null","tones/440hz_short.mp3","null","","","tone_number_task","102.5","27","tones/440hz_short.mp3","252.5","100","0","35",""
"","","","","","html-keyboard-response","202","429413","0.0-239.0-0.0","62","1","2023-11-01 17:07:11","a725c3012b74bf33a1020a98cb69c237","45.71.5.119","Mozilla/5.0 (Windows NT 10.0; Win64; x64) AppleWebKit/537.36 (KHTML, like Gecko) Chrome/118.0.0.0 Safari/537.36","WebKit","Chrome","118.0.0.0","Windows","10.0","null","es-ES,es;q=0.9","true","273","tones/440hz_short.mp3","a","","","empty_block","","27","","","","0","35",""
"","","","","","html-keyboard-response","203","429653","0.0-239.0-1.0","62","1","2023-11-01 17:07:11","a725c3012b74bf33a1020a98cb69c237","45.71.5.119","Mozilla/5.0 (Windows NT 10.0; Win64; x64) AppleWebKit/537.36 (KHTML, like Gecko) Chrome/118.0.0.0 Safari/537.36","WebKit","Chrome","118.0.0.0","Windows","10.0","null","es-ES,es;q=0.9","true","233","tones/440hz_short.mp3","j","","","empty_block","","27","","","","0","35",""
"","","","","","html-keyboard-response","204","432287","0.0-241.0","62","1","2023-11-01 17:07:11","a725c3012b74bf33a1020a98cb69c237","45.71.5.119","Mozilla/5.0 (Windows NT 10.0; Win64; x64) AppleWebKit/537.36 (KHTML, like Gecko) Chrome/118.0.0.0 Safari/537.36","WebKit","Chrome","118.0.0.0","Windows","10.0","null","es-ES,es;q=0.9","true","null","<div style=""font-size:100px;"">X</div>","null","","","fixation","","","","","","","",""
"","","","","","audio-keyboard-response","205","432445","0.0-242.0","62","1","2023-11-01 17:07:11","a725c3012b74bf33a1020a98cb69c237","45.71.5.119","Mozilla/5.0 (Windows NT 10.0; Win64; x64) AppleWebKit/537.36 (KHTML, like Gecko) Chrome/118.0.0.0 Safari/537.36","WebKit","Chrome","118.0.0.0","Windows","10.0","null","es-ES,es;q=0.9","true","null","tones/440hz_short.mp3","null","","","tone_number_task","0","48","tones/440hz_short.mp3","150","100","0","36",""
"","","","","","html-keyboard-response","206","432765","0.0-245.0-0.0","62","1","2023-11-01 17:07:11","a725c3012b74bf33a1020a98cb69c237","45.71.5.119","Mozilla/5.0 (Windows NT 10.0; Win64; x64) AppleWebKit/537.36 (KHTML, like Gecko) Chrome/118.0.0.0 Safari/537.36","WebKit","Chrome","118.0.0.0","Windows","10.0","null","es-ES,es;q=0.9","true","312","tones/440hz_short.mp3","a","","","empty_block","","48","","","","0","36",""
"","","","","","html-keyboard-response","207","433456","0.0-245.0-1.0","62","1","2023-11-01 17:07:11","a725c3012b74bf33a1020a98cb69c237","45.71.5.119","Mozilla/5.0 (Windows NT 10.0; Win64; x64) AppleWebKit/537.36 (KHTML, like Gecko) Chrome/118.0.0.0 Safari/537.36","WebKit","Chrome","118.0.0.0","Windows","10.0","null","es-ES,es;q=0.9","true","685","tones/440hz_short.mp3","k","","","empty_block","","48","","","","0","36",""
"","","","","","html-keyboard-response","208","436087","0.0-247.0","62","1","2023-11-01 17:07:11","a725c3012b74bf33a1020a98cb69c237","45.71.5.119","Mozilla/5.0 (Windows NT 10.0; Win64; x64) AppleWebKit/537.36 (KHTML, like Gecko) Chrome/118.0.0.0 Safari/537.36","WebKit","Chrome","118.0.0.0","Windows","10.0","null","es-ES,es;q=0.9","true","null","<div style=""font-size:100px;"">X</div>","null","","","fixation","","","","","","","",""
"","","","","","audio-keyboard-response","209","436247","0.0-248.0","62","1","2023-11-01 17:07:11","a725c3012b74bf33a1020a98cb69c237","45.71.5.119","Mozilla/5.0 (Windows NT 10.0; Win64; x64) AppleWebKit/537.36 (KHTML, like Gecko) Chrome/118.0.0.0 Safari/537.36","WebKit","Chrome","118.0.0.0","Windows","10.0","null","es-ES,es;q=0.9","true","null","tones/440hz_short.mp3","null","","","tone_number_task","0","34","tones/440hz_short.mp3","150","100","0","37",""
"","","","","","html-keyboard-response","210","436496","0.0-251.0-0.0","62","1","2023-11-01 17:07:11","a725c3012b74bf33a1020a98cb69c237","45.71.5.119","Mozilla/5.0 (Windows NT 10.0; Win64; x64) AppleWebKit/537.36 (KHTML, like Gecko) Chrome/118.0.0.0 Safari/537.36","WebKit","Chrome","118.0.0.0","Windows","10.0","null","es-ES,es;q=0.9","true","243","tones/440hz_short.mp3","a","","","empty_block","","34","","","","0","37",""
"","","","","","html-keyboard-response","211","436748","0.0-251.0-1.0","62","1","2023-11-01 17:07:11","a725c3012b74bf33a1020a98cb69c237","45.71.5.119","Mozilla/5.0 (Windows NT 10.0; Win64; x64) AppleWebKit/537.36 (KHTML, like Gecko) Chrome/118.0.0.0 Safari/537.36","WebKit","Chrome","118.0.0.0","Windows","10.0","null","es-ES,es;q=0.9","true","248","tones/440hz_short.mp3","j","","","empty_block","","34","","","","0","37",""
"","","","","","html-keyboard-response","212","439376","0.0-253.0","62","1","2023-11-01 17:07:11","a725c3012b74bf33a1020a98cb69c237","45.71.5.119","Mozilla/5.0 (Windows NT 10.0; Win64; x64) AppleWebKit/537.36 (KHTML, like Gecko) Chrome/118.0.0.0 Safari/537.36","WebKit","Chrome","118.0.0.0","Windows","10.0","null","es-ES,es;q=0.9","true","null","<div style=""font-size:100px;"">X</div>","null","","","fixation","","","","","","","",""
"","","","","","audio-keyboard-response","213","439781","0.0-254.0","62","1","2023-11-01 17:07:11","a725c3012b74bf33a1020a98cb69c237","45.71.5.119","Mozilla/5.0 (Windows NT 10.0; Win64; x64) AppleWebKit/537.36 (KHTML, like Gecko) Chrome/118.0.0.0 Safari/537.36","WebKit","Chrome","118.0.0.0","Windows","10.0","null","es-ES,es;q=0.9","true","400","tones/440hz_short.mp3","a","","","tone_number_task","992.5","66","tones/440hz_short.mp3","1142.5","100","0","38",""
"","","","","","html-keyboard-response","214","440385","0.0-255.0-0.0","62","1","2023-11-01 17:07:11","a725c3012b74bf33a1020a98cb69c237","45.71.5.119","Mozilla/5.0 (Windows NT 10.0; Win64; x64) AppleWebKit/537.36 (KHTML, like Gecko) Chrome/118.0.0.0 Safari/537.36","WebKit","Chrome","118.0.0.0","Windows","10.0","null","es-ES,es;q=0.9","true","null","","null","","","delay_block","","","","","","0","38",""
"","","","","","html-keyboard-response","215","440546","0.0-255.0-1.0","62","1","2023-11-01 17:07:11","a725c3012b74bf33a1020a98cb69c237","45.71.5.119","Mozilla/5.0 (Windows NT 10.0; Win64; x64) AppleWebKit/537.36 (KHTML, like Gecko) Chrome/118.0.0.0 Safari/537.36","WebKit","Chrome","118.0.0.0","Windows","10.0","null","es-ES,es;q=0.9","true","null","<p id=""stimulus"" style=""font-size:100px;"">66</p>","null","","","tone_number_task_remaining_before_delay","","66","","742.5","100","0","38",""
"","","","","","html-keyboard-response","216","441154","0.0-258.0-0.0","62","1","2023-11-01 17:07:11","a725c3012b74bf33a1020a98cb69c237","45.71.5.119","Mozilla/5.0 (Windows NT 10.0; Win64; x64) AppleWebKit/537.36 (KHTML, like Gecko) Chrome/118.0.0.0 Safari/537.36","WebKit","Chrome","118.0.0.0","Windows","10.0","null","es-ES,es;q=0.9","true","602","<p id=""stimulus"" style=""font-size:100px;"">66</p>","k","","","empty_block","","66","","","","0","38",""
"","","","","","html-keyboard-response","217","443787","0.0-259.0","62","1","2023-11-01 17:07:11","a725c3012b74bf33a1020a98cb69c237","45.71.5.119","Mozilla/5.0 (Windows NT 10.0; Win64; x64) AppleWebKit/537.36 (KHTML, like Gecko) Chrome/118.0.0.0 Safari/537.36","WebKit","Chrome","118.0.0.0","Windows","10.0","null","es-ES,es;q=0.9","true","null","<div style=""font-size:100px;"">X</div>","null","","","fixation","","","","","","","",""
"","","","","","audio-keyboard-response","218","444138","0.0-260.0","62","1","2023-11-01 17:07:11","a725c3012b74bf33a1020a98cb69c237","45.71.5.119","Mozilla/5.0 (Windows NT 10.0; Win64; x64) AppleWebKit/537.36 (KHTML, like Gecko) Chrome/118.0.0.0 Safari/537.36","WebKit","Chrome","118.0.0.0","Windows","10.0","null","es-ES,es;q=0.9","true","349","tones/440hz_short.mp3","a","","","tone_number_task","1025","50","tones/440hz_short.mp3","1175","100","0","39",""
"","","","","","html-keyboard-response","219","444825","0.0-261.0-0.0","62","1","2023-11-01 17:07:11","a725c3012b74bf33a1020a98cb69c237","45.71.5.119","Mozilla/5.0 (Windows NT 10.0; Win64; x64) AppleWebKit/537.36 (KHTML, like Gecko) Chrome/118.0.0.0 Safari/537.36","WebKit","Chrome","118.0.0.0","Windows","10.0","null","es-ES,es;q=0.9","true","null","","null","","","delay_block","","","","","","0","39",""
"","","","","","html-keyboard-response","220","444996","0.0-261.0-1.0","62","1","2023-11-01 17:07:11","a725c3012b74bf33a1020a98cb69c237","45.71.5.119","Mozilla/5.0 (Windows NT 10.0; Win64; x64) AppleWebKit/537.36 (KHTML, like Gecko) Chrome/118.0.0.0 Safari/537.36","WebKit","Chrome","118.0.0.0","Windows","10.0","null","es-ES,es;q=0.9","true","null","<p id=""stimulus"" style=""font-size:100px;"">50</p>","null","","","tone_number_task_remaining_before_delay","","50","","826","100","0","39",""
"","","","","","html-keyboard-response","221","445242","0.0-264.0-0.0","62","1","2023-11-01 17:07:11","a725c3012b74bf33a1020a98cb69c237","45.71.5.119","Mozilla/5.0 (Windows NT 10.0; Win64; x64) AppleWebKit/537.36 (KHTML, like Gecko) Chrome/118.0.0.0 Safari/537.36","WebKit","Chrome","118.0.0.0","Windows","10.0","null","es-ES,es;q=0.9","true","239","<p id=""stimulus"" style=""font-size:100px;"">50</p>","k","","","empty_block","","50","","","","0","39",""
