"success","timeout","failed_images","failed_audio","failed_video","trial_type","trial_index","time_elapsed","internal_node_id","run_id","condition","recorded_at","source_code_version","ip","user_agent","device","browser","browser_version","platform","platform_version","referer","accept_language","check","rt","stimulus","response","question_order","url","task","delay","number","audioFile","trial_duration","font_size","block","round","value"
"true","false","[]","[]","[]","preload","0","450","0.0-0.0","24","1","2023-10-31 20:22:03","a725c3012b74bf33a1020a98cb69c237","201.234.41.210","Mozilla/5.0 (Macintosh; Intel Mac OS X 10_15_7) AppleWebKit/537.36 (KHTML, like Gecko) Chrome/118.0.0.0 Safari/537.36","Macintosh","Chrome","118.0.0.0","OS X","10_15_7","null","en-US,en;q=0.9","true","","","","","","","","","","","","","",""
"true","","","","","fullscreen","1","14088","0.0-1.0","24","1","2023-10-31 20:22:03","a725c3012b74bf33a1020a98cb69c237","201.234.41.210","Mozilla/5.0 (Macintosh; Intel Mac OS X 10_15_7) AppleWebKit/537.36 (KHTML, like Gecko) Chrome/118.0.0.0 Safari/537.36","Macintosh","Chrome","118.0.0.0","OS X","10_15_7","null","en-US,en;q=0.9","true","","","","","","","","","","","","","",""
"","","","","","html-button-response","2","15824","0.0-2.0","24","1","2023-10-31 20:22:03","a725c3012b74bf33a1020a98cb69c237","201.234.41.210","Mozilla/5.0 (Macintosh; Intel Mac OS X 10_15_7) AppleWebKit/537.36 (KHTML, like Gecko) Chrome/118.0.0.0 Safari/537.36","Macintosh","Chrome","118.0.0.0","OS X","10_15_7","null","en-US,en;q=0.9","true","1734","<p style=""font-size:24px; color:red;"">Cosas importantes a tener en cuenta antes de comenzar el experimento:</p>","0","","","","","","","","","","",""
"","","","","","html-button-response","3","21714","0.0-3.0","24","1","2023-10-31 20:22:03","a725c3012b74bf33a1020a98cb69c237","201.234.41.210","Mozilla/5.0 (Macintosh; Intel Mac OS X 10_15_7) AppleWebKit/537.36 (KHTML, like Gecko) Chrome/118.0.0.0 Safari/537.36","Macintosh","Chrome","118.0.0.0","OS X","10_15_7","null","en-US,en;q=0.9","true","5888","<p style=""font-size:24px;"">El experimento dura aproximadamente 15 minutos.</p><p style=""font-size:24px;"">Por favor, no cierres la ventana del navegador durante el experimento.</p><p style=""font-size:24px;"">Si se completa de forma parcial, no se guardará ningún resultado.</p>","0","","","","","","","","","","",""
"","","","","","html-button-response","4","24506","0.0-4.0","24","1","2023-10-31 20:22:03","a725c3012b74bf33a1020a98cb69c237","201.234.41.210","Mozilla/5.0 (Macintosh; Intel Mac OS X 10_15_7) AppleWebKit/537.36 (KHTML, like Gecko) Chrome/118.0.0.0 Safari/537.36","Macintosh","Chrome","118.0.0.0","OS X","10_15_7","null","en-US,en;q=0.9","true","2790","<p style=""font-size:24px;"">El experimento contiene estímulos sonoros.</p>","0","","","","","","","","","","",""
"","","","","","audio-button-response","5","32307","0.0-5.0-0.0","24","1","2023-10-31 20:22:03","a725c3012b74bf33a1020a98cb69c237","201.234.41.210","Mozilla/5.0 (Macintosh; Intel Mac OS X 10_15_7) AppleWebKit/537.36 (KHTML, like Gecko) Chrome/118.0.0.0 Safari/537.36","Macintosh","Chrome","118.0.0.0","OS X","10_15_7","null","en-US,en;q=0.9","true","7781","tones/440hz_short.mp3","0","","","","","","","","","","",""
"","","","","","audio-button-response","6","32868","0.0-5.1-0.1","24","1","2023-10-31 20:22:03","a725c3012b74bf33a1020a98cb69c237","201.234.41.210","Mozilla/5.0 (Macintosh; Intel Mac OS X 10_15_7) AppleWebKit/537.36 (KHTML, like Gecko) Chrome/118.0.0.0 Safari/537.36","Macintosh","Chrome","118.0.0.0","OS X","10_15_7","null","en-US,en;q=0.9","true","560","tones/440hz_short.mp3","1","","","","","","","","","","",""
"","","","","","audio-button-response","7","34538","0.0-6.0-0.0","24","1","2023-10-31 20:22:03","a725c3012b74bf33a1020a98cb69c237","201.234.41.210","Mozilla/5.0 (Macintosh; Intel Mac OS X 10_15_7) AppleWebKit/537.36 (KHTML, like Gecko) Chrome/118.0.0.0 Safari/537.36","Macintosh","Chrome","118.0.0.0","OS X","10_15_7","null","en-US,en;q=0.9","true","1664","tones/880hz_short.mp3","1","","","","","","","","","","",""
"","","","","","survey-html-form","8","37867","0.0-7.0","24","1","2023-10-31 20:22:03","a725c3012b74bf33a1020a98cb69c237","201.234.41.210","Mozilla/5.0 (Macintosh; Intel Mac OS X 10_15_7) AppleWebKit/537.36 (KHTML, like Gecko) Chrome/118.0.0.0 Safari/537.36","Macintosh","Chrome","118.0.0.0","OS X","10_15_7","null","en-US,en;q=0.9","true","3324","","{""response"":""35""}","","","","","","","","","","",""
"","","","","","survey-multi-choice","9","44364","0.0-8.0","24","1","2023-10-31 20:22:03","a725c3012b74bf33a1020a98cb69c237","201.234.41.210","Mozilla/5.0 (Macintosh; Intel Mac OS X 10_15_7) AppleWebKit/537.36 (KHTML, like Gecko) Chrome/118.0.0.0 Safari/537.36","Macintosh","Chrome","118.0.0.0","OS X","10_15_7","null","en-US,en;q=0.9","true","6495","","{""gender"":""Hombre"",""hand"":""Derecha""}","[0,1]","","","","","","","","","",""
"","","","","","external-html","10","110060","0.0-9.0","24","1","2023-10-31 20:22:03","a725c3012b74bf33a1020a98cb69c237","201.234.41.210","Mozilla/5.0 (Macintosh; Intel Mac OS X 10_15_7) AppleWebKit/537.36 (KHTML, like Gecko) Chrome/118.0.0.0 Safari/537.36","Macintosh","Chrome","118.0.0.0","OS X","10_15_7","null","en-US,en;q=0.9","true","65167","","","","instructions/instructions.html","","","","","","","","",""
"","","","","","external-html","11","146052","0.0-10.0","24","1","2023-10-31 20:22:03","a725c3012b74bf33a1020a98cb69c237","201.234.41.210","Mozilla/5.0 (Macintosh; Intel Mac OS X 10_15_7) AppleWebKit/537.36 (KHTML, like Gecko) Chrome/118.0.0.0 Safari/537.36","Macintosh","Chrome","118.0.0.0","OS X","10_15_7","null","en-US,en;q=0.9","true","35684","","","","instructions/animation.html","","","","","","","","",""
"","","","","","html-keyboard-response","12","148971","0.0-11.0-0.0","24","1","2023-10-31 20:22:03","a725c3012b74bf33a1020a98cb69c237","201.234.41.210","Mozilla/5.0 (Macintosh; Intel Mac OS X 10_15_7) AppleWebKit/537.36 (KHTML, like Gecko) Chrome/118.0.0.0 Safari/537.36","Macintosh","Chrome","118.0.0.0","OS X","10_15_7","null","en-US,en;q=0.9","true","null","<div style=""font-size:100px;"">X</div>","null","","","fixation","","","","","","","",""
"","","","","","audio-keyboard-response","13","149781","0.0-11.0-1.0","24","1","2023-10-31 20:22:03","a725c3012b74bf33a1020a98cb69c237","201.234.41.210","Mozilla/5.0 (Macintosh; Intel Mac OS X 10_15_7) AppleWebKit/537.36 (KHTML, like Gecko) Chrome/118.0.0.0 Safari/537.36","Macintosh","Chrome","118.0.0.0","OS X","10_15_7","null","en-US,en;q=0.9","true","683","tones/440hz_short.mp3","a","","","tone_number_task","1000","21","tones/440hz_short.mp3","1150","100","null","null",""
"","","","","","html-keyboard-response","14","150105","0.0-11.0-2.0-0.0","24","1","2023-10-31 20:22:03","a725c3012b74bf33a1020a98cb69c237","201.234.41.210","Mozilla/5.0 (Macintosh; Intel Mac OS X 10_15_7) AppleWebKit/537.36 (KHTML, like Gecko) Chrome/118.0.0.0 Safari/537.36","Macintosh","Chrome","118.0.0.0","OS X","10_15_7","null","en-US,en;q=0.9","true","null","","null","","","delay_block","","","","","","null","null",""
"","","","","","html-keyboard-response","15","150262","0.0-11.0-2.0-1.0","24","1","2023-10-31 20:22:03","a725c3012b74bf33a1020a98cb69c237","201.234.41.210","Mozilla/5.0 (Macintosh; Intel Mac OS X 10_15_7) AppleWebKit/537.36 (KHTML, like Gecko) Chrome/118.0.0.0 Safari/537.36","Macintosh","Chrome","118.0.0.0","OS X","10_15_7","null","en-US,en;q=0.9","true","null","<p id=""stimulus"" style=""font-size:100px;"">21</p>","null","","","tone_number_task_remaining_before_delay","","21","","467","100","null","null",""
"","","","","","html-keyboard-response","16","150989","0.0-11.0-5.0-0.0","24","1","2023-10-31 20:22:03","a725c3012b74bf33a1020a98cb69c237","201.234.41.210","Mozilla/5.0 (Macintosh; Intel Mac OS X 10_15_7) AppleWebKit/537.36 (KHTML, like Gecko) Chrome/118.0.0.0 Safari/537.36","Macintosh","Chrome","118.0.0.0","OS X","10_15_7","null","en-US,en;q=0.9","true","724","<p id=""stimulus"" style=""font-size:100px;"">21</p>","j","","","empty_block","","21","","","","null","null",""
"","","","","","html-keyboard-response","17","153905","0.0-13.0-0.0","24","1","2023-10-31 20:22:03","a725c3012b74bf33a1020a98cb69c237","201.234.41.210","Mozilla/5.0 (Macintosh; Intel Mac OS X 10_15_7) AppleWebKit/537.36 (KHTML, like Gecko) Chrome/118.0.0.0 Safari/537.36","Macintosh","Chrome","118.0.0.0","OS X","10_15_7","null","en-US,en;q=0.9","true","null","<div style=""font-size:100px;"">X</div>","null","","","fixation","","","","","","","",""
"","","","","","audio-keyboard-response","18","154395","0.0-13.0-1.0","24","1","2023-10-31 20:22:03","a725c3012b74bf33a1020a98cb69c237","201.234.41.210","Mozilla/5.0 (Macintosh; Intel Mac OS X 10_15_7) AppleWebKit/537.36 (KHTML, like Gecko) Chrome/118.0.0.0 Safari/537.36","Macintosh","Chrome","118.0.0.0","OS X","10_15_7","null","en-US,en;q=0.9","true","485","tones/880hz_short.mp3","s","","","tone_number_task","500","50","tones/880hz_short.mp3","650","100","null","null",""
"","","","","","html-keyboard-response","19","154417","0.0-13.0-2.0-0.0","24","1","2023-10-31 20:22:03","a725c3012b74bf33a1020a98cb69c237","201.234.41.210","Mozilla/5.0 (Macintosh; Intel Mac OS X 10_15_7) AppleWebKit/537.36 (KHTML, like Gecko) Chrome/118.0.0.0 Safari/537.36","Macintosh","Chrome","118.0.0.0","OS X","10_15_7","null","en-US,en;q=0.9","true","null","","null","","","delay_block","","","","","","null","null",""
"","","","","","html-keyboard-response","20","154576","0.0-13.0-2.0-1.0","24","1","2023-10-31 20:22:03","a725c3012b74bf33a1020a98cb69c237","201.234.41.210","Mozilla/5.0 (Macintosh; Intel Mac OS X 10_15_7) AppleWebKit/537.36 (KHTML, like Gecko) Chrome/118.0.0.0 Safari/537.36","Macintosh","Chrome","118.0.0.0","OS X","10_15_7","null","en-US,en;q=0.9","true","null","<p id=""stimulus"" style=""font-size:100px;"">50</p>","null","","","tone_number_task_remaining_before_delay","","50","","165","100","null","null",""
"","","","","","html-keyboard-response","21","155178","0.0-13.0-5.0-0.0","24","1","2023-10-31 20:22:03","a725c3012b74bf33a1020a98cb69c237","201.234.41.210","Mozilla/5.0 (Macintosh; Intel Mac OS X 10_15_7) AppleWebKit/537.36 (KHTML, like Gecko) Chrome/118.0.0.0 Safari/537.36","Macintosh","Chrome","118.0.0.0","OS X","10_15_7","null","en-US,en;q=0.9","true","599","<p id=""stimulus"" style=""font-size:100px;"">50</p>","k","","","empty_block","","50","","","","null","null",""
"","","","","","html-keyboard-response","22","158091","0.0-15.0-0.0","24","1","2023-10-31 20:22:03","a725c3012b74bf33a1020a98cb69c237","201.234.41.210","Mozilla/5.0 (Macintosh; Intel Mac OS X 10_15_7) AppleWebKit/537.36 (KHTML, like Gecko) Chrome/118.0.0.0 Safari/537.36","Macintosh","Chrome","118.0.0.0","OS X","10_15_7","null","en-US,en;q=0.9","true","null","<div style=""font-size:100px;"">X</div>","null","","","fixation","","","","","","","",""
"","","","","","audio-keyboard-response","23","158400","0.0-15.0-1.0","24","1","2023-10-31 20:22:03","a725c3012b74bf33a1020a98cb69c237","201.234.41.210","Mozilla/5.0 (Macintosh; Intel Mac OS X 10_15_7) AppleWebKit/537.36 (KHTML, like Gecko) Chrome/118.0.0.0 Safari/537.36","Macintosh","Chrome","118.0.0.0","OS X","10_15_7","null","en-US,en;q=0.9","true","null","tones/880hz_short.mp3","null","","","tone_number_task","150","29","tones/880hz_short.mp3","300","100","null","null",""
"","","","","","html-keyboard-response","24","158652","0.0-15.0-4.0-0.0","24","1","2023-10-31 20:22:03","a725c3012b74bf33a1020a98cb69c237","201.234.41.210","Mozilla/5.0 (Macintosh; Intel Mac OS X 10_15_7) AppleWebKit/537.36 (KHTML, like Gecko) Chrome/118.0.0.0 Safari/537.36","Macintosh","Chrome","118.0.0.0","OS X","10_15_7","null","en-US,en;q=0.9","true","247","tones/880hz_short.mp3","s","","","empty_block","","29","","","","null","null",""
"","","","","","html-keyboard-response","25","159181","0.0-15.0-4.0-1.0","24","1","2023-10-31 20:22:03","a725c3012b74bf33a1020a98cb69c237","201.234.41.210","Mozilla/5.0 (Macintosh; Intel Mac OS X 10_15_7) AppleWebKit/537.36 (KHTML, like Gecko) Chrome/118.0.0.0 Safari/537.36","Macintosh","Chrome","118.0.0.0","OS X","10_15_7","null","en-US,en;q=0.9","true","526","tones/880hz_short.mp3","j","","","empty_block","","29","","","","null","null",""
"","","","","","html-keyboard-response","26","162098","0.0-17.0-0.0","24","1","2023-10-31 20:22:03","a725c3012b74bf33a1020a98cb69c237","201.234.41.210","Mozilla/5.0 (Macintosh; Intel Mac OS X 10_15_7) AppleWebKit/537.36 (KHTML, like Gecko) Chrome/118.0.0.0 Safari/537.36","Macintosh","Chrome","118.0.0.0","OS X","10_15_7","null","en-US,en;q=0.9","true","null","<div style=""font-size:100px;"">X</div>","null","","","fixation","","","","","","","",""
"","","","","","audio-keyboard-response","27","162304","0.0-17.0-1.0","24","1","2023-10-31 20:22:03","a725c3012b74bf33a1020a98cb69c237","201.234.41.210","Mozilla/5.0 (Macintosh; Intel Mac OS X 10_15_7) AppleWebKit/537.36 (KHTML, like Gecko) Chrome/118.0.0.0 Safari/537.36","Macintosh","Chrome","118.0.0.0","OS X","10_15_7","null","en-US,en;q=0.9","true","null","tones/880hz_short.mp3","null","","","tone_number_task","50","26","tones/880hz_short.mp3","200","100","null","null",""
"","","","","","html-keyboard-response","28","162716","0.0-17.0-4.0-0.0","24","1","2023-10-31 20:22:03","a725c3012b74bf33a1020a98cb69c237","201.234.41.210","Mozilla/5.0 (Macintosh; Intel Mac OS X 10_15_7) AppleWebKit/537.36 (KHTML, like Gecko) Chrome/118.0.0.0 Safari/537.36","Macintosh","Chrome","118.0.0.0","OS X","10_15_7","null","en-US,en;q=0.9","true","409","tones/880hz_short.mp3","s","","","empty_block","","26","","","","null","null",""
"","","","","","html-keyboard-response","29","162978","0.0-17.0-4.0-1.0","24","1","2023-10-31 20:22:03","a725c3012b74bf33a1020a98cb69c237","201.234.41.210","Mozilla/5.0 (Macintosh; Intel Mac OS X 10_15_7) AppleWebKit/537.36 (KHTML, like Gecko) Chrome/118.0.0.0 Safari/537.36","Macintosh","Chrome","118.0.0.0","OS X","10_15_7","null","en-US,en;q=0.9","true","260","tones/880hz_short.mp3","j","","","empty_block","","26","","","","null","null",""
"","","","","","html-button-response","30","170675","0.0-19.0","24","1","2023-10-31 20:22:03","a725c3012b74bf33a1020a98cb69c237","201.234.41.210","Mozilla/5.0 (Macintosh; Intel Mac OS X 10_15_7) AppleWebKit/537.36 (KHTML, like Gecko) Chrome/118.0.0.0 Safari/537.36","Macintosh","Chrome","118.0.0.0","OS X","10_15_7","null","en-US,en;q=0.9","true","7693","
  <h1> Muy bien </h1>
  <p> Ahora, en vez de ser presentados en dígitos, los números vendrán escritos en palabras. </p>
  <p> Por ejemplo, en vez de 44 te aparecerá ""cuarenta y cuatro"". </p>
  ","0","","","","","","","","","","",""
"","","","","","html-keyboard-response","31","173593","0.0-20.0-0.0","24","1","2023-10-31 20:22:03","a725c3012b74bf33a1020a98cb69c237","201.234.41.210","Mozilla/5.0 (Macintosh; Intel Mac OS X 10_15_7) AppleWebKit/537.36 (KHTML, like Gecko) Chrome/118.0.0.0 Safari/537.36","Macintosh","Chrome","118.0.0.0","OS X","10_15_7","null","en-US,en;q=0.9","true","null","<div style=""font-size:100px;"">X</div>","null","","","fixation","","","","","","","",""
"","","","","","audio-keyboard-response","32","174235","0.0-20.0-1.0","24","1","2023-10-31 20:22:03","a725c3012b74bf33a1020a98cb69c237","201.234.41.210","Mozilla/5.0 (Macintosh; Intel Mac OS X 10_15_7) AppleWebKit/537.36 (KHTML, like Gecko) Chrome/118.0.0.0 Safari/537.36","Macintosh","Chrome","118.0.0.0","OS X","10_15_7","null","en-US,en;q=0.9","true","640","tones/440hz_short.mp3","a","","","tone_number_task","1000","cuarenta y uno","tones/440hz_short.mp3","1150","60","null","null",""
"","","","","","html-keyboard-response","33","174600","0.0-20.0-2.0-0.0","24","1","2023-10-31 20:22:03","a725c3012b74bf33a1020a98cb69c237","201.234.41.210","Mozilla/5.0 (Macintosh; Intel Mac OS X 10_15_7) AppleWebKit/537.36 (KHTML, like Gecko) Chrome/118.0.0.0 Safari/537.36","Macintosh","Chrome","118.0.0.0","OS X","10_15_7","null","en-US,en;q=0.9","true","null","","null","","","delay_block","","","","","","null","null",""
"","","","","","html-keyboard-response","34","174758","0.0-20.0-2.0-1.0","24","1","2023-10-31 20:22:03","a725c3012b74bf33a1020a98cb69c237","201.234.41.210","Mozilla/5.0 (Macintosh; Intel Mac OS X 10_15_7) AppleWebKit/537.36 (KHTML, like Gecko) Chrome/118.0.0.0 Safari/537.36","Macintosh","Chrome","118.0.0.0","OS X","10_15_7","null","en-US,en;q=0.9","true","null","<p id=""stimulus"" style=""font-size:60px;"">cuarenta y uno</p>","null","","","tone_number_task_remaining_before_delay","","cuarenta y uno","","510","60","null","null",""
"","","","","","html-keyboard-response","35","175788","0.0-20.0-5.0-0.0","24","1","2023-10-31 20:22:03","a725c3012b74bf33a1020a98cb69c237","201.234.41.210","Mozilla/5.0 (Macintosh; Intel Mac OS X 10_15_7) AppleWebKit/537.36 (KHTML, like Gecko) Chrome/118.0.0.0 Safari/537.36","Macintosh","Chrome","118.0.0.0","OS X","10_15_7","null","en-US,en;q=0.9","true","1025","<p id=""stimulus"" style=""font-size:60px;"">cuarenta y uno</p>","j","","","empty_block","","cuarenta y uno","","","","null","null",""
"","","","","","html-button-response","36","178627","0.0-22.0","24","1","2023-10-31 20:22:03","a725c3012b74bf33a1020a98cb69c237","201.234.41.210","Mozilla/5.0 (Macintosh; Intel Mac OS X 10_15_7) AppleWebKit/537.36 (KHTML, like Gecko) Chrome/118.0.0.0 Safari/537.36","Macintosh","Chrome","118.0.0.0","OS X","10_15_7","null","en-US,en;q=0.9","true","2835","
  <h1> Fin del Entrenamiento </h1>
  <p> ¡Felicitaciones, terminaste el entrenamiento! Ahora vamos a comenzar con el experimento. </p>
  <p> Es importante tener en cuenta que consta de cuatro bloques.</p>
  <p> Podés aprovechar los momentos entre bloques para tomar un breve descanso o tomar agua entre cada uno</p>
  <p> Recordá que tenés que responder lo más rápido que puedas, pero sin equivocarte. </p>
  ","0","","","","","","","","","","",""
"","","","","","external-html","37","184899","0.0-23.0","24","1","2023-10-31 20:22:03","a725c3012b74bf33a1020a98cb69c237","201.234.41.210","Mozilla/5.0 (Macintosh; Intel Mac OS X 10_15_7) AppleWebKit/537.36 (KHTML, like Gecko) Chrome/118.0.0.0 Safari/537.36","Macintosh","Chrome","118.0.0.0","OS X","10_15_7","null","en-US,en;q=0.9","true","5891","","","","instructions/instructions_digits_first.html","","","","","","","","",""
"","","","","","call-function","38","184904","0.0-24.0","24","1","2023-10-31 20:22:03","a725c3012b74bf33a1020a98cb69c237","201.234.41.210","Mozilla/5.0 (Macintosh; Intel Mac OS X 10_15_7) AppleWebKit/537.36 (KHTML, like Gecko) Chrome/118.0.0.0 Safari/537.36","Macintosh","Chrome","118.0.0.0","OS X","10_15_7","null","en-US,en;q=0.9","true","","","","","","","","","","","","","",""
"","","","","","html-keyboard-response","39","187820","0.0-25.0","24","1","2023-10-31 20:22:03","a725c3012b74bf33a1020a98cb69c237","201.234.41.210","Mozilla/5.0 (Macintosh; Intel Mac OS X 10_15_7) AppleWebKit/537.36 (KHTML, like Gecko) Chrome/118.0.0.0 Safari/537.36","Macintosh","Chrome","118.0.0.0","OS X","10_15_7","null","en-US,en;q=0.9","true","null","<div style=""font-size:100px;"">X</div>","null","","","fixation","","","","","","","",""
"","","","","","audio-keyboard-response","40","188080","0.0-26.0","24","1","2023-10-31 20:22:03","a725c3012b74bf33a1020a98cb69c237","201.234.41.210","Mozilla/5.0 (Macintosh; Intel Mac OS X 10_15_7) AppleWebKit/537.36 (KHTML, like Gecko) Chrome/118.0.0.0 Safari/537.36","Macintosh","Chrome","118.0.0.0","OS X","10_15_7","null","en-US,en;q=0.9","true","null","tones/440hz_short.mp3","null","","","tone_number_task","102.5","67","tones/440hz_short.mp3","252.5","100","0","0",""
"","","","","","html-keyboard-response","41","188178","0.0-29.0-0.0","24","1","2023-10-31 20:22:03","a725c3012b74bf33a1020a98cb69c237","201.234.41.210","Mozilla/5.0 (Macintosh; Intel Mac OS X 10_15_7) AppleWebKit/537.36 (KHTML, like Gecko) Chrome/118.0.0.0 Safari/537.36","Macintosh","Chrome","118.0.0.0","OS X","10_15_7","null","en-US,en;q=0.9","true","93","tones/440hz_short.mp3","a","","","empty_block","","67","","","","0","0",""
"","","","","","html-keyboard-response","42","188484","0.0-29.0-1.0","24","1","2023-10-31 20:22:03","a725c3012b74bf33a1020a98cb69c237","201.234.41.210","Mozilla/5.0 (Macintosh; Intel Mac OS X 10_15_7) AppleWebKit/537.36 (KHTML, like Gecko) Chrome/118.0.0.0 Safari/537.36","Macintosh","Chrome","118.0.0.0","OS X","10_15_7","null","en-US,en;q=0.9","true","302","tones/440hz_short.mp3","j","","","empty_block","","67","","","","0","0",""
"","","","","","html-keyboard-response","43","191397","0.0-31.0","24","1","2023-10-31 20:22:03","a725c3012b74bf33a1020a98cb69c237","201.234.41.210","Mozilla/5.0 (Macintosh; Intel Mac OS X 10_15_7) AppleWebKit/537.36 (KHTML, like Gecko) Chrome/118.0.0.0 Safari/537.36","Macintosh","Chrome","118.0.0.0","OS X","10_15_7","null","en-US,en;q=0.9","true","null","<div style=""font-size:100px;"">X</div>","null","","","fixation","","","","","","","",""
"","","","","","audio-keyboard-response","44","191655","0.0-32.0","24","1","2023-10-31 20:22:03","a725c3012b74bf33a1020a98cb69c237","201.234.41.210","Mozilla/5.0 (Macintosh; Intel Mac OS X 10_15_7) AppleWebKit/537.36 (KHTML, like Gecko) Chrome/118.0.0.0 Safari/537.36","Macintosh","Chrome","118.0.0.0","OS X","10_15_7","null","en-US,en;q=0.9","true","null","tones/440hz_short.mp3","null","","","tone_number_task","102.5","47","tones/440hz_short.mp3","252.5","100","0","1",""
"","","","","","html-keyboard-response","45","191820","0.0-35.0-0.0","24","1","2023-10-31 20:22:03","a725c3012b74bf33a1020a98cb69c237","201.234.41.210","Mozilla/5.0 (Macintosh; Intel Mac OS X 10_15_7) AppleWebKit/537.36 (KHTML, like Gecko) Chrome/118.0.0.0 Safari/537.36","Macintosh","Chrome","118.0.0.0","OS X","10_15_7","null","en-US,en;q=0.9","true","160","tones/440hz_short.mp3","a","","","empty_block","","47","","","","0","1",""
"","","","","","html-keyboard-response","46","192211","0.0-35.0-1.0","24","1","2023-10-31 20:22:03","a725c3012b74bf33a1020a98cb69c237","201.234.41.210","Mozilla/5.0 (Macintosh; Intel Mac OS X 10_15_7) AppleWebKit/537.36 (KHTML, like Gecko) Chrome/118.0.0.0 Safari/537.36","Macintosh","Chrome","118.0.0.0","OS X","10_15_7","null","en-US,en;q=0.9","true","388","tones/440hz_short.mp3","k","","","empty_block","","47","","","","0","1",""
"","","","","","html-keyboard-response","47","195128","0.0-37.0","24","1","2023-10-31 20:22:03","a725c3012b74bf33a1020a98cb69c237","201.234.41.210","Mozilla/5.0 (Macintosh; Intel Mac OS X 10_15_7) AppleWebKit/537.36 (KHTML, like Gecko) Chrome/118.0.0.0 Safari/537.36","Macintosh","Chrome","118.0.0.0","OS X","10_15_7","null","en-US,en;q=0.9","true","null","<div style=""font-size:100px;"">X</div>","null","","","fixation","","","","","","","",""
"","","","","","audio-keyboard-response","48","195556","0.0-38.0","24","1","2023-10-31 20:22:03","a725c3012b74bf33a1020a98cb69c237","201.234.41.210","Mozilla/5.0 (Macintosh; Intel Mac OS X 10_15_7) AppleWebKit/537.36 (KHTML, like Gecko) Chrome/118.0.0.0 Safari/537.36","Macintosh","Chrome","118.0.0.0","OS X","10_15_7","null","en-US,en;q=0.9","true","421","tones/440hz_short.mp3","a","","","tone_number_task","1025","41","tones/440hz_short.mp3","1175","100","0","2",""
"","","","","","html-keyboard-response","49","196165","0.0-39.0-0.0","24","1","2023-10-31 20:22:03","a725c3012b74bf33a1020a98cb69c237","201.234.41.210","Mozilla/5.0 (Macintosh; Intel Mac OS X 10_15_7) AppleWebKit/537.36 (KHTML, like Gecko) Chrome/118.0.0.0 Safari/537.36","Macintosh","Chrome","118.0.0.0","OS X","10_15_7","null","en-US,en;q=0.9","true","null","","null","","","delay_block","","","","","","0","2",""
"","","","","","html-keyboard-response","50","196323","0.0-39.0-1.0","24","1","2023-10-31 20:22:03","a725c3012b74bf33a1020a98cb69c237","201.234.41.210","Mozilla/5.0 (Macintosh; Intel Mac OS X 10_15_7) AppleWebKit/537.36 (KHTML, like Gecko) Chrome/118.0.0.0 Safari/537.36","Macintosh","Chrome","118.0.0.0","OS X","10_15_7","null","en-US,en;q=0.9","true","null","<p id=""stimulus"" style=""font-size:100px;"">41</p>","null","","","tone_number_task_remaining_before_delay","","41","","754","100","0","2",""
"","","","","","html-keyboard-response","51","196860","0.0-42.0-0.0","24","1","2023-10-31 20:22:03","a725c3012b74bf33a1020a98cb69c237","201.234.41.210","Mozilla/5.0 (Macintosh; Intel Mac OS X 10_15_7) AppleWebKit/537.36 (KHTML, like Gecko) Chrome/118.0.0.0 Safari/537.36","Macintosh","Chrome","118.0.0.0","OS X","10_15_7","null","en-US,en;q=0.9","true","532","<p id=""stimulus"" style=""font-size:100px;"">41</p>","j","","","empty_block","","41","","","","0","2",""
"","","","","","html-keyboard-response","52","199777","0.0-43.0","24","1","2023-10-31 20:22:03","a725c3012b74bf33a1020a98cb69c237","201.234.41.210","Mozilla/5.0 (Macintosh; Intel Mac OS X 10_15_7) AppleWebKit/537.36 (KHTML, like Gecko) Chrome/118.0.0.0 Safari/537.36","Macintosh","Chrome","118.0.0.0","OS X","10_15_7","null","en-US,en;q=0.9","true","null","<div style=""font-size:100px;"">X</div>","null","","","fixation","","","","","","","",""
"","","","","","audio-keyboard-response","53","200038","0.0-44.0","24","1","2023-10-31 20:22:03","a725c3012b74bf33a1020a98cb69c237","201.234.41.210","Mozilla/5.0 (Macintosh; Intel Mac OS X 10_15_7) AppleWebKit/537.36 (KHTML, like Gecko) Chrome/118.0.0.0 Safari/537.36","Macintosh","Chrome","118.0.0.0","OS X","10_15_7","null","en-US,en;q=0.9","true","null","tones/880hz_short.mp3","null","","","tone_number_task","102.5","32","tones/880hz_short.mp3","252.5","100","0","3",""
"","","","","","html-keyboard-response","54","200315","0.0-47.0-0.0","24","1","2023-10-31 20:22:03","a725c3012b74bf33a1020a98cb69c237","201.234.41.210","Mozilla/5.0 (Macintosh; Intel Mac OS X 10_15_7) AppleWebKit/537.36 (KHTML, like Gecko) Chrome/118.0.0.0 Safari/537.36","Macintosh","Chrome","118.0.0.0","OS X","10_15_7","null","en-US,en;q=0.9","true","273","tones/880hz_short.mp3","s","","","empty_block","","32","","","","0","3",""
"","","","","","html-keyboard-response","55","200708","0.0-47.0-1.0","24","1","2023-10-31 20:22:03","a725c3012b74bf33a1020a98cb69c237","201.234.41.210","Mozilla/5.0 (Macintosh; Intel Mac OS X 10_15_7) AppleWebKit/537.36 (KHTML, like Gecko) Chrome/118.0.0.0 Safari/537.36","Macintosh","Chrome","118.0.0.0","OS X","10_15_7","null","en-US,en;q=0.9","true","390","tones/880hz_short.mp3","j","","","empty_block","","32","","","","0","3",""
"","","","","","html-keyboard-response","56","203623","0.0-49.0","24","1","2023-10-31 20:22:03","a725c3012b74bf33a1020a98cb69c237","201.234.41.210","Mozilla/5.0 (Macintosh; Intel Mac OS X 10_15_7) AppleWebKit/537.36 (KHTML, like Gecko) Chrome/118.0.0.0 Safari/537.36","Macintosh","Chrome","118.0.0.0","OS X","10_15_7","null","en-US,en;q=0.9","true","null","<div style=""font-size:100px;"">X</div>","null","","","fixation","","","","","","","",""
"","","","","","audio-keyboard-response","57","204060","0.0-50.0","24","1","2023-10-31 20:22:03","a725c3012b74bf33a1020a98cb69c237","201.234.41.210","Mozilla/5.0 (Macintosh; Intel Mac OS X 10_15_7) AppleWebKit/537.36 (KHTML, like Gecko) Chrome/118.0.0.0 Safari/537.36","Macintosh","Chrome","118.0.0.0","OS X","10_15_7","null","en-US,en;q=0.9","true","432","tones/440hz_short.mp3","a","","","tone_number_task","1025","47","tones/440hz_short.mp3","1175","100","0","4",""
"","","","","","html-keyboard-response","58","204659","0.0-51.0-0.0","24","1","2023-10-31 20:22:03","a725c3012b74bf33a1020a98cb69c237","201.234.41.210","Mozilla/5.0 (Macintosh; Intel Mac OS X 10_15_7) AppleWebKit/537.36 (KHTML, like Gecko) Chrome/118.0.0.0 Safari/537.36","Macintosh","Chrome","118.0.0.0","OS X","10_15_7","null","en-US,en;q=0.9","true","null","","null","","","delay_block","","","","","","0","4",""
"","","","","","html-keyboard-response","59","204817","0.0-51.0-1.0","24","1","2023-10-31 20:22:03","a725c3012b74bf33a1020a98cb69c237","201.234.41.210","Mozilla/5.0 (Macintosh; Intel Mac OS X 10_15_7) AppleWebKit/537.36 (KHTML, like Gecko) Chrome/118.0.0.0 Safari/537.36","Macintosh","Chrome","118.0.0.0","OS X","10_15_7","null","en-US,en;q=0.9","true","null","<p id=""stimulus"" style=""font-size:100px;"">47</p>","null","","","tone_number_task_remaining_before_delay","","47","","743","100","0","4",""
"","","","","","html-keyboard-response","60","205228","0.0-54.0-0.0","24","1","2023-10-31 20:22:03","a725c3012b74bf33a1020a98cb69c237","201.234.41.210","Mozilla/5.0 (Macintosh; Intel Mac OS X 10_15_7) AppleWebKit/537.36 (KHTML, like Gecko) Chrome/118.0.0.0 Safari/537.36","Macintosh","Chrome","118.0.0.0","OS X","10_15_7","null","en-US,en;q=0.9","true","405","<p id=""stimulus"" style=""font-size:100px;"">47</p>","k","","","empty_block","","47","","","","0","4",""
"","","","","","html-keyboard-response","61","208140","0.0-55.0","24","1","2023-10-31 20:22:03","a725c3012b74bf33a1020a98cb69c237","201.234.41.210","Mozilla/5.0 (Macintosh; Intel Mac OS X 10_15_7) AppleWebKit/537.36 (KHTML, like Gecko) Chrome/118.0.0.0 Safari/537.36","Macintosh","Chrome","118.0.0.0","OS X","10_15_7","null","en-US,en;q=0.9","true","null","<div style=""font-size:100px;"">X</div>","null","","","fixation","","","","","","","",""
"","","","","","audio-keyboard-response","62","208395","0.0-56.0","24","1","2023-10-31 20:22:03","a725c3012b74bf33a1020a98cb69c237","201.234.41.210","Mozilla/5.0 (Macintosh; Intel Mac OS X 10_15_7) AppleWebKit/537.36 (KHTML, like Gecko) Chrome/118.0.0.0 Safari/537.36","Macintosh","Chrome","118.0.0.0","OS X","10_15_7","null","en-US,en;q=0.9","true","null","tones/440hz_short.mp3","null","","","tone_number_task","102.5","36","tones/440hz_short.mp3","252.5","100","0","5",""
"","","","","","html-keyboard-response","63","208596","0.0-59.0-0.0","24","1","2023-10-31 20:22:03","a725c3012b74bf33a1020a98cb69c237","201.234.41.210","Mozilla/5.0 (Macintosh; Intel Mac OS X 10_15_7) AppleWebKit/537.36 (KHTML, like Gecko) Chrome/118.0.0.0 Safari/537.36","Macintosh","Chrome","118.0.0.0","OS X","10_15_7","null","en-US,en;q=0.9","true","198","tones/440hz_short.mp3","a","","","empty_block","","36","","","","0","5",""
"","","","","","html-keyboard-response","64","208818","0.0-59.0-1.0","24","1","2023-10-31 20:22:03","a725c3012b74bf33a1020a98cb69c237","201.234.41.210","Mozilla/5.0 (Macintosh; Intel Mac OS X 10_15_7) AppleWebKit/537.36 (KHTML, like Gecko) Chrome/118.0.0.0 Safari/537.36","Macintosh","Chrome","118.0.0.0","OS X","10_15_7","null","en-US,en;q=0.9","true","220","tones/440hz_short.mp3","j","","","empty_block","","36","","","","0","5",""
"","","","","","html-keyboard-response","65","211732","0.0-61.0","24","1","2023-10-31 20:22:03","a725c3012b74bf33a1020a98cb69c237","201.234.41.210","Mozilla/5.0 (Macintosh; Intel Mac OS X 10_15_7) AppleWebKit/537.36 (KHTML, like Gecko) Chrome/118.0.0.0 Safari/537.36","Macintosh","Chrome","118.0.0.0","OS X","10_15_7","null","en-US,en;q=0.9","true","null","<div style=""font-size:100px;"">X</div>","null","","","fixation","","","","","","","",""
"","","","","","audio-keyboard-response","66","211890","0.0-62.0","24","1","2023-10-31 20:22:03","a725c3012b74bf33a1020a98cb69c237","201.234.41.210","Mozilla/5.0 (Macintosh; Intel Mac OS X 10_15_7) AppleWebKit/537.36 (KHTML, like Gecko) Chrome/118.0.0.0 Safari/537.36","Macintosh","Chrome","118.0.0.0","OS X","10_15_7","null","en-US,en;q=0.9","true","null","tones/440hz_short.mp3","null","","","tone_number_task","0","65","tones/440hz_short.mp3","150","100","0","6",""
"","","","","","html-keyboard-response","67","211978","0.0-65.0-0.0","24","1","2023-10-31 20:22:03","a725c3012b74bf33a1020a98cb69c237","201.234.41.210","Mozilla/5.0 (Macintosh; Intel Mac OS X 10_15_7) AppleWebKit/537.36 (KHTML, like Gecko) Chrome/118.0.0.0 Safari/537.36","Macintosh","Chrome","118.0.0.0","OS X","10_15_7","null","en-US,en;q=0.9","true","83","tones/440hz_short.mp3","a","","","empty_block","","65","","","","0","6",""
"","","","","","html-keyboard-response","68","212291","0.0-65.0-1.0","24","1","2023-10-31 20:22:03","a725c3012b74bf33a1020a98cb69c237","201.234.41.210","Mozilla/5.0 (Macintosh; Intel Mac OS X 10_15_7) AppleWebKit/537.36 (KHTML, like Gecko) Chrome/118.0.0.0 Safari/537.36","Macintosh","Chrome","118.0.0.0","OS X","10_15_7","null","en-US,en;q=0.9","true","310","tones/440hz_short.mp3","k","","","empty_block","","65","","","","0","6",""
"","","","","","html-keyboard-response","69","215206","0.0-67.0","24","1","2023-10-31 20:22:03","a725c3012b74bf33a1020a98cb69c237","201.234.41.210","Mozilla/5.0 (Macintosh; Intel Mac OS X 10_15_7) AppleWebKit/537.36 (KHTML, like Gecko) Chrome/118.0.0.0 Safari/537.36","Macintosh","Chrome","118.0.0.0","OS X","10_15_7","null","en-US,en;q=0.9","true","null","<div style=""font-size:100px;"">X</div>","null","","","fixation","","","","","","","",""
"","","","","","audio-keyboard-response","70","215628","0.0-68.0","24","1","2023-10-31 20:22:03","a725c3012b74bf33a1020a98cb69c237","201.234.41.210","Mozilla/5.0 (Macintosh; Intel Mac OS X 10_15_7) AppleWebKit/537.36 (KHTML, like Gecko) Chrome/118.0.0.0 Safari/537.36","Macintosh","Chrome","118.0.0.0","OS X","10_15_7","null","en-US,en;q=0.9","true","416","tones/880hz_short.mp3","s","","","tone_number_task","992.5","63","tones/880hz_short.mp3","1142.5","100","0","7",""
"","","","","","html-keyboard-response","71","216210","0.0-69.0-0.0","24","1","2023-10-31 20:22:03","a725c3012b74bf33a1020a98cb69c237","201.234.41.210","Mozilla/5.0 (Macintosh; Intel Mac OS X 10_15_7) AppleWebKit/537.36 (KHTML, like Gecko) Chrome/118.0.0.0 Safari/537.36","Macintosh","Chrome","118.0.0.0","OS X","10_15_7","null","en-US,en;q=0.9","true","null","","null","","","delay_block","","","","","","0","7",""
"","","","","","html-keyboard-response","72","216367","0.0-69.0-1.0","24","1","2023-10-31 20:22:03","a725c3012b74bf33a1020a98cb69c237","201.234.41.210","Mozilla/5.0 (Macintosh; Intel Mac OS X 10_15_7) AppleWebKit/537.36 (KHTML, like Gecko) Chrome/118.0.0.0 Safari/537.36","Macintosh","Chrome","118.0.0.0","OS X","10_15_7","null","en-US,en;q=0.9","true","null","<p id=""stimulus"" style=""font-size:100px;"">63</p>","null","","","tone_number_task_remaining_before_delay","","63","","726.5","100","0","7",""
"","","","","","html-keyboard-response","73","216685","0.0-72.0-0.0","24","1","2023-10-31 20:22:03","a725c3012b74bf33a1020a98cb69c237","201.234.41.210","Mozilla/5.0 (Macintosh; Intel Mac OS X 10_15_7) AppleWebKit/537.36 (KHTML, like Gecko) Chrome/118.0.0.0 Safari/537.36","Macintosh","Chrome","118.0.0.0","OS X","10_15_7","null","en-US,en;q=0.9","true","313","<p id=""stimulus"" style=""font-size:100px;"">63</p>","k","","","empty_block","","63","","","","0","7",""
"","","","","","html-keyboard-response","74","219602","0.0-73.0","24","1","2023-10-31 20:22:03","a725c3012b74bf33a1020a98cb69c237","201.234.41.210","Mozilla/5.0 (Macintosh; Intel Mac OS X 10_15_7) AppleWebKit/537.36 (KHTML, like Gecko) Chrome/118.0.0.0 Safari/537.36","Macintosh","Chrome","118.0.0.0","OS X","10_15_7","null","en-US,en;q=0.9","true","null","<div style=""font-size:100px;"">X</div>","null","","","fixation","","","","","","","",""
"","","","","","audio-keyboard-response","75","220206","0.0-74.0","24","1","2023-10-31 20:22:03","a725c3012b74bf33a1020a98cb69c237","201.234.41.210","Mozilla/5.0 (Macintosh; Intel Mac OS X 10_15_7) AppleWebKit/537.36 (KHTML, like Gecko) Chrome/118.0.0.0 Safari/537.36","Macintosh","Chrome","118.0.0.0","OS X","10_15_7","null","en-US,en;q=0.9","true","597","tones/880hz_short.mp3","s","","","tone_number_task","992.5","41","tones/880hz_short.mp3","1142.5","100","0","8",""
"","","","","","html-keyboard-response","76","220606","0.0-75.0-0.0","24","1","2023-10-31 20:22:03","a725c3012b74bf33a1020a98cb69c237","201.234.41.210","Mozilla/5.0 (Macintosh; Intel Mac OS X 10_15_7) AppleWebKit/537.36 (KHTML, like Gecko) Chrome/118.0.0.0 Safari/537.36","Macintosh","Chrome","118.0.0.0","OS X","10_15_7","null","en-US,en;q=0.9","true","null","","null","","","delay_block","","","","","","0","8",""
"","","","","","html-keyboard-response","77","220766","0.0-75.0-1.0","24","1","2023-10-31 20:22:03","a725c3012b74bf33a1020a98cb69c237","201.234.41.210","Mozilla/5.0 (Macintosh; Intel Mac OS X 10_15_7) AppleWebKit/537.36 (KHTML, like Gecko) Chrome/118.0.0.0 Safari/537.36","Macintosh","Chrome","118.0.0.0","OS X","10_15_7","null","en-US,en;q=0.9","true","null","<p id=""stimulus"" style=""font-size:100px;"">41</p>","null","","","tone_number_task_remaining_before_delay","","41","","545.5","100","0","8",""
"","","","","","html-keyboard-response","78","220987","0.0-78.0-0.0","24","1","2023-10-31 20:22:03","a725c3012b74bf33a1020a98cb69c237","201.234.41.210","Mozilla/5.0 (Macintosh; Intel Mac OS X 10_15_7) AppleWebKit/537.36 (KHTML, like Gecko) Chrome/118.0.0.0 Safari/537.36","Macintosh","Chrome","118.0.0.0","OS X","10_15_7","null","en-US,en;q=0.9","true","215","<p id=""stimulus"" style=""font-size:100px;"">41</p>","k","","","empty_block","","41","","","","0","8",""
"","","","","","html-keyboard-response","79","223904","0.0-79.0","24","1","2023-10-31 20:22:03","a725c3012b74bf33a1020a98cb69c237","201.234.41.210","Mozilla/5.0 (Macintosh; Intel Mac OS X 10_15_7) AppleWebKit/537.36 (KHTML, like Gecko) Chrome/118.0.0.0 Safari/537.36","Macintosh","Chrome","118.0.0.0","OS X","10_15_7","null","en-US,en;q=0.9","true","null","<div style=""font-size:100px;"">X</div>","null","","","fixation","","","","","","","",""
"","","","","","audio-keyboard-response","80","224627","0.0-80.0","24","1","2023-10-31 20:22:03","a725c3012b74bf33a1020a98cb69c237","201.234.41.210","Mozilla/5.0 (Macintosh; Intel Mac OS X 10_15_7) AppleWebKit/537.36 (KHTML, like Gecko) Chrome/118.0.0.0 Safari/537.36","Macintosh","Chrome","118.0.0.0","OS X","10_15_7","null","en-US,en;q=0.9","true","720","tones/440hz_short.mp3","a","","","tone_number_task","992.5","49","tones/440hz_short.mp3","1142.5","100","0","9",""
"","","","","","html-keyboard-response","81","224903","0.0-81.0-0.0","24","1","2023-10-31 20:22:03","a725c3012b74bf33a1020a98cb69c237","201.234.41.210","Mozilla/5.0 (Macintosh; Intel Mac OS X 10_15_7) AppleWebKit/537.36 (KHTML, like Gecko) Chrome/118.0.0.0 Safari/537.36","Macintosh","Chrome","118.0.0.0","OS X","10_15_7","null","en-US,en;q=0.9","true","null","","null","","","delay_block","","","","","","0","9",""
"","","","","","html-keyboard-response","82","225062","0.0-81.0-1.0","24","1","2023-10-31 20:22:03","a725c3012b74bf33a1020a98cb69c237","201.234.41.210","Mozilla/5.0 (Macintosh; Intel Mac OS X 10_15_7) AppleWebKit/537.36 (KHTML, like Gecko) Chrome/118.0.0.0 Safari/537.36","Macintosh","Chrome","118.0.0.0","OS X","10_15_7","null","en-US,en;q=0.9","true","null","<p id=""stimulus"" style=""font-size:100px;"">49</p>","null","","","tone_number_task_remaining_before_delay","","49","","422.5","100","0","9",""
"","","","","","html-keyboard-response","83","225507","0.0-84.0-0.0","24","1","2023-10-31 20:22:03","a725c3012b74bf33a1020a98cb69c237","201.234.41.210","Mozilla/5.0 (Macintosh; Intel Mac OS X 10_15_7) AppleWebKit/537.36 (KHTML, like Gecko) Chrome/118.0.0.0 Safari/537.36","Macintosh","Chrome","118.0.0.0","OS X","10_15_7","null","en-US,en;q=0.9","true","438","<p id=""stimulus"" style=""font-size:100px;"">49</p>","k","","","empty_block","","49","","","","0","9",""
"","","","","","html-keyboard-response","84","228423","0.0-85.0","24","1","2023-10-31 20:22:03","a725c3012b74bf33a1020a98cb69c237","201.234.41.210","Mozilla/5.0 (Macintosh; Intel Mac OS X 10_15_7) AppleWebKit/537.36 (KHTML, like Gecko) Chrome/118.0.0.0 Safari/537.36","Macintosh","Chrome","118.0.0.0","OS X","10_15_7","null","en-US,en;q=0.9","true","null","<div style=""font-size:100px;"">X</div>","null","","","fixation","","","","","","","",""
"","","","","","audio-keyboard-response","85","228581","0.0-86.0","24","1","2023-10-31 20:22:03","a725c3012b74bf33a1020a98cb69c237","201.234.41.210","Mozilla/5.0 (Macintosh; Intel Mac OS X 10_15_7) AppleWebKit/537.36 (KHTML, like Gecko) Chrome/118.0.0.0 Safari/537.36","Macintosh","Chrome","118.0.0.0","OS X","10_15_7","null","en-US,en;q=0.9","true","null","tones/880hz_short.mp3","null","","","tone_number_task","0","69","tones/880hz_short.mp3","150","100","0","10",""
"","","","","","html-keyboard-response","86","229048","0.0-89.0-0.0","24","1","2023-10-31 20:22:03","a725c3012b74bf33a1020a98cb69c237","201.234.41.210","Mozilla/5.0 (Macintosh; Intel Mac OS X 10_15_7) AppleWebKit/537.36 (KHTML, like Gecko) Chrome/118.0.0.0 Safari/537.36","Macintosh","Chrome","118.0.0.0","OS X","10_15_7","null","en-US,en;q=0.9","true","463","tones/880hz_short.mp3","s","","","empty_block","","69","","","","0","10",""
"","","","","","html-keyboard-response","87","229355","0.0-89.0-1.0","24","1","2023-10-31 20:22:03","a725c3012b74bf33a1020a98cb69c237","201.234.41.210","Mozilla/5.0 (Macintosh; Intel Mac OS X 10_15_7) AppleWebKit/537.36 (KHTML, like Gecko) Chrome/118.0.0.0 Safari/537.36","Macintosh","Chrome","118.0.0.0","OS X","10_15_7","null","en-US,en;q=0.9","true","304","tones/880hz_short.mp3","k","","","empty_block","","69","","","","0","10",""
"","","","","","html-keyboard-response","88","232270","0.0-91.0","24","1","2023-10-31 20:22:03","a725c3012b74bf33a1020a98cb69c237","201.234.41.210","Mozilla/5.0 (Macintosh; Intel Mac OS X 10_15_7) AppleWebKit/537.36 (KHTML, like Gecko) Chrome/118.0.0.0 Safari/537.36","Macintosh","Chrome","118.0.0.0","OS X","10_15_7","null","en-US,en;q=0.9","true","null","<div style=""font-size:100px;"">X</div>","null","","","fixation","","","","","","","",""
"","","","","","audio-keyboard-response","89","232692","0.0-92.0","24","1","2023-10-31 20:22:03","a725c3012b74bf33a1020a98cb69c237","201.234.41.210","Mozilla/5.0 (Macintosh; Intel Mac OS X 10_15_7) AppleWebKit/537.36 (KHTML, like Gecko) Chrome/118.0.0.0 Safari/537.36","Macintosh","Chrome","118.0.0.0","OS X","10_15_7","null","en-US,en;q=0.9","true","416","tones/880hz_short.mp3","s","","","tone_number_task","992.5","62","tones/880hz_short.mp3","1142.5","100","0","11",""
"","","","","","html-keyboard-response","90","233273","0.0-93.0-0.0","24","1","2023-10-31 20:22:03","a725c3012b74bf33a1020a98cb69c237","201.234.41.210","Mozilla/5.0 (Macintosh; Intel Mac OS X 10_15_7) AppleWebKit/537.36 (KHTML, like Gecko) Chrome/118.0.0.0 Safari/537.36","Macintosh","Chrome","118.0.0.0","OS X","10_15_7","null","en-US,en;q=0.9","true","null","","null","","","delay_block","","","","","","0","11",""
"","","","","","html-keyboard-response","91","233431","0.0-93.0-1.0","24","1","2023-10-31 20:22:03","a725c3012b74bf33a1020a98cb69c237","201.234.41.210","Mozilla/5.0 (Macintosh; Intel Mac OS X 10_15_7) AppleWebKit/537.36 (KHTML, like Gecko) Chrome/118.0.0.0 Safari/537.36","Macintosh","Chrome","118.0.0.0","OS X","10_15_7","null","en-US,en;q=0.9","true","null","<p id=""stimulus"" style=""font-size:100px;"">62</p>","null","","","tone_number_task_remaining_before_delay","","62","","726.5","100","0","11",""
"","","","","","html-keyboard-response","92","233868","0.0-96.0-0.0","24","1","2023-10-31 20:22:03","a725c3012b74bf33a1020a98cb69c237","201.234.41.210","Mozilla/5.0 (Macintosh; Intel Mac OS X 10_15_7) AppleWebKit/537.36 (KHTML, like Gecko) Chrome/118.0.0.0 Safari/537.36","Macintosh","Chrome","118.0.0.0","OS X","10_15_7","null","en-US,en;q=0.9","true","431","<p id=""stimulus"" style=""font-size:100px;"">62</p>","k","","","empty_block","","62","","","","0","11",""
"","","","","","html-keyboard-response","93","236784","0.0-97.0","24","1","2023-10-31 20:22:03","a725c3012b74bf33a1020a98cb69c237","201.234.41.210","Mozilla/5.0 (Macintosh; Intel Mac OS X 10_15_7) AppleWebKit/537.36 (KHTML, like Gecko) Chrome/118.0.0.0 Safari/537.36","Macintosh","Chrome","118.0.0.0","OS X","10_15_7","null","en-US,en;q=0.9","true","null","<div style=""font-size:100px;"">X</div>","null","","","fixation","","","","","","","",""
"","","","","","audio-keyboard-response","94","236943","0.0-98.0","24","1","2023-10-31 20:22:03","a725c3012b74bf33a1020a98cb69c237","201.234.41.210","Mozilla/5.0 (Macintosh; Intel Mac OS X 10_15_7) AppleWebKit/537.36 (KHTML, like Gecko) Chrome/118.0.0.0 Safari/537.36","Macintosh","Chrome","118.0.0.0","OS X","10_15_7","null","en-US,en;q=0.9","true","null","tones/440hz_short.mp3","null","","","tone_number_task","0","40","tones/440hz_short.mp3","150","100","0","12",""
"","","","","","html-keyboard-response","95","237331","0.0-101.0-0.0","24","1","2023-10-31 20:22:03","a725c3012b74bf33a1020a98cb69c237","201.234.41.210","Mozilla/5.0 (Macintosh; Intel Mac OS X 10_15_7) AppleWebKit/537.36 (KHTML, like Gecko) Chrome/118.0.0.0 Safari/537.36","Macintosh","Chrome","118.0.0.0","OS X","10_15_7","null","en-US,en;q=0.9","true","382","tones/440hz_short.mp3","a","","","empty_block","","40","","","","0","12",""
"","","","","","html-keyboard-response","96","237666","0.0-101.0-1.0","24","1","2023-10-31 20:22:03","a725c3012b74bf33a1020a98cb69c237","201.234.41.210","Mozilla/5.0 (Macintosh; Intel Mac OS X 10_15_7) AppleWebKit/537.36 (KHTML, like Gecko) Chrome/118.0.0.0 Safari/537.36","Macintosh","Chrome","118.0.0.0","OS X","10_15_7","null","en-US,en;q=0.9","true","332","tones/440hz_short.mp3","j","","","empty_block","","40","","","","0","12",""
"","","","","","html-keyboard-response","97","240584","0.0-103.0","24","1","2023-10-31 20:22:03","a725c3012b74bf33a1020a98cb69c237","201.234.41.210","Mozilla/5.0 (Macintosh; Intel Mac OS X 10_15_7) AppleWebKit/537.36 (KHTML, like Gecko) Chrome/118.0.0.0 Safari/537.36","Macintosh","Chrome","118.0.0.0","OS X","10_15_7","null","en-US,en;q=0.9","true","null","<div style=""font-size:100px;"">X</div>","null","","","fixation","","","","","","","",""
"","","","","","audio-keyboard-response","98","241076","0.0-104.0","24","1","2023-10-31 20:22:03","a725c3012b74bf33a1020a98cb69c237","201.234.41.210","Mozilla/5.0 (Macintosh; Intel Mac OS X 10_15_7) AppleWebKit/537.36 (KHTML, like Gecko) Chrome/118.0.0.0 Safari/537.36","Macintosh","Chrome","118.0.0.0","OS X","10_15_7","null","en-US,en;q=0.9","true","491","tones/880hz_short.mp3","s","","","tone_number_task","992.5","65","tones/880hz_short.mp3","1142.5","100","0","13",""
"","","","","","html-keyboard-response","99","241582","0.0-105.0-0.0","24","1","2023-10-31 20:22:03","a725c3012b74bf33a1020a98cb69c237","201.234.41.210","Mozilla/5.0 (Macintosh; Intel Mac OS X 10_15_7) AppleWebKit/537.36 (KHTML, like Gecko) Chrome/118.0.0.0 Safari/537.36","Macintosh","Chrome","118.0.0.0","OS X","10_15_7","null","en-US,en;q=0.9","true","null","","null","","","delay_block","","","","","","0","13",""
"","","","","","html-keyboard-response","100","241744","0.0-105.0-1.0","24","1","2023-10-31 20:22:03","a725c3012b74bf33a1020a98cb69c237","201.234.41.210","Mozilla/5.0 (Macintosh; Intel Mac OS X 10_15_7) AppleWebKit/537.36 (KHTML, like Gecko) Chrome/118.0.0.0 Safari/537.36","Macintosh","Chrome","118.0.0.0","OS X","10_15_7","null","en-US,en;q=0.9","true","null","<p id=""stimulus"" style=""font-size:100px;"">65</p>","null","","","tone_number_task_remaining_before_delay","","65","","651.5","100","0","13",""
"","","","","","html-keyboard-response","101","242187","0.0-108.0-0.0","24","1","2023-10-31 20:22:03","a725c3012b74bf33a1020a98cb69c237","201.234.41.210","Mozilla/5.0 (Macintosh; Intel Mac OS X 10_15_7) AppleWebKit/537.36 (KHTML, like Gecko) Chrome/118.0.0.0 Safari/537.36","Macintosh","Chrome","118.0.0.0","OS X","10_15_7","null","en-US,en;q=0.9","true","438","<p id=""stimulus"" style=""font-size:100px;"">65</p>","k","","","empty_block","","65","","","","0","13",""
"","","","","","html-keyboard-response","102","245104","0.0-109.0","24","1","2023-10-31 20:22:03","a725c3012b74bf33a1020a98cb69c237","201.234.41.210","Mozilla/5.0 (Macintosh; Intel Mac OS X 10_15_7) AppleWebKit/537.36 (KHTML, like Gecko) Chrome/118.0.0.0 Safari/537.36","Macintosh","Chrome","118.0.0.0","OS X","10_15_7","null","en-US,en;q=0.9","true","null","<div style=""font-size:100px;"">X</div>","null","","","fixation","","","","","","","",""
"","","","","","audio-keyboard-response","103","245363","0.0-110.0","24","1","2023-10-31 20:22:03","a725c3012b74bf33a1020a98cb69c237","201.234.41.210","Mozilla/5.0 (Macintosh; Intel Mac OS X 10_15_7) AppleWebKit/537.36 (KHTML, like Gecko) Chrome/118.0.0.0 Safari/537.36","Macintosh","Chrome","118.0.0.0","OS X","10_15_7","null","en-US,en;q=0.9","true","null","tones/440hz_short.mp3","null","","","tone_number_task","102.5","25","tones/440hz_short.mp3","252.5","100","0","14",""
"","","","","","html-keyboard-response","104","245732","0.0-113.0-0.0","24","1","2023-10-31 20:22:03","a725c3012b74bf33a1020a98cb69c237","201.234.41.210","Mozilla/5.0 (Macintosh; Intel Mac OS X 10_15_7) AppleWebKit/537.36 (KHTML, like Gecko) Chrome/118.0.0.0 Safari/537.36","Macintosh","Chrome","118.0.0.0","OS X","10_15_7","null","en-US,en;q=0.9","true","365","tones/440hz_short.mp3","a","","","empty_block","","25","","","","0","14",""
"","","","","","html-keyboard-response","105","246268","0.0-113.0-1.0","24","1","2023-10-31 20:22:03","a725c3012b74bf33a1020a98cb69c237","201.234.41.210","Mozilla/5.0 (Macintosh; Intel Mac OS X 10_15_7) AppleWebKit/537.36 (KHTML, like Gecko) Chrome/118.0.0.0 Safari/537.36","Macintosh","Chrome","118.0.0.0","OS X","10_15_7","null","en-US,en;q=0.9","true","531","tones/440hz_short.mp3","j","","","empty_block","","25","","","","0","14",""
"","","","","","html-keyboard-response","106","249184","0.0-115.0","24","1","2023-10-31 20:22:03","a725c3012b74bf33a1020a98cb69c237","201.234.41.210","Mozilla/5.0 (Macintosh; Intel Mac OS X 10_15_7) AppleWebKit/537.36 (KHTML, like Gecko) Chrome/118.0.0.0 Safari/537.36","Macintosh","Chrome","118.0.0.0","OS X","10_15_7","null","en-US,en;q=0.9","true","null","<div style=""font-size:100px;"">X</div>","null","","","fixation","","","","","","","",""
"","","","","","audio-keyboard-response","107","249531","0.0-116.0","24","1","2023-10-31 20:22:03","a725c3012b74bf33a1020a98cb69c237","201.234.41.210","Mozilla/5.0 (Macintosh; Intel Mac OS X 10_15_7) AppleWebKit/537.36 (KHTML, like Gecko) Chrome/118.0.0.0 Safari/537.36","Macintosh","Chrome","118.0.0.0","OS X","10_15_7","null","en-US,en;q=0.9","true","341","tones/880hz_short.mp3","s","","","tone_number_task","992.5","33","tones/880hz_short.mp3","1142.5","100","0","15",""
"","","","","","html-keyboard-response","108","250186","0.0-117.0-0.0","24","1","2023-10-31 20:22:03","a725c3012b74bf33a1020a98cb69c237","201.234.41.210","Mozilla/5.0 (Macintosh; Intel Mac OS X 10_15_7) AppleWebKit/537.36 (KHTML, like Gecko) Chrome/118.0.0.0 Safari/537.36","Macintosh","Chrome","118.0.0.0","OS X","10_15_7","null","en-US,en;q=0.9","true","null","","null","","","delay_block","","","","","","0","15",""
"","","","","","html-keyboard-response","109","250349","0.0-117.0-1.0","24","1","2023-10-31 20:22:03","a725c3012b74bf33a1020a98cb69c237","201.234.41.210","Mozilla/5.0 (Macintosh; Intel Mac OS X 10_15_7) AppleWebKit/537.36 (KHTML, like Gecko) Chrome/118.0.0.0 Safari/537.36","Macintosh","Chrome","118.0.0.0","OS X","10_15_7","null","en-US,en;q=0.9","true","null","<p id=""stimulus"" style=""font-size:100px;"">33</p>","null","","","tone_number_task_remaining_before_delay","","33","","801.5","100","0","15",""
"","","","","","html-keyboard-response","110","250932","0.0-120.0-0.0","24","1","2023-10-31 20:22:03","a725c3012b74bf33a1020a98cb69c237","201.234.41.210","Mozilla/5.0 (Macintosh; Intel Mac OS X 10_15_7) AppleWebKit/537.36 (KHTML, like Gecko) Chrome/118.0.0.0 Safari/537.36","Macintosh","Chrome","118.0.0.0","OS X","10_15_7","null","en-US,en;q=0.9","true","577","<p id=""stimulus"" style=""font-size:100px;"">33</p>","j","","","empty_block","","33","","","","0","15",""
"","","","","","html-keyboard-response","111","253848","0.0-121.0","24","1","2023-10-31 20:22:03","a725c3012b74bf33a1020a98cb69c237","201.234.41.210","Mozilla/5.0 (Macintosh; Intel Mac OS X 10_15_7) AppleWebKit/537.36 (KHTML, like Gecko) Chrome/118.0.0.0 Safari/537.36","Macintosh","Chrome","118.0.0.0","OS X","10_15_7","null","en-US,en;q=0.9","true","null","<div style=""font-size:100px;"">X</div>","null","","","fixation","","","","","","","",""
"","","","","","audio-keyboard-response","112","254010","0.0-122.0","24","1","2023-10-31 20:22:03","a725c3012b74bf33a1020a98cb69c237","201.234.41.210","Mozilla/5.0 (Macintosh; Intel Mac OS X 10_15_7) AppleWebKit/537.36 (KHTML, like Gecko) Chrome/118.0.0.0 Safari/537.36","Macintosh","Chrome","118.0.0.0","OS X","10_15_7","null","en-US,en;q=0.9","true","null","tones/880hz_short.mp3","null","","","tone_number_task","0","63","tones/880hz_short.mp3","150","100","0","16",""
"","","","","","html-keyboard-response","113","254491","0.0-125.0-0.0","24","1","2023-10-31 20:22:03","a725c3012b74bf33a1020a98cb69c237","201.234.41.210","Mozilla/5.0 (Macintosh; Intel Mac OS X 10_15_7) AppleWebKit/537.36 (KHTML, like Gecko) Chrome/118.0.0.0 Safari/537.36","Macintosh","Chrome","118.0.0.0","OS X","10_15_7","null","en-US,en;q=0.9","true","476","tones/880hz_short.mp3","s","","","empty_block","","63","","","","0","16",""
"","","","","","html-keyboard-response","114","254995","0.0-125.0-1.0","24","1","2023-10-31 20:22:03","a725c3012b74bf33a1020a98cb69c237","201.234.41.210","Mozilla/5.0 (Macintosh; Intel Mac OS X 10_15_7) AppleWebKit/537.36 (KHTML, like Gecko) Chrome/118.0.0.0 Safari/537.36","Macintosh","Chrome","118.0.0.0","OS X","10_15_7","null","en-US,en;q=0.9","true","500","tones/880hz_short.mp3","k","","","empty_block","","63","","","","0","16",""
"","","","","","html-keyboard-response","115","257911","0.0-127.0","24","1","2023-10-31 20:22:03","a725c3012b74bf33a1020a98cb69c237","201.234.41.210","Mozilla/5.0 (Macintosh; Intel Mac OS X 10_15_7) AppleWebKit/537.36 (KHTML, like Gecko) Chrome/118.0.0.0 Safari/537.36","Macintosh","Chrome","118.0.0.0","OS X","10_15_7","null","en-US,en;q=0.9","true","null","<div style=""font-size:100px;"">X</div>","null","","","fixation","","","","","","","",""
"","","","","","audio-keyboard-response","116","258427","0.0-128.0","24","1","2023-10-31 20:22:03","a725c3012b74bf33a1020a98cb69c237","201.234.41.210","Mozilla/5.0 (Macintosh; Intel Mac OS X 10_15_7) AppleWebKit/537.36 (KHTML, like Gecko) Chrome/118.0.0.0 Safari/537.36","Macintosh","Chrome","118.0.0.0","OS X","10_15_7","null","en-US,en;q=0.9","true","512","tones/440hz_short.mp3","a","","","tone_number_task","992.5","64","tones/440hz_short.mp3","1142.5","100","0","17",""
"","","","","","html-keyboard-response","117","258914","0.0-129.0-0.0","24","1","2023-10-31 20:22:03","a725c3012b74bf33a1020a98cb69c237","201.234.41.210","Mozilla/5.0 (Macintosh; Intel Mac OS X 10_15_7) AppleWebKit/537.36 (KHTML, like Gecko) Chrome/118.0.0.0 Safari/537.36","Macintosh","Chrome","118.0.0.0","OS X","10_15_7","null","en-US,en;q=0.9","true","null","","null","","","delay_block","","","","","","0","17",""
"","","","","","html-keyboard-response","118","259075","0.0-129.0-1.0","24","1","2023-10-31 20:22:03","a725c3012b74bf33a1020a98cb69c237","201.234.41.210","Mozilla/5.0 (Macintosh; Intel Mac OS X 10_15_7) AppleWebKit/537.36 (KHTML, like Gecko) Chrome/118.0.0.0 Safari/537.36","Macintosh","Chrome","118.0.0.0","OS X","10_15_7","null","en-US,en;q=0.9","true","null","<p id=""stimulus"" style=""font-size:100px;"">64</p>","null","","","tone_number_task_remaining_before_delay","","64","","630.5","100","0","17",""
"","","","","","html-keyboard-response","119","259387","0.0-132.0-0.0","24","1","2023-10-31 20:22:03","a725c3012b74bf33a1020a98cb69c237","201.234.41.210","Mozilla/5.0 (Macintosh; Intel Mac OS X 10_15_7) AppleWebKit/537.36 (KHTML, like Gecko) Chrome/118.0.0.0 Safari/537.36","Macintosh","Chrome","118.0.0.0","OS X","10_15_7","null","en-US,en;q=0.9","true","307","<p id=""stimulus"" style=""font-size:100px;"">64</p>","k","","","empty_block","","64","","","","0","17",""
"","","","","","html-keyboard-response","120","262304","0.0-133.0","24","1","2023-10-31 20:22:03","a725c3012b74bf33a1020a98cb69c237","201.234.41.210","Mozilla/5.0 (Macintosh; Intel Mac OS X 10_15_7) AppleWebKit/537.36 (KHTML, like Gecko) Chrome/118.0.0.0 Safari/537.36","Macintosh","Chrome","118.0.0.0","OS X","10_15_7","null","en-US,en;q=0.9","true","null","<div style=""font-size:100px;"">X</div>","null","","","fixation","","","","","","","",""
"","","","","","audio-keyboard-response","121","262788","0.0-134.0","24","1","2023-10-31 20:22:03","a725c3012b74bf33a1020a98cb69c237","201.234.41.210","Mozilla/5.0 (Macintosh; Intel Mac OS X 10_15_7) AppleWebKit/537.36 (KHTML, like Gecko) Chrome/118.0.0.0 Safari/537.36","Macintosh","Chrome","118.0.0.0","OS X","10_15_7","null","en-US,en;q=0.9","true","475","tones/880hz_short.mp3","s","","","tone_number_task","1025","56","tones/880hz_short.mp3","1175","100","0","18",""
"","","","","","html-keyboard-response","122","263345","0.0-135.0-0.0","24","1","2023-10-31 20:22:03","a725c3012b74bf33a1020a98cb69c237","201.234.41.210","Mozilla/5.0 (Macintosh; Intel Mac OS X 10_15_7) AppleWebKit/537.36 (KHTML, like Gecko) Chrome/118.0.0.0 Safari/537.36","Macintosh","Chrome","118.0.0.0","OS X","10_15_7","null","en-US,en;q=0.9","true","null","","null","","","delay_block","","","","","","0","18",""
"","","","","","html-keyboard-response","123","263505","0.0-135.0-1.0","24","1","2023-10-31 20:22:03","a725c3012b74bf33a1020a98cb69c237","201.234.41.210","Mozilla/5.0 (Macintosh; Intel Mac OS X 10_15_7) AppleWebKit/537.36 (KHTML, like Gecko) Chrome/118.0.0.0 Safari/537.36","Macintosh","Chrome","118.0.0.0","OS X","10_15_7","null","en-US,en;q=0.9","true","null","<p id=""stimulus"" style=""font-size:100px;"">56</p>","null","","","tone_number_task_remaining_before_delay","","56","","700","100","0","18",""
"","","","","","html-keyboard-response","124","263875","0.0-138.0-0.0","24","1","2023-10-31 20:22:03","a725c3012b74bf33a1020a98cb69c237","201.234.41.210","Mozilla/5.0 (Macintosh; Intel Mac OS X 10_15_7) AppleWebKit/537.36 (KHTML, like Gecko) Chrome/118.0.0.0 Safari/537.36","Macintosh","Chrome","118.0.0.0","OS X","10_15_7","null","en-US,en;q=0.9","true","364","<p id=""stimulus"" style=""font-size:100px;"">56</p>","k","","","empty_block","","56","","","","0","18",""
"","","","","","html-keyboard-response","125","266794","0.0-139.0","24","1","2023-10-31 20:22:03","a725c3012b74bf33a1020a98cb69c237","201.234.41.210","Mozilla/5.0 (Macintosh; Intel Mac OS X 10_15_7) AppleWebKit/537.36 (KHTML, like Gecko) Chrome/118.0.0.0 Safari/537.36","Macintosh","Chrome","118.0.0.0","OS X","10_15_7","null","en-US,en;q=0.9","true","null","<div style=""font-size:100px;"">X</div>","null","","","fixation","","","","","","","",""
"","","","","","audio-keyboard-response","126","266954","0.0-140.0","24","1","2023-10-31 20:22:03","a725c3012b74bf33a1020a98cb69c237","201.234.41.210","Mozilla/5.0 (Macintosh; Intel Mac OS X 10_15_7) AppleWebKit/537.36 (KHTML, like Gecko) Chrome/118.0.0.0 Safari/537.36","Macintosh","Chrome","118.0.0.0","OS X","10_15_7","null","en-US,en;q=0.9","true","null","tones/440hz_short.mp3","null","","","tone_number_task","0","21","tones/440hz_short.mp3","150","100","0","19",""
"","","","","","html-keyboard-response","127","267388","0.0-143.0-0.0","24","1","2023-10-31 20:22:03","a725c3012b74bf33a1020a98cb69c237","201.234.41.210","Mozilla/5.0 (Macintosh; Intel Mac OS X 10_15_7) AppleWebKit/537.36 (KHTML, like Gecko) Chrome/118.0.0.0 Safari/537.36","Macintosh","Chrome","118.0.0.0","OS X","10_15_7","null","en-US,en;q=0.9","true","427","tones/440hz_short.mp3","a","","","empty_block","","21","","","","0","19",""
"","","","","","html-keyboard-response","128","267675","0.0-143.0-1.0","24","1","2023-10-31 20:22:03","a725c3012b74bf33a1020a98cb69c237","201.234.41.210","Mozilla/5.0 (Macintosh; Intel Mac OS X 10_15_7) AppleWebKit/537.36 (KHTML, like Gecko) Chrome/118.0.0.0 Safari/537.36","Macintosh","Chrome","118.0.0.0","OS X","10_15_7","null","en-US,en;q=0.9","true","281","tones/440hz_short.mp3","j","","","empty_block","","21","","","","0","19",""
"","","","","","html-keyboard-response","129","270593","0.0-145.0","24","1","2023-10-31 20:22:03","a725c3012b74bf33a1020a98cb69c237","201.234.41.210","Mozilla/5.0 (Macintosh; Intel Mac OS X 10_15_7) AppleWebKit/537.36 (KHTML, like Gecko) Chrome/118.0.0.0 Safari/537.36","Macintosh","Chrome","118.0.0.0","OS X","10_15_7","null","en-US,en;q=0.9","true","null","<div style=""font-size:100px;"">X</div>","null","","","fixation","","","","","","","",""
"","","","","","audio-keyboard-response","130","270752","0.0-146.0","24","1","2023-10-31 20:22:03","a725c3012b74bf33a1020a98cb69c237","201.234.41.210","Mozilla/5.0 (Macintosh; Intel Mac OS X 10_15_7) AppleWebKit/537.36 (KHTML, like Gecko) Chrome/118.0.0.0 Safari/537.36","Macintosh","Chrome","118.0.0.0","OS X","10_15_7","null","en-US,en;q=0.9","true","null","tones/880hz_short.mp3","null","","","tone_number_task","0","68","tones/880hz_short.mp3","150","100","0","20",""
"","","","","","html-keyboard-response","131","271146","0.0-149.0-0.0","24","1","2023-10-31 20:22:03","a725c3012b74bf33a1020a98cb69c237","201.234.41.210","Mozilla/5.0 (Macintosh; Intel Mac OS X 10_15_7) AppleWebKit/537.36 (KHTML, like Gecko) Chrome/118.0.0.0 Safari/537.36","Macintosh","Chrome","118.0.0.0","OS X","10_15_7","null","en-US,en;q=0.9","true","389","tones/880hz_short.mp3","s","","","empty_block","","68","","","","0","20",""
"","","","","","html-keyboard-response","132","271573","0.0-149.0-1.0","24","1","2023-10-31 20:22:03","a725c3012b74bf33a1020a98cb69c237","201.234.41.210","Mozilla/5.0 (Macintosh; Intel Mac OS X 10_15_7) AppleWebKit/537.36 (KHTML, like Gecko) Chrome/118.0.0.0 Safari/537.36","Macintosh","Chrome","118.0.0.0","OS X","10_15_7","null","en-US,en;q=0.9","true","423","tones/880hz_short.mp3","k","","","empty_block","","68","","","","0","20",""
"","","","","","html-keyboard-response","133","274491","0.0-151.0","24","1","2023-10-31 20:22:03","a725c3012b74bf33a1020a98cb69c237","201.234.41.210","Mozilla/5.0 (Macintosh; Intel Mac OS X 10_15_7) AppleWebKit/537.36 (KHTML, like Gecko) Chrome/118.0.0.0 Safari/537.36","Macintosh","Chrome","118.0.0.0","OS X","10_15_7","null","en-US,en;q=0.9","true","null","<div style=""font-size:100px;"">X</div>","null","","","fixation","","","","","","","",""
"","","","","","audio-keyboard-response","134","275073","0.0-152.0","24","1","2023-10-31 20:22:03","a725c3012b74bf33a1020a98cb69c237","201.234.41.210","Mozilla/5.0 (Macintosh; Intel Mac OS X 10_15_7) AppleWebKit/537.36 (KHTML, like Gecko) Chrome/118.0.0.0 Safari/537.36","Macintosh","Chrome","118.0.0.0","OS X","10_15_7","null","en-US,en;q=0.9","true","576","tones/440hz_short.mp3","a","","","tone_number_task","1025","31","tones/440hz_short.mp3","1175","100","0","21",""
"","","","","","html-keyboard-response","135","275530","0.0-153.0-0.0","24","1","2023-10-31 20:22:03","a725c3012b74bf33a1020a98cb69c237","201.234.41.210","Mozilla/5.0 (Macintosh; Intel Mac OS X 10_15_7) AppleWebKit/537.36 (KHTML, like Gecko) Chrome/118.0.0.0 Safari/537.36","Macintosh","Chrome","118.0.0.0","OS X","10_15_7","null","en-US,en;q=0.9","true","null","","null","","","delay_block","","","","","","0","21",""
"","","","","","html-keyboard-response","136","275693","0.0-153.0-1.0","24","1","2023-10-31 20:22:03","a725c3012b74bf33a1020a98cb69c237","201.234.41.210","Mozilla/5.0 (Macintosh; Intel Mac OS X 10_15_7) AppleWebKit/537.36 (KHTML, like Gecko) Chrome/118.0.0.0 Safari/537.36","Macintosh","Chrome","118.0.0.0","OS X","10_15_7","null","en-US,en;q=0.9","true","null","<p id=""stimulus"" style=""font-size:100px;"">31</p>","null","","","tone_number_task_remaining_before_delay","","31","","599","100","0","21",""
"","","","","","html-keyboard-response","137","276076","0.0-156.0-0.0","24","1","2023-10-31 20:22:03","a725c3012b74bf33a1020a98cb69c237","201.234.41.210","Mozilla/5.0 (Macintosh; Intel Mac OS X 10_15_7) AppleWebKit/537.36 (KHTML, like Gecko) Chrome/118.0.0.0 Safari/537.36","Macintosh","Chrome","118.0.0.0","OS X","10_15_7","null","en-US,en;q=0.9","true","376","<p id=""stimulus"" style=""font-size:100px;"">31</p>","j","","","empty_block","","31","","","","0","21",""
"","","","","","html-keyboard-response","138","278996","0.0-157.0","24","1","2023-10-31 20:22:03","a725c3012b74bf33a1020a98cb69c237","201.234.41.210","Mozilla/5.0 (Macintosh; Intel Mac OS X 10_15_7) AppleWebKit/537.36 (KHTML, like Gecko) Chrome/118.0.0.0 Safari/537.36","Macintosh","Chrome","118.0.0.0","OS X","10_15_7","null","en-US,en;q=0.9","true","null","<div style=""font-size:100px;"">X</div>","null","","","fixation","","","","","","","",""
"","","","","","audio-keyboard-response","139","279257","0.0-158.0","24","1","2023-10-31 20:22:03","a725c3012b74bf33a1020a98cb69c237","201.234.41.210","Mozilla/5.0 (Macintosh; Intel Mac OS X 10_15_7) AppleWebKit/537.36 (KHTML, like Gecko) Chrome/118.0.0.0 Safari/537.36","Macintosh","Chrome","118.0.0.0","OS X","10_15_7","null","en-US,en;q=0.9","true","null","tones/440hz_short.mp3","null","","","tone_number_task","102.5","46","tones/440hz_short.mp3","252.5","100","0","22",""
"","","","","","html-keyboard-response","140","279779","0.0-161.0-0.0","24","1","2023-10-31 20:22:03","a725c3012b74bf33a1020a98cb69c237","201.234.41.210","Mozilla/5.0 (Macintosh; Intel Mac OS X 10_15_7) AppleWebKit/537.36 (KHTML, like Gecko) Chrome/118.0.0.0 Safari/537.36","Macintosh","Chrome","118.0.0.0","OS X","10_15_7","null","en-US,en;q=0.9","true","517","tones/440hz_short.mp3","a","","","empty_block","","46","","","","0","22",""
"","","","","","html-keyboard-response","141","280072","0.0-161.0-1.0","24","1","2023-10-31 20:22:03","a725c3012b74bf33a1020a98cb69c237","201.234.41.210","Mozilla/5.0 (Macintosh; Intel Mac OS X 10_15_7) AppleWebKit/537.36 (KHTML, like Gecko) Chrome/118.0.0.0 Safari/537.36","Macintosh","Chrome","118.0.0.0","OS X","10_15_7","null","en-US,en;q=0.9","true","289","tones/440hz_short.mp3","j","","","empty_block","","46","","","","0","22",""
"","","","","","html-keyboard-response","142","282990","0.0-163.0","24","1","2023-10-31 20:22:03","a725c3012b74bf33a1020a98cb69c237","201.234.41.210","Mozilla/5.0 (Macintosh; Intel Mac OS X 10_15_7) AppleWebKit/537.36 (KHTML, like Gecko) Chrome/118.0.0.0 Safari/537.36","Macintosh","Chrome","118.0.0.0","OS X","10_15_7","null","en-US,en;q=0.9","true","null","<div style=""font-size:100px;"">X</div>","null","","","fixation","","","","","","","",""
"","","","","","audio-keyboard-response","143","283151","0.0-164.0","24","1","2023-10-31 20:22:03","a725c3012b74bf33a1020a98cb69c237","201.234.41.210","Mozilla/5.0 (Macintosh; Intel Mac OS X 10_15_7) AppleWebKit/537.36 (KHTML, like Gecko) Chrome/118.0.0.0 Safari/537.36","Macintosh","Chrome","118.0.0.0","OS X","10_15_7","null","en-US,en;q=0.9","true","null","tones/440hz_short.mp3","null","","","tone_number_task","0","54","tones/440hz_short.mp3","150","100","0","23",""
"","","","","","html-keyboard-response","144","283338","0.0-167.0-0.0","24","1","2023-10-31 20:22:03","a725c3012b74bf33a1020a98cb69c237","201.234.41.210","Mozilla/5.0 (Macintosh; Intel Mac OS X 10_15_7) AppleWebKit/537.36 (KHTML, like Gecko) Chrome/118.0.0.0 Safari/537.36","Macintosh","Chrome","118.0.0.0","OS X","10_15_7","null","en-US,en;q=0.9","true","182","tones/440hz_short.mp3","a","","","empty_block","","54","","","","0","23",""
"","","","","","html-keyboard-response","145","283666","0.0-167.0-1.0","24","1","2023-10-31 20:22:03","a725c3012b74bf33a1020a98cb69c237","201.234.41.210","Mozilla/5.0 (Macintosh; Intel Mac OS X 10_15_7) AppleWebKit/537.36 (KHTML, like Gecko) Chrome/118.0.0.0 Safari/537.36","Macintosh","Chrome","118.0.0.0","OS X","10_15_7","null","en-US,en;q=0.9","true","324","tones/440hz_short.mp3","k","","","empty_block","","54","","","","0","23",""
"","","","","","html-keyboard-response","146","286586","0.0-169.0","24","1","2023-10-31 20:22:03","a725c3012b74bf33a1020a98cb69c237","201.234.41.210","Mozilla/5.0 (Macintosh; Intel Mac OS X 10_15_7) AppleWebKit/537.36 (KHTML, like Gecko) Chrome/118.0.0.0 Safari/537.36","Macintosh","Chrome","118.0.0.0","OS X","10_15_7","null","en-US,en;q=0.9","true","null","<div style=""font-size:100px;"">X</div>","null","","","fixation","","","","","","","",""
"","","","","","audio-keyboard-response","147","286916","0.0-170.0","24","1","2023-10-31 20:22:03","a725c3012b74bf33a1020a98cb69c237","201.234.41.210","Mozilla/5.0 (Macintosh; Intel Mac OS X 10_15_7) AppleWebKit/537.36 (KHTML, like Gecko) Chrome/118.0.0.0 Safari/537.36","Macintosh","Chrome","118.0.0.0","OS X","10_15_7","null","en-US,en;q=0.9","true","320","tones/440hz_short.mp3","a","","","tone_number_task","992.5","37","tones/440hz_short.mp3","1142.5","100","0","24",""
"","","","","","html-keyboard-response","148","287598","0.0-171.0-0.0","24","1","2023-10-31 20:22:03","a725c3012b74bf33a1020a98cb69c237","201.234.41.210","Mozilla/5.0 (Macintosh; Intel Mac OS X 10_15_7) AppleWebKit/537.36 (KHTML, like Gecko) Chrome/118.0.0.0 Safari/537.36","Macintosh","Chrome","118.0.0.0","OS X","10_15_7","null","en-US,en;q=0.9","true","null","","null","","","delay_block","","","","","","0","24",""
"","","","","","html-keyboard-response","149","287759","0.0-171.0-1.0","24","1","2023-10-31 20:22:03","a725c3012b74bf33a1020a98cb69c237","201.234.41.210","Mozilla/5.0 (Macintosh; Intel Mac OS X 10_15_7) AppleWebKit/537.36 (KHTML, like Gecko) Chrome/118.0.0.0 Safari/537.36","Macintosh","Chrome","118.0.0.0","OS X","10_15_7","null","en-US,en;q=0.9","true","null","<p id=""stimulus"" style=""font-size:100px;"">37</p>","null","","","tone_number_task_remaining_before_delay","","37","","822.5","100","0","24",""
"","","","","","html-keyboard-response","150","288204","0.0-174.0-0.0","24","1","2023-10-31 20:22:03","a725c3012b74bf33a1020a98cb69c237","201.234.41.210","Mozilla/5.0 (Macintosh; Intel Mac OS X 10_15_7) AppleWebKit/537.36 (KHTML, like Gecko) Chrome/118.0.0.0 Safari/537.36","Macintosh","Chrome","118.0.0.0","OS X","10_15_7","null","en-US,en;q=0.9","true","436","<p id=""stimulus"" style=""font-size:100px;"">37</p>","j","","","empty_block","","37","","","","0","24",""
"","","","","","html-keyboard-response","151","291125","0.0-175.0","24","1","2023-10-31 20:22:03","a725c3012b74bf33a1020a98cb69c237","201.234.41.210","Mozilla/5.0 (Macintosh; Intel Mac OS X 10_15_7) AppleWebKit/537.36 (KHTML, like Gecko) Chrome/118.0.0.0 Safari/537.36","Macintosh","Chrome","118.0.0.0","OS X","10_15_7","null","en-US,en;q=0.9","true","null","<div style=""font-size:100px;"">X</div>","null","","","fixation","","","","","","","",""
"","","","","","audio-keyboard-response","152","291460","0.0-176.0","24","1","2023-10-31 20:22:03","a725c3012b74bf33a1020a98cb69c237","201.234.41.210","Mozilla/5.0 (Macintosh; Intel Mac OS X 10_15_7) AppleWebKit/537.36 (KHTML, like Gecko) Chrome/118.0.0.0 Safari/537.36","Macintosh","Chrome","118.0.0.0","OS X","10_15_7","null","en-US,en;q=0.9","true","331","tones/880hz_short.mp3","s","","","tone_number_task","1025","32","tones/880hz_short.mp3","1175","100","0","25",""
"","","","","","html-keyboard-response","153","292162","0.0-177.0-0.0","24","1","2023-10-31 20:22:03","a725c3012b74bf33a1020a98cb69c237","201.234.41.210","Mozilla/5.0 (Macintosh; Intel Mac OS X 10_15_7) AppleWebKit/537.36 (KHTML, like Gecko) Chrome/118.0.0.0 Safari/537.36","Macintosh","Chrome","118.0.0.0","OS X","10_15_7","null","en-US,en;q=0.9","true","null","","null","","","delay_block","","","","","","0","25",""
"","","","","","html-keyboard-response","154","292325","0.0-177.0-1.0","24","1","2023-10-31 20:22:03","a725c3012b74bf33a1020a98cb69c237","201.234.41.210","Mozilla/5.0 (Macintosh; Intel Mac OS X 10_15_7) AppleWebKit/537.36 (KHTML, like Gecko) Chrome/118.0.0.0 Safari/537.36","Macintosh","Chrome","118.0.0.0","OS X","10_15_7","null","en-US,en;q=0.9","true","null","<p id=""stimulus"" style=""font-size:100px;"">32</p>","null","","","tone_number_task_remaining_before_delay","","32","","844","100","0","25",""
"","","","","","html-keyboard-response","155","292772","0.0-180.0-0.0","24","1","2023-10-31 20:22:03","a725c3012b74bf33a1020a98cb69c237","201.234.41.210","Mozilla/5.0 (Macintosh; Intel Mac OS X 10_15_7) AppleWebKit/537.36 (KHTML, like Gecko) Chrome/118.0.0.0 Safari/537.36","Macintosh","Chrome","118.0.0.0","OS X","10_15_7","null","en-US,en;q=0.9","true","440","<p id=""stimulus"" style=""font-size:100px;"">32</p>","j","","","empty_block","","32","","","","0","25",""
"","","","","","html-keyboard-response","156","295692","0.0-181.0","24","1","2023-10-31 20:22:03","a725c3012b74bf33a1020a98cb69c237","201.234.41.210","Mozilla/5.0 (Macintosh; Intel Mac OS X 10_15_7) AppleWebKit/537.36 (KHTML, like Gecko) Chrome/118.0.0.0 Safari/537.36","Macintosh","Chrome","118.0.0.0","OS X","10_15_7","null","en-US,en;q=0.9","true","null","<div style=""font-size:100px;"">X</div>","null","","","fixation","","","","","","","",""
"","","","","","audio-keyboard-response","157","295854","0.0-182.0","24","1","2023-10-31 20:22:03","a725c3012b74bf33a1020a98cb69c237","201.234.41.210","Mozilla/5.0 (Macintosh; Intel Mac OS X 10_15_7) AppleWebKit/537.36 (KHTML, like Gecko) Chrome/118.0.0.0 Safari/537.36","Macintosh","Chrome","118.0.0.0","OS X","10_15_7","null","en-US,en;q=0.9","true","null","tones/880hz_short.mp3","null","","","tone_number_task","0","22","tones/880hz_short.mp3","150","100","0","26",""
"","","","","","html-keyboard-response","158","296212","0.0-185.0-0.0","24","1","2023-10-31 20:22:03","a725c3012b74bf33a1020a98cb69c237","201.234.41.210","Mozilla/5.0 (Macintosh; Intel Mac OS X 10_15_7) AppleWebKit/537.36 (KHTML, like Gecko) Chrome/118.0.0.0 Safari/537.36","Macintosh","Chrome","118.0.0.0","OS X","10_15_7","null","en-US,en;q=0.9","true","351","tones/880hz_short.mp3","a","","","empty_block","","22","","","","0","26",""
"","","","","","html-keyboard-response","159","296442","0.0-185.0-1.0","24","1","2023-10-31 20:22:03","a725c3012b74bf33a1020a98cb69c237","201.234.41.210","Mozilla/5.0 (Macintosh; Intel Mac OS X 10_15_7) AppleWebKit/537.36 (KHTML, like Gecko) Chrome/118.0.0.0 Safari/537.36","Macintosh","Chrome","118.0.0.0","OS X","10_15_7","null","en-US,en;q=0.9","true","226","tones/880hz_short.mp3","j","","","empty_block","","22","","","","0","26",""
"","","","","","html-keyboard-response","160","299360","0.0-187.0","24","1","2023-10-31 20:22:03","a725c3012b74bf33a1020a98cb69c237","201.234.41.210","Mozilla/5.0 (Macintosh; Intel Mac OS X 10_15_7) AppleWebKit/537.36 (KHTML, like Gecko) Chrome/118.0.0.0 Safari/537.36","Macintosh","Chrome","118.0.0.0","OS X","10_15_7","null","en-US,en;q=0.9","true","null","<div style=""font-size:100px;"">X</div>","null","","","fixation","","","","","","","",""
"","","","","","audio-keyboard-response","161","299620","0.0-188.0","24","1","2023-10-31 20:22:03","a725c3012b74bf33a1020a98cb69c237","201.234.41.210","Mozilla/5.0 (Macintosh; Intel Mac OS X 10_15_7) AppleWebKit/537.36 (KHTML, like Gecko) Chrome/118.0.0.0 Safari/537.36","Macintosh","Chrome","118.0.0.0","OS X","10_15_7","null","en-US,en;q=0.9","true","null","tones/440hz_short.mp3","null","","","tone_number_task","102.5","51","tones/440hz_short.mp3","252.5","100","0","27",""
"","","","","","html-keyboard-response","162","300148","0.0-191.0-0.0","24","1","2023-10-31 20:22:03","a725c3012b74bf33a1020a98cb69c237","201.234.41.210","Mozilla/5.0 (Macintosh; Intel Mac OS X 10_15_7) AppleWebKit/537.36 (KHTML, like Gecko) Chrome/118.0.0.0 Safari/537.36","Macintosh","Chrome","118.0.0.0","OS X","10_15_7","null","en-US,en;q=0.9","true","521","tones/440hz_short.mp3","a","","","empty_block","","51","","","","0","27",""
"","","","","","html-keyboard-response","163","300578","0.0-191.0-1.0","24","1","2023-10-31 20:22:03","a725c3012b74bf33a1020a98cb69c237","201.234.41.210","Mozilla/5.0 (Macintosh; Intel Mac OS X 10_15_7) AppleWebKit/537.36 (KHTML, like Gecko) Chrome/118.0.0.0 Safari/537.36","Macintosh","Chrome","118.0.0.0","OS X","10_15_7","null","en-US,en;q=0.9","true","426","tones/440hz_short.mp3","k","","","empty_block","","51","","","","0","27",""
"","","","","","html-keyboard-response","164","303495","0.0-193.0","24","1","2023-10-31 20:22:03","a725c3012b74bf33a1020a98cb69c237","201.234.41.210","Mozilla/5.0 (Macintosh; Intel Mac OS X 10_15_7) AppleWebKit/537.36 (KHTML, like Gecko) Chrome/118.0.0.0 Safari/537.36","Macintosh","Chrome","118.0.0.0","OS X","10_15_7","null","en-US,en;q=0.9","true","null","<div style=""font-size:100px;"">X</div>","null","","","fixation","","","","","","","",""
"","","","","","audio-keyboard-response","165","303897","0.0-194.0","24","1","2023-10-31 20:22:03","a725c3012b74bf33a1020a98cb69c237","201.234.41.210","Mozilla/5.0 (Macintosh; Intel Mac OS X 10_15_7) AppleWebKit/537.36 (KHTML, like Gecko) Chrome/118.0.0.0 Safari/537.36","Macintosh","Chrome","118.0.0.0","OS X","10_15_7","null","en-US,en;q=0.9","true","395","tones/440hz_short.mp3","a","","","tone_number_task","1025","59","tones/440hz_short.mp3","1175","100","0","28",""
"","","","","","html-keyboard-response","166","304536","0.0-195.0-0.0","24","1","2023-10-31 20:22:03","a725c3012b74bf33a1020a98cb69c237","201.234.41.210","Mozilla/5.0 (Macintosh; Intel Mac OS X 10_15_7) AppleWebKit/537.36 (KHTML, like Gecko) Chrome/118.0.0.0 Safari/537.36","Macintosh","Chrome","118.0.0.0","OS X","10_15_7","null","en-US,en;q=0.9","true","null","","null","","","delay_block","","","","","","0","28",""
"","","","","","html-keyboard-response","167","304696","0.0-195.0-1.0","24","1","2023-10-31 20:22:03","a725c3012b74bf33a1020a98cb69c237","201.234.41.210","Mozilla/5.0 (Macintosh; Intel Mac OS X 10_15_7) AppleWebKit/537.36 (KHTML, like Gecko) Chrome/118.0.0.0 Safari/537.36","Macintosh","Chrome","118.0.0.0","OS X","10_15_7","null","en-US,en;q=0.9","true","null","<p id=""stimulus"" style=""font-size:100px;"">59</p>","null","","","tone_number_task_remaining_before_delay","","59","","780","100","0","28",""
"","","","","","html-keyboard-response","168","304988","0.0-198.0-0.0","24","1","2023-10-31 20:22:03","a725c3012b74bf33a1020a98cb69c237","201.234.41.210","Mozilla/5.0 (Macintosh; Intel Mac OS X 10_15_7) AppleWebKit/537.36 (KHTML, like Gecko) Chrome/118.0.0.0 Safari/537.36","Macintosh","Chrome","118.0.0.0","OS X","10_15_7","null","en-US,en;q=0.9","true","285","<p id=""stimulus"" style=""font-size:100px;"">59</p>","k","","","empty_block","","59","","","","0","28",""
"","","","","","html-keyboard-response","169","307906","0.0-199.0","24","1","2023-10-31 20:22:03","a725c3012b74bf33a1020a98cb69c237","201.234.41.210","Mozilla/5.0 (Macintosh; Intel Mac OS X 10_15_7) AppleWebKit/537.36 (KHTML, like Gecko) Chrome/118.0.0.0 Safari/537.36","Macintosh","Chrome","118.0.0.0","OS X","10_15_7","null","en-US,en;q=0.9","true","null","<div style=""font-size:100px;"">X</div>","null","","","fixation","","","","","","","",""
"","","","","","audio-keyboard-response","170","308067","0.0-200.0","24","1","2023-10-31 20:22:03","a725c3012b74bf33a1020a98cb69c237","201.234.41.210","Mozilla/5.0 (Macintosh; Intel Mac OS X 10_15_7) AppleWebKit/537.36 (KHTML, like Gecko) Chrome/118.0.0.0 Safari/537.36","Macintosh","Chrome","118.0.0.0","OS X","10_15_7","null","en-US,en;q=0.9","true","null","tones/880hz_short.mp3","null","","","tone_number_task","0","35","tones/880hz_short.mp3","150","100","0","29",""
"","","","","","html-keyboard-response","171","308580","0.0-203.0-0.0","24","1","2023-10-31 20:22:03","a725c3012b74bf33a1020a98cb69c237","201.234.41.210","Mozilla/5.0 (Macintosh; Intel Mac OS X 10_15_7) AppleWebKit/537.36 (KHTML, like Gecko) Chrome/118.0.0.0 Safari/537.36","Macintosh","Chrome","118.0.0.0","OS X","10_15_7","null","en-US,en;q=0.9","true","507","tones/880hz_short.mp3","s","","","empty_block","","35","","","","0","29",""
"","","","","","html-keyboard-response","172","308826","0.0-203.0-1.0","24","1","2023-10-31 20:22:03","a725c3012b74bf33a1020a98cb69c237","201.234.41.210","Mozilla/5.0 (Macintosh; Intel Mac OS X 10_15_7) AppleWebKit/537.36 (KHTML, like Gecko) Chrome/118.0.0.0 Safari/537.36","Macintosh","Chrome","118.0.0.0","OS X","10_15_7","null","en-US,en;q=0.9","true","242","tones/880hz_short.mp3","k","","","empty_block","","35","","","","0","29",""
"","","","","","html-keyboard-response","173","311744","0.0-205.0","24","1","2023-10-31 20:22:03","a725c3012b74bf33a1020a98cb69c237","201.234.41.210","Mozilla/5.0 (Macintosh; Intel Mac OS X 10_15_7) AppleWebKit/537.36 (KHTML, like Gecko) Chrome/118.0.0.0 Safari/537.36","Macintosh","Chrome","118.0.0.0","OS X","10_15_7","null","en-US,en;q=0.9","true","null","<div style=""font-size:100px;"">X</div>","null","","","fixation","","","","","","","",""
"","","","","","audio-keyboard-response","174","312006","0.0-206.0","24","1","2023-10-31 20:22:03","a725c3012b74bf33a1020a98cb69c237","201.234.41.210","Mozilla/5.0 (Macintosh; Intel Mac OS X 10_15_7) AppleWebKit/537.36 (KHTML, like Gecko) Chrome/118.0.0.0 Safari/537.36","Macintosh","Chrome","118.0.0.0","OS X","10_15_7","null","en-US,en;q=0.9","true","null","tones/440hz_short.mp3","null","","","tone_number_task","102.5","57","tones/440hz_short.mp3","252.5","100","0","30",""
"","","","","","html-keyboard-response","175","312620","0.0-209.0-0.0","24","1","2023-10-31 20:22:03","a725c3012b74bf33a1020a98cb69c237","201.234.41.210","Mozilla/5.0 (Macintosh; Intel Mac OS X 10_15_7) AppleWebKit/537.36 (KHTML, like Gecko) Chrome/118.0.0.0 Safari/537.36","Macintosh","Chrome","118.0.0.0","OS X","10_15_7","null","en-US,en;q=0.9","true","608","tones/440hz_short.mp3","a","","","empty_block","","57","","","","0","30",""
"","","","","","html-keyboard-response","176","313068","0.0-209.0-1.0","24","1","2023-10-31 20:22:03","a725c3012b74bf33a1020a98cb69c237","201.234.41.210","Mozilla/5.0 (Macintosh; Intel Mac OS X 10_15_7) AppleWebKit/537.36 (KHTML, like Gecko) Chrome/118.0.0.0 Safari/537.36","Macintosh","Chrome","118.0.0.0","OS X","10_15_7","null","en-US,en;q=0.9","true","442","tones/440hz_short.mp3","k","","","empty_block","","57","","","","0","30",""
"","","","","","html-keyboard-response","177","315985","0.0-211.0","24","1","2023-10-31 20:22:03","a725c3012b74bf33a1020a98cb69c237","201.234.41.210","Mozilla/5.0 (Macintosh; Intel Mac OS X 10_15_7) AppleWebKit/537.36 (KHTML, like Gecko) Chrome/118.0.0.0 Safari/537.36","Macintosh","Chrome","118.0.0.0","OS X","10_15_7","null","en-US,en;q=0.9","true","null","<div style=""font-size:100px;"">X</div>","null","","","fixation","","","","","","","",""
"","","","","","audio-keyboard-response","178","316246","0.0-212.0","24","1","2023-10-31 20:22:03","a725c3012b74bf33a1020a98cb69c237","201.234.41.210","Mozilla/5.0 (Macintosh; Intel Mac OS X 10_15_7) AppleWebKit/537.36 (KHTML, like Gecko) Chrome/118.0.0.0 Safari/537.36","Macintosh","Chrome","118.0.0.0","OS X","10_15_7","null","en-US,en;q=0.9","true","null","tones/880hz_short.mp3","null","","","tone_number_task","102.5","64","tones/880hz_short.mp3","252.5","100","0","31",""
"","","","","","html-keyboard-response","179","316715","0.0-215.0-0.0","24","1","2023-10-31 20:22:03","a725c3012b74bf33a1020a98cb69c237","201.234.41.210","Mozilla/5.0 (Macintosh; Intel Mac OS X 10_15_7) AppleWebKit/537.36 (KHTML, like Gecko) Chrome/118.0.0.0 Safari/537.36","Macintosh","Chrome","118.0.0.0","OS X","10_15_7","null","en-US,en;q=0.9","true","462","tones/880hz_short.mp3","s","","","empty_block","","64","","","","0","31",""
"","","","","","html-keyboard-response","180","316874","0.0-215.0-1.0","24","1","2023-10-31 20:22:03","a725c3012b74bf33a1020a98cb69c237","201.234.41.210","Mozilla/5.0 (Macintosh; Intel Mac OS X 10_15_7) AppleWebKit/537.36 (KHTML, like Gecko) Chrome/118.0.0.0 Safari/537.36","Macintosh","Chrome","118.0.0.0","OS X","10_15_7","null","en-US,en;q=0.9","true","154","tones/880hz_short.mp3","k","","","empty_block","","64","","","","0","31",""
"","","","","","html-keyboard-response","181","319793","0.0-217.0","24","1","2023-10-31 20:22:03","a725c3012b74bf33a1020a98cb69c237","201.234.41.210","Mozilla/5.0 (Macintosh; Intel Mac OS X 10_15_7) AppleWebKit/537.36 (KHTML, like Gecko) Chrome/118.0.0.0 Safari/537.36","Macintosh","Chrome","118.0.0.0","OS X","10_15_7","null","en-US,en;q=0.9","true","null","<div style=""font-size:100px;"">X</div>","null","","","fixation","","","","","","","",""
"","","","","","audio-keyboard-response","182","320187","0.0-218.0","24","1","2023-10-31 20:22:03","a725c3012b74bf33a1020a98cb69c237","201.234.41.210","Mozilla/5.0 (Macintosh; Intel Mac OS X 10_15_7) AppleWebKit/537.36 (KHTML, like Gecko) Chrome/118.0.0.0 Safari/537.36","Macintosh","Chrome","118.0.0.0","OS X","10_15_7","null","en-US,en;q=0.9","true","389","tones/880hz_short.mp3","s","","","tone_number_task","1025","33","tones/880hz_short.mp3","1175","100","0","32",""
"","","","","","html-keyboard-response","183","320832","0.0-219.0-0.0","24","1","2023-10-31 20:22:03","a725c3012b74bf33a1020a98cb69c237","201.234.41.210","Mozilla/5.0 (Macintosh; Intel Mac OS X 10_15_7) AppleWebKit/537.36 (KHTML, like Gecko) Chrome/118.0.0.0 Safari/537.36","Macintosh","Chrome","118.0.0.0","OS X","10_15_7","null","en-US,en;q=0.9","true","null","","null","","","delay_block","","","","","","0","32",""
"","","","","","html-keyboard-response","184","320992","0.0-219.0-1.0","24","1","2023-10-31 20:22:03","a725c3012b74bf33a1020a98cb69c237","201.234.41.210","Mozilla/5.0 (Macintosh; Intel Mac OS X 10_15_7) AppleWebKit/537.36 (KHTML, like Gecko) Chrome/118.0.0.0 Safari/537.36","Macintosh","Chrome","118.0.0.0","OS X","10_15_7","null","en-US,en;q=0.9","true","null","<p id=""stimulus"" style=""font-size:100px;"">33</p>","null","","","tone_number_task_remaining_before_delay","","33","","786","100","0","32",""
"","","","","","html-keyboard-response","185","321651","0.0-222.0-0.0","24","1","2023-10-31 20:22:03","a725c3012b74bf33a1020a98cb69c237","201.234.41.210","Mozilla/5.0 (Macintosh; Intel Mac OS X 10_15_7) AppleWebKit/537.36 (KHTML, like Gecko) Chrome/118.0.0.0 Safari/537.36","Macintosh","Chrome","118.0.0.0","OS X","10_15_7","null","en-US,en;q=0.9","true","651","<p id=""stimulus"" style=""font-size:100px;"">33</p>","j","","","empty_block","","33","","","","0","32",""
"","","","","","html-keyboard-response","186","324567","0.0-223.0","24","1","2023-10-31 20:22:03","a725c3012b74bf33a1020a98cb69c237","201.234.41.210","Mozilla/5.0 (Macintosh; Intel Mac OS X 10_15_7) AppleWebKit/537.36 (KHTML, like Gecko) Chrome/118.0.0.0 Safari/537.36","Macintosh","Chrome","118.0.0.0","OS X","10_15_7","null","en-US,en;q=0.9","true","null","<div style=""font-size:100px;"">X</div>","null","","","fixation","","","","","","","",""
"","","","","","audio-keyboard-response","187","324730","0.0-224.0","24","1","2023-10-31 20:22:03","a725c3012b74bf33a1020a98cb69c237","201.234.41.210","Mozilla/5.0 (Macintosh; Intel Mac OS X 10_15_7) AppleWebKit/537.36 (KHTML, like Gecko) Chrome/118.0.0.0 Safari/537.36","Macintosh","Chrome","118.0.0.0","OS X","10_15_7","null","en-US,en;q=0.9","true","null","tones/880hz_short.mp3","null","","","tone_number_task","0","28","tones/880hz_short.mp3","150","100","0","33",""
"","","","","","html-keyboard-response","188","325467","0.0-227.0-0.0","24","1","2023-10-31 20:22:03","a725c3012b74bf33a1020a98cb69c237","201.234.41.210","Mozilla/5.0 (Macintosh; Intel Mac OS X 10_15_7) AppleWebKit/537.36 (KHTML, like Gecko) Chrome/118.0.0.0 Safari/537.36","Macintosh","Chrome","118.0.0.0","OS X","10_15_7","null","en-US,en;q=0.9","true","729","tones/880hz_short.mp3","s","","","empty_block","","28","","","","0","33",""
"","","","","","html-keyboard-response","189","325779","0.0-227.0-1.0","24","1","2023-10-31 20:22:03","a725c3012b74bf33a1020a98cb69c237","201.234.41.210","Mozilla/5.0 (Macintosh; Intel Mac OS X 10_15_7) AppleWebKit/537.36 (KHTML, like Gecko) Chrome/118.0.0.0 Safari/537.36","Macintosh","Chrome","118.0.0.0","OS X","10_15_7","null","en-US,en;q=0.9","true","307","tones/880hz_short.mp3","j","","","empty_block","","28","","","","0","33",""
"","","","","","html-keyboard-response","190","328700","0.0-229.0","24","1","2023-10-31 20:22:03","a725c3012b74bf33a1020a98cb69c237","201.234.41.210","Mozilla/5.0 (Macintosh; Intel Mac OS X 10_15_7) AppleWebKit/537.36 (KHTML, like Gecko) Chrome/118.0.0.0 Safari/537.36","Macintosh","Chrome","118.0.0.0","OS X","10_15_7","null","en-US,en;q=0.9","true","null","<div style=""font-size:100px;"">X</div>","null","","","fixation","","","","","","","",""
"","","","","","audio-keyboard-response","191","329308","0.0-230.0","24","1","2023-10-31 20:22:03","a725c3012b74bf33a1020a98cb69c237","201.234.41.210","Mozilla/5.0 (Macintosh; Intel Mac OS X 10_15_7) AppleWebKit/537.36 (KHTML, like Gecko) Chrome/118.0.0.0 Safari/537.36","Macintosh","Chrome","118.0.0.0","OS X","10_15_7","null","en-US,en;q=0.9","true","597","tones/440hz_short.mp3","a","","","tone_number_task","992.5","51","tones/440hz_short.mp3","1142.5","100","0","34",""
"","","","","","html-keyboard-response","192","329714","0.0-231.0-0.0","24","1","2023-10-31 20:22:03","a725c3012b74bf33a1020a98cb69c237","201.234.41.210","Mozilla/5.0 (Macintosh; Intel Mac OS X 10_15_7) AppleWebKit/537.36 (KHTML, like Gecko) Chrome/118.0.0.0 Safari/537.36","Macintosh","Chrome","118.0.0.0","OS X","10_15_7","null","en-US,en;q=0.9","true","null","","null","","","delay_block","","","","","","0","34",""
"","","","","","html-keyboard-response","193","329874","0.0-231.0-1.0","24","1","2023-10-31 20:22:03","a725c3012b74bf33a1020a98cb69c237","201.234.41.210","Mozilla/5.0 (Macintosh; Intel Mac OS X 10_15_7) AppleWebKit/537.36 (KHTML, like Gecko) Chrome/118.0.0.0 Safari/537.36","Macintosh","Chrome","118.0.0.0","OS X","10_15_7","null","en-US,en;q=0.9","true","null","<p id=""stimulus"" style=""font-size:100px;"">51</p>","null","","","tone_number_task_remaining_before_delay","","51","","545.5","100","0","34",""
"","","","","","html-keyboard-response","194","330242","0.0-234.0-0.0","24","1","2023-10-31 20:22:03","a725c3012b74bf33a1020a98cb69c237","201.234.41.210","Mozilla/5.0 (Macintosh; Intel Mac OS X 10_15_7) AppleWebKit/537.36 (KHTML, like Gecko) Chrome/118.0.0.0 Safari/537.36","Macintosh","Chrome","118.0.0.0","OS X","10_15_7","null","en-US,en;q=0.9","true","361","<p id=""stimulus"" style=""font-size:100px;"">51</p>","k","","","empty_block","","51","","","","0","34",""
"","","","","","html-keyboard-response","195","333162","0.0-235.0","24","1","2023-10-31 20:22:03","a725c3012b74bf33a1020a98cb69c237","201.234.41.210","Mozilla/5.0 (Macintosh; Intel Mac OS X 10_15_7) AppleWebKit/537.36 (KHTML, like Gecko) Chrome/118.0.0.0 Safari/537.36","Macintosh","Chrome","118.0.0.0","OS X","10_15_7","null","en-US,en;q=0.9","true","null","<div style=""font-size:100px;"">X</div>","null","","","fixation","","","","","","","",""
"","","","","","audio-keyboard-response","196","333425","0.0-236.0","24","1","2023-10-31 20:22:03","a725c3012b74bf33a1020a98cb69c237","201.234.41.210","Mozilla/5.0 (Macintosh; Intel Mac OS X 10_15_7) AppleWebKit/537.36 (KHTML, like Gecko) Chrome/118.0.0.0 Safari/537.36","Macintosh","Chrome","118.0.0.0","OS X","10_15_7","null","en-US,en;q=0.9","true","null","tones/440hz_short.mp3","null","","","tone_number_task","102.5","31","tones/440hz_short.mp3","252.5","100","0","35",""
"","","","","","html-keyboard-response","197","333821","0.0-239.0-0.0","24","1","2023-10-31 20:22:03","a725c3012b74bf33a1020a98cb69c237","201.234.41.210","Mozilla/5.0 (Macintosh; Intel Mac OS X 10_15_7) AppleWebKit/537.36 (KHTML, like Gecko) Chrome/118.0.0.0 Safari/537.36","Macintosh","Chrome","118.0.0.0","OS X","10_15_7","null","en-US,en;q=0.9","true","387","tones/440hz_short.mp3","a","","","empty_block","","31","","","","0","35",""
"","","","","","html-keyboard-response","198","333956","0.0-239.0-1.0","24","1","2023-10-31 20:22:03","a725c3012b74bf33a1020a98cb69c237","201.234.41.210","Mozilla/5.0 (Macintosh; Intel Mac OS X 10_15_7) AppleWebKit/537.36 (KHTML, like Gecko) Chrome/118.0.0.0 Safari/537.36","Macintosh","Chrome","118.0.0.0","OS X","10_15_7","null","en-US,en;q=0.9","true","129","tones/440hz_short.mp3","j","","","empty_block","","31","","","","0","35",""
"","","","","","html-keyboard-response","199","336871","0.0-241.0","24","1","2023-10-31 20:22:03","a725c3012b74bf33a1020a98cb69c237","201.234.41.210","Mozilla/5.0 (Macintosh; Intel Mac OS X 10_15_7) AppleWebKit/537.36 (KHTML, like Gecko) Chrome/118.0.0.0 Safari/537.36","Macintosh","Chrome","118.0.0.0","OS X","10_15_7","null","en-US,en;q=0.9","true","null","<div style=""font-size:100px;"">X</div>","null","","","fixation","","","","","","","",""
"","","","","","audio-keyboard-response","200","337347","0.0-242.0","24","1","2023-10-31 20:22:03","a725c3012b74bf33a1020a98cb69c237","201.234.41.210","Mozilla/5.0 (Macintosh; Intel Mac OS X 10_15_7) AppleWebKit/537.36 (KHTML, like Gecko) Chrome/118.0.0.0 Safari/537.36","Macintosh","Chrome","118.0.0.0","OS X","10_15_7","null","en-US,en;q=0.9","true","464","tones/440hz_short.mp3","a","","","tone_number_task","1025","38","tones/440hz_short.mp3","1175","100","0","36",""
"","","","","","html-keyboard-response","201","337918","0.0-243.0-0.0","24","1","2023-10-31 20:22:03","a725c3012b74bf33a1020a98cb69c237","201.234.41.210","Mozilla/5.0 (Macintosh; Intel Mac OS X 10_15_7) AppleWebKit/537.36 (KHTML, like Gecko) Chrome/118.0.0.0 Safari/537.36","Macintosh","Chrome","118.0.0.0","OS X","10_15_7","null","en-US,en;q=0.9","true","null","","null","","","delay_block","","","","","","0","36",""
"","","","","","html-keyboard-response","202","338080","0.0-243.0-1.0","24","1","2023-10-31 20:22:03","a725c3012b74bf33a1020a98cb69c237","201.234.41.210","Mozilla/5.0 (Macintosh; Intel Mac OS X 10_15_7) AppleWebKit/537.36 (KHTML, like Gecko) Chrome/118.0.0.0 Safari/537.36","Macintosh","Chrome","118.0.0.0","OS X","10_15_7","null","en-US,en;q=0.9","true","null","<p id=""stimulus"" style=""font-size:100px;"">38</p>","null","","","tone_number_task_remaining_before_delay","","38","","711","100","0","36",""
"","","","","","html-keyboard-response","203","338508","0.0-246.0-0.0","24","1","2023-10-31 20:22:03","a725c3012b74bf33a1020a98cb69c237","201.234.41.210","Mozilla/5.0 (Macintosh; Intel Mac OS X 10_15_7) AppleWebKit/537.36 (KHTML, like Gecko) Chrome/118.0.0.0 Safari/537.36","Macintosh","Chrome","118.0.0.0","OS X","10_15_7","null","en-US,en;q=0.9","true","420","<p id=""stimulus"" style=""font-size:100px;"">38</p>","j","","","empty_block","","38","","","","0","36",""
"","","","","","html-keyboard-response","204","341426","0.0-247.0","24","1","2023-10-31 20:22:03","a725c3012b74bf33a1020a98cb69c237","201.234.41.210","Mozilla/5.0 (Macintosh; Intel Mac OS X 10_15_7) AppleWebKit/537.36 (KHTML, like Gecko) Chrome/118.0.0.0 Safari/537.36","Macintosh","Chrome","118.0.0.0","OS X","10_15_7","null","en-US,en;q=0.9","true","null","<div style=""font-size:100px;"">X</div>","null","","","fixation","","","","","","","",""
"","","","","","audio-keyboard-response","205","342036","0.0-248.0","24","1","2023-10-31 20:22:03","a725c3012b74bf33a1020a98cb69c237","201.234.41.210","Mozilla/5.0 (Macintosh; Intel Mac OS X 10_15_7) AppleWebKit/537.36 (KHTML, like Gecko) Chrome/118.0.0.0 Safari/537.36","Macintosh","Chrome","118.0.0.0","OS X","10_15_7","null","en-US,en;q=0.9","true","603","tones/880hz_short.mp3","s","","","tone_number_task","1025","39","tones/880hz_short.mp3","1175","100","0","37",""
"","","","","","html-keyboard-response","206","342469","0.0-249.0-0.0","24","1","2023-10-31 20:22:03","a725c3012b74bf33a1020a98cb69c237","201.234.41.210","Mozilla/5.0 (Macintosh; Intel Mac OS X 10_15_7) AppleWebKit/537.36 (KHTML, like Gecko) Chrome/118.0.0.0 Safari/537.36","Macintosh","Chrome","118.0.0.0","OS X","10_15_7","null","en-US,en;q=0.9","true","null","","null","","","delay_block","","","","","","0","37",""
"","","","","","html-keyboard-response","207","342632","0.0-249.0-1.0","24","1","2023-10-31 20:22:03","a725c3012b74bf33a1020a98cb69c237","201.234.41.210","Mozilla/5.0 (Macintosh; Intel Mac OS X 10_15_7) AppleWebKit/537.36 (KHTML, like Gecko) Chrome/118.0.0.0 Safari/537.36","Macintosh","Chrome","118.0.0.0","OS X","10_15_7","null","en-US,en;q=0.9","true","null","<p id=""stimulus"" style=""font-size:100px;"">39</p>","null","","","tone_number_task_remaining_before_delay","","39","","572","100","0","37",""
"","","","","","html-keyboard-response","208","343003","0.0-252.0-0.0","24","1","2023-10-31 20:22:03","a725c3012b74bf33a1020a98cb69c237","201.234.41.210","Mozilla/5.0 (Macintosh; Intel Mac OS X 10_15_7) AppleWebKit/537.36 (KHTML, like Gecko) Chrome/118.0.0.0 Safari/537.36","Macintosh","Chrome","118.0.0.0","OS X","10_15_7","null","en-US,en;q=0.9","true","364","<p id=""stimulus"" style=""font-size:100px;"">39</p>","j","","","empty_block","","39","","","","0","37",""
"","","","","","html-keyboard-response","209","345919","0.0-253.0","24","1","2023-10-31 20:22:03","a725c3012b74bf33a1020a98cb69c237","201.234.41.210","Mozilla/5.0 (Macintosh; Intel Mac OS X 10_15_7) AppleWebKit/537.36 (KHTML, like Gecko) Chrome/118.0.0.0 Safari/537.36","Macintosh","Chrome","118.0.0.0","OS X","10_15_7","null","en-US,en;q=0.9","true","null","<div style=""font-size:100px;"">X</div>","null","","","fixation","","","","","","","",""
"","","","","","audio-keyboard-response","210","346603","0.0-254.0","24","1","2023-10-31 20:22:03","a725c3012b74bf33a1020a98cb69c237","201.234.41.210","Mozilla/5.0 (Macintosh; Intel Mac OS X 10_15_7) AppleWebKit/537.36 (KHTML, like Gecko) Chrome/118.0.0.0 Safari/537.36","Macintosh","Chrome","118.0.0.0","OS X","10_15_7","null","en-US,en;q=0.9","true","677","tones/440hz_short.mp3","a","","","tone_number_task","992.5","30","tones/440hz_short.mp3","1142.5","100","0","38",""
"","","","","","html-keyboard-response","211","346927","0.0-255.0-0.0","24","1","2023-10-31 20:22:03","a725c3012b74bf33a1020a98cb69c237","201.234.41.210","Mozilla/5.0 (Macintosh; Intel Mac OS X 10_15_7) AppleWebKit/537.36 (KHTML, like Gecko) Chrome/118.0.0.0 Safari/537.36","Macintosh","Chrome","118.0.0.0","OS X","10_15_7","null","en-US,en;q=0.9","true","null","","null","","","delay_block","","","","","","0","38",""
"","","","","","html-keyboard-response","212","347090","0.0-255.0-1.0","24","1","2023-10-31 20:22:03","a725c3012b74bf33a1020a98cb69c237","201.234.41.210","Mozilla/5.0 (Macintosh; Intel Mac OS X 10_15_7) AppleWebKit/537.36 (KHTML, like Gecko) Chrome/118.0.0.0 Safari/537.36","Macintosh","Chrome","118.0.0.0","OS X","10_15_7","null","en-US,en;q=0.9","true","null","<p id=""stimulus"" style=""font-size:100px;"">30</p>","null","","","tone_number_task_remaining_before_delay","","30","","465.5","100","0","38",""
"","","","","","html-keyboard-response","213","347443","0.0-258.0-0.0","24","1","2023-10-31 20:22:03","a725c3012b74bf33a1020a98cb69c237","201.234.41.210","Mozilla/5.0 (Macintosh; Intel Mac OS X 10_15_7) AppleWebKit/537.36 (KHTML, like Gecko) Chrome/118.0.0.0 Safari/537.36","Macintosh","Chrome","118.0.0.0","OS X","10_15_7","null","en-US,en;q=0.9","true","346","<p id=""stimulus"" style=""font-size:100px;"">30</p>","j","","","empty_block","","30","","","","0","38",""
"","","","","","html-keyboard-response","214","350362","0.0-259.0","24","1","2023-10-31 20:22:03","a725c3012b74bf33a1020a98cb69c237","201.234.41.210","Mozilla/5.0 (Macintosh; Intel Mac OS X 10_15_7) AppleWebKit/537.36 (KHTML, like Gecko) Chrome/118.0.0.0 Safari/537.36","Macintosh","Chrome","118.0.0.0","OS X","10_15_7","null","en-US,en;q=0.9","true","null","<div style=""font-size:100px;"">X</div>","null","","","fixation","","","","","","","",""
"","","","","","audio-keyboard-response","215","351175","0.0-260.0","24","1","2023-10-31 20:22:03","a725c3012b74bf33a1020a98cb69c237","201.234.41.210","Mozilla/5.0 (Macintosh; Intel Mac OS X 10_15_7) AppleWebKit/537.36 (KHTML, like Gecko) Chrome/118.0.0.0 Safari/537.36","Macintosh","Chrome","118.0.0.0","OS X","10_15_7","null","en-US,en;q=0.9","true","805","tones/440hz_short.mp3","a","","","tone_number_task","1025","68","tones/440hz_short.mp3","1175","100","0","39",""
