"success","timeout","failed_images","failed_audio","failed_video","trial_type","trial_index","time_elapsed","internal_node_id","run_id","condition","recorded_at","source_code_version","ip","user_agent","device","browser","browser_version","platform","platform_version","referer","accept_language","check","rt","stimulus","response","question_order","url","task","delay","number","audioFile","trial_duration","font_size","block","round","value"
"true","false","[]","[]","[]","preload","0","91","0.0-0.0","4","1","2023-10-26 14:38:59","a725c3012b74bf33a1020a98cb69c237","157.92.39.238","Mozilla/5.0 (Windows NT 10.0; Win64; x64) AppleWebKit/537.36 (KHTML, like Gecko) Chrome/118.0.0.0 Safari/537.36","WebKit","Chrome","118.0.0.0","Windows","10.0","null","es-ES,es;q=0.9","true","","","","","","","","","","","","","",""
"true","","","","","fullscreen","1","5431","0.0-1.0","4","1","2023-10-26 14:38:59","a725c3012b74bf33a1020a98cb69c237","157.92.39.238","Mozilla/5.0 (Windows NT 10.0; Win64; x64) AppleWebKit/537.36 (KHTML, like Gecko) Chrome/118.0.0.0 Safari/537.36","WebKit","Chrome","118.0.0.0","Windows","10.0","null","es-ES,es;q=0.9","true","","","","","","","","","","","","","",""
"","","","","","html-button-response","2","7695","0.0-2.0","4","1","2023-10-26 14:38:59","a725c3012b74bf33a1020a98cb69c237","157.92.39.238","Mozilla/5.0 (Windows NT 10.0; Win64; x64) AppleWebKit/537.36 (KHTML, like Gecko) Chrome/118.0.0.0 Safari/537.36","WebKit","Chrome","118.0.0.0","Windows","10.0","null","es-ES,es;q=0.9","true","2258","<p style=""font-size:24px; color:red;"">Cosas importantes a tener en cuenta antes de comenzar el experimento:</p>","0","","","","","","","","","","",""
"","","","","","html-button-response","3","12710","0.0-3.0","4","1","2023-10-26 14:38:59","a725c3012b74bf33a1020a98cb69c237","157.92.39.238","Mozilla/5.0 (Windows NT 10.0; Win64; x64) AppleWebKit/537.36 (KHTML, like Gecko) Chrome/118.0.0.0 Safari/537.36","WebKit","Chrome","118.0.0.0","Windows","10.0","null","es-ES,es;q=0.9","true","5012","<p style=""font-size:24px;"">El experimento dura aproximadamente 15 minutos.</p><p style=""font-size:24px;"">Por favor, no cierres la ventana del navegador durante el experimento.</p><p style=""font-size:24px;"">Si se completa de forma parcial, no se guardará ningún resultado.</p>","0","","","","","","","","","","",""
"","","","","","html-button-response","4","27806","0.0-4.0","4","1","2023-10-26 14:38:59","a725c3012b74bf33a1020a98cb69c237","157.92.39.238","Mozilla/5.0 (Windows NT 10.0; Win64; x64) AppleWebKit/537.36 (KHTML, like Gecko) Chrome/118.0.0.0 Safari/537.36","WebKit","Chrome","118.0.0.0","Windows","10.0","null","es-ES,es;q=0.9","true","15094","<p style=""font-size:24px;"">El experimento contiene estímulos sonoros.</p>","0","","","","","","","","","","",""
"","","","","","audio-button-response","5","30614","0.0-5.0-0.0","4","1","2023-10-26 14:38:59","a725c3012b74bf33a1020a98cb69c237","157.92.39.238","Mozilla/5.0 (Windows NT 10.0; Win64; x64) AppleWebKit/537.36 (KHTML, like Gecko) Chrome/118.0.0.0 Safari/537.36","WebKit","Chrome","118.0.0.0","Windows","10.0","null","es-ES,es;q=0.9","true","2709","tones/440hz_short.mp3","0","","","","","","","","","","",""
"","","","","","audio-button-response","6","33942","0.0-5.1-0.1","4","1","2023-10-26 14:38:59","a725c3012b74bf33a1020a98cb69c237","157.92.39.238","Mozilla/5.0 (Windows NT 10.0; Win64; x64) AppleWebKit/537.36 (KHTML, like Gecko) Chrome/118.0.0.0 Safari/537.36","WebKit","Chrome","118.0.0.0","Windows","10.0","null","es-ES,es;q=0.9","true","3320","tones/440hz_short.mp3","0","","","","","","","","","","",""
"","","","","","audio-button-response","7","36190","0.0-5.2-0.2","4","1","2023-10-26 14:38:59","a725c3012b74bf33a1020a98cb69c237","157.92.39.238","Mozilla/5.0 (Windows NT 10.0; Win64; x64) AppleWebKit/537.36 (KHTML, like Gecko) Chrome/118.0.0.0 Safari/537.36","WebKit","Chrome","118.0.0.0","Windows","10.0","null","es-ES,es;q=0.9","true","2240","tones/440hz_short.mp3","0","","","","","","","","","","",""
"","","","","","audio-button-response","8","37958","0.0-5.3-0.3","4","1","2023-10-26 14:38:59","a725c3012b74bf33a1020a98cb69c237","157.92.39.238","Mozilla/5.0 (Windows NT 10.0; Win64; x64) AppleWebKit/537.36 (KHTML, like Gecko) Chrome/118.0.0.0 Safari/537.36","WebKit","Chrome","118.0.0.0","Windows","10.0","null","es-ES,es;q=0.9","true","1771","tones/440hz_short.mp3","1","","","","","","","","","","",""
"","","","","","audio-button-response","9","42414","0.0-6.0-0.0","4","1","2023-10-26 14:38:59","a725c3012b74bf33a1020a98cb69c237","157.92.39.238","Mozilla/5.0 (Windows NT 10.0; Win64; x64) AppleWebKit/537.36 (KHTML, like Gecko) Chrome/118.0.0.0 Safari/537.36","WebKit","Chrome","118.0.0.0","Windows","10.0","null","es-ES,es;q=0.9","true","4459","tones/880hz_short.mp3","0","","","","","","","","","","",""
"","","","","","audio-button-response","10","51406","0.0-6.1-0.1","4","1","2023-10-26 14:38:59","a725c3012b74bf33a1020a98cb69c237","157.92.39.238","Mozilla/5.0 (Windows NT 10.0; Win64; x64) AppleWebKit/537.36 (KHTML, like Gecko) Chrome/118.0.0.0 Safari/537.36","WebKit","Chrome","118.0.0.0","Windows","10.0","null","es-ES,es;q=0.9","true","8992","tones/880hz_short.mp3","0","","","","","","","","","","",""
"","","","","","audio-button-response","11","53741","0.0-6.2-0.2","4","1","2023-10-26 14:38:59","a725c3012b74bf33a1020a98cb69c237","157.92.39.238","Mozilla/5.0 (Windows NT 10.0; Win64; x64) AppleWebKit/537.36 (KHTML, like Gecko) Chrome/118.0.0.0 Safari/537.36","WebKit","Chrome","118.0.0.0","Windows","10.0","null","es-ES,es;q=0.9","true","2328","tones/880hz_short.mp3","0","","","","","","","","","","",""
"","","","","","audio-button-response","12","55334","0.0-6.3-0.3","4","1","2023-10-26 14:38:59","a725c3012b74bf33a1020a98cb69c237","157.92.39.238","Mozilla/5.0 (Windows NT 10.0; Win64; x64) AppleWebKit/537.36 (KHTML, like Gecko) Chrome/118.0.0.0 Safari/537.36","WebKit","Chrome","118.0.0.0","Windows","10.0","null","es-ES,es;q=0.9","true","1589","tones/880hz_short.mp3","0","","","","","","","","","","",""
"","","","","","audio-button-response","13","56877","0.0-6.4-0.4","4","1","2023-10-26 14:38:59","a725c3012b74bf33a1020a98cb69c237","157.92.39.238","Mozilla/5.0 (Windows NT 10.0; Win64; x64) AppleWebKit/537.36 (KHTML, like Gecko) Chrome/118.0.0.0 Safari/537.36","WebKit","Chrome","118.0.0.0","Windows","10.0","null","es-ES,es;q=0.9","true","1541","tones/880hz_short.mp3","1","","","","","","","","","","",""
"","","","","","survey-html-form","14","59903","0.0-7.0","4","1","2023-10-26 14:38:59","a725c3012b74bf33a1020a98cb69c237","157.92.39.238","Mozilla/5.0 (Windows NT 10.0; Win64; x64) AppleWebKit/537.36 (KHTML, like Gecko) Chrome/118.0.0.0 Safari/537.36","WebKit","Chrome","118.0.0.0","Windows","10.0","null","es-ES,es;q=0.9","true","3012","","{""response"":""40""}","","","","","","","","","","",""
"","","","","","survey-multi-choice","15","65216","0.0-8.0","4","1","2023-10-26 14:38:59","a725c3012b74bf33a1020a98cb69c237","157.92.39.238","Mozilla/5.0 (Windows NT 10.0; Win64; x64) AppleWebKit/537.36 (KHTML, like Gecko) Chrome/118.0.0.0 Safari/537.36","WebKit","Chrome","118.0.0.0","Windows","10.0","null","es-ES,es;q=0.9","true","5309","","{""gender"":""Mujer"",""hand"":""Derecha""}","[0,1]","","","","","","","","","",""
"","","","","","external-html","16","153894","0.0-9.0","4","1","2023-10-26 14:38:59","a725c3012b74bf33a1020a98cb69c237","157.92.39.238","Mozilla/5.0 (Windows NT 10.0; Win64; x64) AppleWebKit/537.36 (KHTML, like Gecko) Chrome/118.0.0.0 Safari/537.36","WebKit","Chrome","118.0.0.0","Windows","10.0","null","es-ES,es;q=0.9","true","88383","","","","instructions/instructions.html","","","","","","","","",""
"","","","","","external-html","17","182327","0.0-10.0","4","1","2023-10-26 14:38:59","a725c3012b74bf33a1020a98cb69c237","157.92.39.238","Mozilla/5.0 (Windows NT 10.0; Win64; x64) AppleWebKit/537.36 (KHTML, like Gecko) Chrome/118.0.0.0 Safari/537.36","WebKit","Chrome","118.0.0.0","Windows","10.0","null","es-ES,es;q=0.9","true","28130","","","","instructions/animation.html","","","","","","","","",""
"","","","","","html-keyboard-response","18","185028","0.0-11.0-0.0","4","1","2023-10-26 14:38:59","a725c3012b74bf33a1020a98cb69c237","157.92.39.238","Mozilla/5.0 (Windows NT 10.0; Win64; x64) AppleWebKit/537.36 (KHTML, like Gecko) Chrome/118.0.0.0 Safari/537.36","WebKit","Chrome","118.0.0.0","Windows","10.0","null","es-ES,es;q=0.9","true","null","<div style=""font-size:100px;"">X</div>","null","","","fixation","","","","","","","",""
"","","","","","audio-keyboard-response","19","185634","0.0-11.0-1.0","4","1","2023-10-26 14:38:59","a725c3012b74bf33a1020a98cb69c237","157.92.39.238","Mozilla/5.0 (Windows NT 10.0; Win64; x64) AppleWebKit/537.36 (KHTML, like Gecko) Chrome/118.0.0.0 Safari/537.36","WebKit","Chrome","118.0.0.0","Windows","10.0","null","es-ES,es;q=0.9","true","560","tones/440hz_short.mp3","a","","","tone_number_task","1000","37","tones/440hz_short.mp3","1150","100","null","null",""
"","","","","","html-keyboard-response","20","186080","0.0-11.0-2.0-0.0","4","1","2023-10-26 14:38:59","a725c3012b74bf33a1020a98cb69c237","157.92.39.238","Mozilla/5.0 (Windows NT 10.0; Win64; x64) AppleWebKit/537.36 (KHTML, like Gecko) Chrome/118.0.0.0 Safari/537.36","WebKit","Chrome","118.0.0.0","Windows","10.0","null","es-ES,es;q=0.9","true","null","","null","","","delay_block","","","","","","null","null",""
"","","","","","html-keyboard-response","21","186236","0.0-11.0-2.0-1.0","4","1","2023-10-26 14:38:59","a725c3012b74bf33a1020a98cb69c237","157.92.39.238","Mozilla/5.0 (Windows NT 10.0; Win64; x64) AppleWebKit/537.36 (KHTML, like Gecko) Chrome/118.0.0.0 Safari/537.36","WebKit","Chrome","118.0.0.0","Windows","10.0","null","es-ES,es;q=0.9","true","null","<p id=""stimulus"" style=""font-size:100px;"">37</p>","null","","","tone_number_task_remaining_before_delay","","37","","590","100","null","null",""
"","","","","","html-keyboard-response","22","186803","0.0-11.0-5.0-0.0","4","1","2023-10-26 14:38:59","a725c3012b74bf33a1020a98cb69c237","157.92.39.238","Mozilla/5.0 (Windows NT 10.0; Win64; x64) AppleWebKit/537.36 (KHTML, like Gecko) Chrome/118.0.0.0 Safari/537.36","WebKit","Chrome","118.0.0.0","Windows","10.0","null","es-ES,es;q=0.9","true","562","<p id=""stimulus"" style=""font-size:100px;"">37</p>","k","","","empty_block","","37","","","","null","null",""
"","","","","","html-button-response","23","190470","0.0-11.0-6.0-0.0","4","1","2023-10-26 14:38:59","a725c3012b74bf33a1020a98cb69c237","157.92.39.238","Mozilla/5.0 (Windows NT 10.0; Win64; x64) AppleWebKit/537.36 (KHTML, like Gecko) Chrome/118.0.0.0 Safari/537.36","WebKit","Chrome","118.0.0.0","Windows","10.0","null","es-ES,es;q=0.9","true","3664","
  '<p style=""font-size:24px; color:red;"">Incorrecto</p><p> Respondiste alguno de los estímulos de manera incorrecta.</p><p>Por favor, repasá las instrucciones y seguimos desde donde nos quedamos. </p>
  ","0","","","","","","","","","","",""
"","","","","","external-html","24","196342","0.0-11.0-6.0-1.0","4","1","2023-10-26 14:38:59","a725c3012b74bf33a1020a98cb69c237","157.92.39.238","Mozilla/5.0 (Windows NT 10.0; Win64; x64) AppleWebKit/537.36 (KHTML, like Gecko) Chrome/118.0.0.0 Safari/537.36","WebKit","Chrome","118.0.0.0","Windows","10.0","null","es-ES,es;q=0.9","true","5561","","","","instructions/instructions_B.html","","","","","","","","",""
"","","","","","html-keyboard-response","25","199044","0.0-11.1-0.1","4","1","2023-10-26 14:38:59","a725c3012b74bf33a1020a98cb69c237","157.92.39.238","Mozilla/5.0 (Windows NT 10.0; Win64; x64) AppleWebKit/537.36 (KHTML, like Gecko) Chrome/118.0.0.0 Safari/537.36","WebKit","Chrome","118.0.0.0","Windows","10.0","null","es-ES,es;q=0.9","true","null","<div style=""font-size:100px;"">X</div>","null","","","fixation","","","","","","","",""
"","","","","","audio-keyboard-response","26","199562","0.0-11.1-1.1","4","1","2023-10-26 14:38:59","a725c3012b74bf33a1020a98cb69c237","157.92.39.238","Mozilla/5.0 (Windows NT 10.0; Win64; x64) AppleWebKit/537.36 (KHTML, like Gecko) Chrome/118.0.0.0 Safari/537.36","WebKit","Chrome","118.0.0.0","Windows","10.0","null","es-ES,es;q=0.9","true","520","tones/440hz_short.mp3","a","","","tone_number_task","1000","37","tones/440hz_short.mp3","1150","100","null","null",""
"","","","","","html-keyboard-response","27","200046","0.0-11.1-2.1-0.1","4","1","2023-10-26 14:38:59","a725c3012b74bf33a1020a98cb69c237","157.92.39.238","Mozilla/5.0 (Windows NT 10.0; Win64; x64) AppleWebKit/537.36 (KHTML, like Gecko) Chrome/118.0.0.0 Safari/537.36","WebKit","Chrome","118.0.0.0","Windows","10.0","null","es-ES,es;q=0.9","true","null","","null","","","delay_block","","","","","","null","null",""
"","","","","","html-keyboard-response","28","200203","0.0-11.1-2.1-1.1","4","1","2023-10-26 14:38:59","a725c3012b74bf33a1020a98cb69c237","157.92.39.238","Mozilla/5.0 (Windows NT 10.0; Win64; x64) AppleWebKit/537.36 (KHTML, like Gecko) Chrome/118.0.0.0 Safari/537.36","WebKit","Chrome","118.0.0.0","Windows","10.0","null","es-ES,es;q=0.9","true","null","<p id=""stimulus"" style=""font-size:100px;"">37</p>","null","","","tone_number_task_remaining_before_delay","","37","","630","100","null","null",""
"","","","","","html-keyboard-response","29","200528","0.0-11.1-5.1-0.1","4","1","2023-10-26 14:38:59","a725c3012b74bf33a1020a98cb69c237","157.92.39.238","Mozilla/5.0 (Windows NT 10.0; Win64; x64) AppleWebKit/537.36 (KHTML, like Gecko) Chrome/118.0.0.0 Safari/537.36","WebKit","Chrome","118.0.0.0","Windows","10.0","null","es-ES,es;q=0.9","true","322","<p id=""stimulus"" style=""font-size:100px;"">37</p>","j","","","empty_block","","37","","","","null","null",""
"","","","","","html-keyboard-response","30","203226","0.0-13.0-0.0","4","1","2023-10-26 14:38:59","a725c3012b74bf33a1020a98cb69c237","157.92.39.238","Mozilla/5.0 (Windows NT 10.0; Win64; x64) AppleWebKit/537.36 (KHTML, like Gecko) Chrome/118.0.0.0 Safari/537.36","WebKit","Chrome","118.0.0.0","Windows","10.0","null","es-ES,es;q=0.9","true","null","<div style=""font-size:100px;"">X</div>","null","","","fixation","","","","","","","",""
"","","","","","audio-keyboard-response","31","203882","0.0-13.0-1.0","4","1","2023-10-26 14:38:59","a725c3012b74bf33a1020a98cb69c237","157.92.39.238","Mozilla/5.0 (Windows NT 10.0; Win64; x64) AppleWebKit/537.36 (KHTML, like Gecko) Chrome/118.0.0.0 Safari/537.36","WebKit","Chrome","118.0.0.0","Windows","10.0","null","es-ES,es;q=0.9","true","null","tones/880hz_short.mp3","null","","","tone_number_task","500","35","tones/880hz_short.mp3","650","100","null","null",""
"","","","","","html-keyboard-response","32","204481","0.0-13.0-4.0-0.0","4","1","2023-10-26 14:38:59","a725c3012b74bf33a1020a98cb69c237","157.92.39.238","Mozilla/5.0 (Windows NT 10.0; Win64; x64) AppleWebKit/537.36 (KHTML, like Gecko) Chrome/118.0.0.0 Safari/537.36","WebKit","Chrome","118.0.0.0","Windows","10.0","null","es-ES,es;q=0.9","true","594","tones/880hz_short.mp3","j","","","empty_block","","35","","","","null","null",""
"","","","","","html-keyboard-response","33","204965","0.0-13.0-4.0-1.0","4","1","2023-10-26 14:38:59","a725c3012b74bf33a1020a98cb69c237","157.92.39.238","Mozilla/5.0 (Windows NT 10.0; Win64; x64) AppleWebKit/537.36 (KHTML, like Gecko) Chrome/118.0.0.0 Safari/537.36","WebKit","Chrome","118.0.0.0","Windows","10.0","null","es-ES,es;q=0.9","true","480","tones/880hz_short.mp3","a","","","empty_block","","35","","","","null","null",""
"","","","","","html-button-response","34","207238","0.0-13.0-6.0-0.0","4","1","2023-10-26 14:38:59","a725c3012b74bf33a1020a98cb69c237","157.92.39.238","Mozilla/5.0 (Windows NT 10.0; Win64; x64) AppleWebKit/537.36 (KHTML, like Gecko) Chrome/118.0.0.0 Safari/537.36","WebKit","Chrome","118.0.0.0","Windows","10.0","null","es-ES,es;q=0.9","true","2270","
  '<p style=""font-size:24px; color:red;"">Incorrecto</p><p> Respondiste alguno de los estímulos de manera incorrecta.</p><p>Por favor, repasá las instrucciones y seguimos desde donde nos quedamos. </p>
  ","0","","","","","","","","","","",""
"","","","","","external-html","35","217758","0.0-13.0-6.0-1.0","4","1","2023-10-26 14:38:59","a725c3012b74bf33a1020a98cb69c237","157.92.39.238","Mozilla/5.0 (Windows NT 10.0; Win64; x64) AppleWebKit/537.36 (KHTML, like Gecko) Chrome/118.0.0.0 Safari/537.36","WebKit","Chrome","118.0.0.0","Windows","10.0","null","es-ES,es;q=0.9","true","10236","","","","instructions/instructions_B.html","","","","","","","","",""
"","","","","","html-keyboard-response","36","220461","0.0-13.1-0.1","4","1","2023-10-26 14:38:59","a725c3012b74bf33a1020a98cb69c237","157.92.39.238","Mozilla/5.0 (Windows NT 10.0; Win64; x64) AppleWebKit/537.36 (KHTML, like Gecko) Chrome/118.0.0.0 Safari/537.36","WebKit","Chrome","118.0.0.0","Windows","10.0","null","es-ES,es;q=0.9","true","null","<div style=""font-size:100px;"">X</div>","null","","","fixation","","","","","","","",""
"","","","","","audio-keyboard-response","37","221116","0.0-13.1-1.1","4","1","2023-10-26 14:38:59","a725c3012b74bf33a1020a98cb69c237","157.92.39.238","Mozilla/5.0 (Windows NT 10.0; Win64; x64) AppleWebKit/537.36 (KHTML, like Gecko) Chrome/118.0.0.0 Safari/537.36","WebKit","Chrome","118.0.0.0","Windows","10.0","null","es-ES,es;q=0.9","true","null","tones/880hz_short.mp3","null","","","tone_number_task","500","35","tones/880hz_short.mp3","650","100","null","null",""
"","","","","","html-keyboard-response","38","221157","0.0-13.1-4.1-0.1","4","1","2023-10-26 14:38:59","a725c3012b74bf33a1020a98cb69c237","157.92.39.238","Mozilla/5.0 (Windows NT 10.0; Win64; x64) AppleWebKit/537.36 (KHTML, like Gecko) Chrome/118.0.0.0 Safari/537.36","WebKit","Chrome","118.0.0.0","Windows","10.0","null","es-ES,es;q=0.9","true","35","tones/880hz_short.mp3","s","","","empty_block","","35","","","","null","null",""
"","","","","","html-keyboard-response","39","221604","0.0-13.1-4.1-1.1","4","1","2023-10-26 14:38:59","a725c3012b74bf33a1020a98cb69c237","157.92.39.238","Mozilla/5.0 (Windows NT 10.0; Win64; x64) AppleWebKit/537.36 (KHTML, like Gecko) Chrome/118.0.0.0 Safari/537.36","WebKit","Chrome","118.0.0.0","Windows","10.0","null","es-ES,es;q=0.9","true","442","tones/880hz_short.mp3","j","","","empty_block","","35","","","","null","null",""
"","","","","","html-keyboard-response","40","224302","0.0-15.0-0.0","4","1","2023-10-26 14:38:59","a725c3012b74bf33a1020a98cb69c237","157.92.39.238","Mozilla/5.0 (Windows NT 10.0; Win64; x64) AppleWebKit/537.36 (KHTML, like Gecko) Chrome/118.0.0.0 Safari/537.36","WebKit","Chrome","118.0.0.0","Windows","10.0","null","es-ES,es;q=0.9","true","null","<div style=""font-size:100px;"">X</div>","null","","","fixation","","","","","","","",""
"","","","","","audio-keyboard-response","41","224608","0.0-15.0-1.0","4","1","2023-10-26 14:38:59","a725c3012b74bf33a1020a98cb69c237","157.92.39.238","Mozilla/5.0 (Windows NT 10.0; Win64; x64) AppleWebKit/537.36 (KHTML, like Gecko) Chrome/118.0.0.0 Safari/537.36","WebKit","Chrome","118.0.0.0","Windows","10.0","null","es-ES,es;q=0.9","true","null","tones/440hz_short.mp3","null","","","tone_number_task","150","62","tones/440hz_short.mp3","300","100","null","null",""
"","","","","","html-keyboard-response","42","224783","0.0-15.0-4.0-0.0","4","1","2023-10-26 14:38:59","a725c3012b74bf33a1020a98cb69c237","157.92.39.238","Mozilla/5.0 (Windows NT 10.0; Win64; x64) AppleWebKit/537.36 (KHTML, like Gecko) Chrome/118.0.0.0 Safari/537.36","WebKit","Chrome","118.0.0.0","Windows","10.0","null","es-ES,es;q=0.9","true","170","tones/440hz_short.mp3","a","","","empty_block","","62","","","","null","null",""
"","","","","","html-keyboard-response","43","225310","0.0-15.0-4.0-1.0","4","1","2023-10-26 14:38:59","a725c3012b74bf33a1020a98cb69c237","157.92.39.238","Mozilla/5.0 (Windows NT 10.0; Win64; x64) AppleWebKit/537.36 (KHTML, like Gecko) Chrome/118.0.0.0 Safari/537.36","WebKit","Chrome","118.0.0.0","Windows","10.0","null","es-ES,es;q=0.9","true","520","tones/440hz_short.mp3","k","","","empty_block","","62","","","","null","null",""
"","","","","","html-keyboard-response","44","228008","0.0-17.0-0.0","4","1","2023-10-26 14:38:59","a725c3012b74bf33a1020a98cb69c237","157.92.39.238","Mozilla/5.0 (Windows NT 10.0; Win64; x64) AppleWebKit/537.36 (KHTML, like Gecko) Chrome/118.0.0.0 Safari/537.36","WebKit","Chrome","118.0.0.0","Windows","10.0","null","es-ES,es;q=0.9","true","null","<div style=""font-size:100px;"">X</div>","null","","","fixation","","","","","","","",""
"","","","","","audio-keyboard-response","45","228214","0.0-17.0-1.0","4","1","2023-10-26 14:38:59","a725c3012b74bf33a1020a98cb69c237","157.92.39.238","Mozilla/5.0 (Windows NT 10.0; Win64; x64) AppleWebKit/537.36 (KHTML, like Gecko) Chrome/118.0.0.0 Safari/537.36","WebKit","Chrome","118.0.0.0","Windows","10.0","null","es-ES,es;q=0.9","true","null","tones/880hz_short.mp3","null","","","tone_number_task","50","43","tones/880hz_short.mp3","200","100","null","null",""
"","","","","","html-keyboard-response","46","229253","0.0-17.0-4.0-0.0","4","1","2023-10-26 14:38:59","a725c3012b74bf33a1020a98cb69c237","157.92.39.238","Mozilla/5.0 (Windows NT 10.0; Win64; x64) AppleWebKit/537.36 (KHTML, like Gecko) Chrome/118.0.0.0 Safari/537.36","WebKit","Chrome","118.0.0.0","Windows","10.0","null","es-ES,es;q=0.9","true","1034","tones/880hz_short.mp3","a","","","empty_block","","43","","","","null","null",""
"","","","","","html-keyboard-response","47","229494","0.0-17.0-4.0-1.0","4","1","2023-10-26 14:38:59","a725c3012b74bf33a1020a98cb69c237","157.92.39.238","Mozilla/5.0 (Windows NT 10.0; Win64; x64) AppleWebKit/537.36 (KHTML, like Gecko) Chrome/118.0.0.0 Safari/537.36","WebKit","Chrome","118.0.0.0","Windows","10.0","null","es-ES,es;q=0.9","true","236","tones/880hz_short.mp3","j","","","empty_block","","43","","","","null","null",""
"","","","","","html-button-response","48","232982","0.0-17.0-6.0-0.0","4","1","2023-10-26 14:38:59","a725c3012b74bf33a1020a98cb69c237","157.92.39.238","Mozilla/5.0 (Windows NT 10.0; Win64; x64) AppleWebKit/537.36 (KHTML, like Gecko) Chrome/118.0.0.0 Safari/537.36","WebKit","Chrome","118.0.0.0","Windows","10.0","null","es-ES,es;q=0.9","true","3484","
  '<p style=""font-size:24px; color:red;"">Incorrecto</p><p> Respondiste alguno de los estímulos de manera incorrecta.</p><p>Por favor, repasá las instrucciones y seguimos desde donde nos quedamos. </p>
  ","0","","","","","","","","","","",""
"","","","","","external-html","49","236078","0.0-17.0-6.0-1.0","4","1","2023-10-26 14:38:59","a725c3012b74bf33a1020a98cb69c237","157.92.39.238","Mozilla/5.0 (Windows NT 10.0; Win64; x64) AppleWebKit/537.36 (KHTML, like Gecko) Chrome/118.0.0.0 Safari/537.36","WebKit","Chrome","118.0.0.0","Windows","10.0","null","es-ES,es;q=0.9","true","2810","","","","instructions/instructions_B.html","","","","","","","","",""
"","","","","","html-keyboard-response","50","238781","0.0-17.1-0.1","4","1","2023-10-26 14:38:59","a725c3012b74bf33a1020a98cb69c237","157.92.39.238","Mozilla/5.0 (Windows NT 10.0; Win64; x64) AppleWebKit/537.36 (KHTML, like Gecko) Chrome/118.0.0.0 Safari/537.36","WebKit","Chrome","118.0.0.0","Windows","10.0","null","es-ES,es;q=0.9","true","null","<div style=""font-size:100px;"">X</div>","null","","","fixation","","","","","","","",""
"","","","","","audio-keyboard-response","51","238985","0.0-17.1-1.1","4","1","2023-10-26 14:38:59","a725c3012b74bf33a1020a98cb69c237","157.92.39.238","Mozilla/5.0 (Windows NT 10.0; Win64; x64) AppleWebKit/537.36 (KHTML, like Gecko) Chrome/118.0.0.0 Safari/537.36","WebKit","Chrome","118.0.0.0","Windows","10.0","null","es-ES,es;q=0.9","true","null","tones/880hz_short.mp3","null","","","tone_number_task","50","43","tones/880hz_short.mp3","200","100","null","null",""
"","","","","","html-keyboard-response","52","239261","0.0-17.1-4.1-0.1","4","1","2023-10-26 14:38:59","a725c3012b74bf33a1020a98cb69c237","157.92.39.238","Mozilla/5.0 (Windows NT 10.0; Win64; x64) AppleWebKit/537.36 (KHTML, like Gecko) Chrome/118.0.0.0 Safari/537.36","WebKit","Chrome","118.0.0.0","Windows","10.0","null","es-ES,es;q=0.9","true","269","tones/880hz_short.mp3","j","","","empty_block","","43","","","","null","null",""
"","","","","","html-keyboard-response","53","242449","0.0-17.1-4.1-1.1","4","1","2023-10-26 14:38:59","a725c3012b74bf33a1020a98cb69c237","157.92.39.238","Mozilla/5.0 (Windows NT 10.0; Win64; x64) AppleWebKit/537.36 (KHTML, like Gecko) Chrome/118.0.0.0 Safari/537.36","WebKit","Chrome","118.0.0.0","Windows","10.0","null","es-ES,es;q=0.9","true","3184","tones/880hz_short.mp3","s","","","empty_block","","43","","","","null","null",""
"","","","","","html-button-response","54","249414","0.0-19.0","4","1","2023-10-26 14:38:59","a725c3012b74bf33a1020a98cb69c237","157.92.39.238","Mozilla/5.0 (Windows NT 10.0; Win64; x64) AppleWebKit/537.36 (KHTML, like Gecko) Chrome/118.0.0.0 Safari/537.36","WebKit","Chrome","118.0.0.0","Windows","10.0","null","es-ES,es;q=0.9","true","6960","
  <h1> Muy bien </h1>
  <p> Ahora, en vez de ser presentados en dígitos, los números vendrán escritos en palabras. </p>
  <p> Por ejemplo, en vez de 44 te aparecerá ""cuarenta y cuatro"". </p>
  ","0","","","","","","","","","","",""
"","","","","","html-keyboard-response","55","252111","0.0-20.0-0.0","4","1","2023-10-26 14:38:59","a725c3012b74bf33a1020a98cb69c237","157.92.39.238","Mozilla/5.0 (Windows NT 10.0; Win64; x64) AppleWebKit/537.36 (KHTML, like Gecko) Chrome/118.0.0.0 Safari/537.36","WebKit","Chrome","118.0.0.0","Windows","10.0","null","es-ES,es;q=0.9","true","null","<div style=""font-size:100px;"">X</div>","null","","","fixation","","","","","","","",""
"","","","","","audio-keyboard-response","56","252829","0.0-20.0-1.0","4","1","2023-10-26 14:38:59","a725c3012b74bf33a1020a98cb69c237","157.92.39.238","Mozilla/5.0 (Windows NT 10.0; Win64; x64) AppleWebKit/537.36 (KHTML, like Gecko) Chrome/118.0.0.0 Safari/537.36","WebKit","Chrome","118.0.0.0","Windows","10.0","null","es-ES,es;q=0.9","true","709","tones/880hz_short.mp3","s","","","tone_number_task","1000","veinticinco","tones/880hz_short.mp3","1150","60","null","null",""
"","","","","","html-keyboard-response","57","253126","0.0-20.0-2.0-0.0","4","1","2023-10-26 14:38:59","a725c3012b74bf33a1020a98cb69c237","157.92.39.238","Mozilla/5.0 (Windows NT 10.0; Win64; x64) AppleWebKit/537.36 (KHTML, like Gecko) Chrome/118.0.0.0 Safari/537.36","WebKit","Chrome","118.0.0.0","Windows","10.0","null","es-ES,es;q=0.9","true","null","","null","","","delay_block","","","","","","null","null",""
"","","","","","html-keyboard-response","58","253284","0.0-20.0-2.0-1.0","4","1","2023-10-26 14:38:59","a725c3012b74bf33a1020a98cb69c237","157.92.39.238","Mozilla/5.0 (Windows NT 10.0; Win64; x64) AppleWebKit/537.36 (KHTML, like Gecko) Chrome/118.0.0.0 Safari/537.36","WebKit","Chrome","118.0.0.0","Windows","10.0","null","es-ES,es;q=0.9","true","null","<p id=""stimulus"" style=""font-size:60px;"">veinticinco</p>","null","","","tone_number_task_remaining_before_delay","","veinticinco","","441","60","null","null",""
"","","","","","html-keyboard-response","59","254001","0.0-20.0-5.0-0.0","4","1","2023-10-26 14:38:59","a725c3012b74bf33a1020a98cb69c237","157.92.39.238","Mozilla/5.0 (Windows NT 10.0; Win64; x64) AppleWebKit/537.36 (KHTML, like Gecko) Chrome/118.0.0.0 Safari/537.36","WebKit","Chrome","118.0.0.0","Windows","10.0","null","es-ES,es;q=0.9","true","711","<p id=""stimulus"" style=""font-size:60px;"">veinticinco</p>","j","","","empty_block","","veinticinco","","","","null","null",""
"","","","","","html-button-response","60","263567","0.0-22.0","4","1","2023-10-26 14:38:59","a725c3012b74bf33a1020a98cb69c237","157.92.39.238","Mozilla/5.0 (Windows NT 10.0; Win64; x64) AppleWebKit/537.36 (KHTML, like Gecko) Chrome/118.0.0.0 Safari/537.36","WebKit","Chrome","118.0.0.0","Windows","10.0","null","es-ES,es;q=0.9","true","9560","
  <h1> Fin del Entrenamiento </h1>
  <p> ¡Felicitaciones, terminaste el entrenamiento! Ahora vamos a comenzar con el experimento. </p>
  <p> Es importante tener en cuenta que consta de cuatro bloques.</p>
  <p> Podés aprovechar los momentos entre bloques para tomar un breve descanso o tomar agua entre cada uno</p>
  <p> Recordá que tenés que responder lo más rápido que puedas, pero sin equivocarte. </p>
  ","0","","","","","","","","","","",""
"","","","","","external-html","61","269878","0.0-23.0","4","1","2023-10-26 14:38:59","a725c3012b74bf33a1020a98cb69c237","157.92.39.238","Mozilla/5.0 (Windows NT 10.0; Win64; x64) AppleWebKit/537.36 (KHTML, like Gecko) Chrome/118.0.0.0 Safari/537.36","WebKit","Chrome","118.0.0.0","Windows","10.0","null","es-ES,es;q=0.9","true","6022","","","","instructions/instructions_digits_first.html","","","","","","","","",""
"","","","","","call-function","62","269886","0.0-24.0","4","1","2023-10-26 14:38:59","a725c3012b74bf33a1020a98cb69c237","157.92.39.238","Mozilla/5.0 (Windows NT 10.0; Win64; x64) AppleWebKit/537.36 (KHTML, like Gecko) Chrome/118.0.0.0 Safari/537.36","WebKit","Chrome","118.0.0.0","Windows","10.0","null","es-ES,es;q=0.9","true","","","","","","","","","","","","","",""
"","","","","","html-keyboard-response","63","272583","0.0-25.0","4","1","2023-10-26 14:38:59","a725c3012b74bf33a1020a98cb69c237","157.92.39.238","Mozilla/5.0 (Windows NT 10.0; Win64; x64) AppleWebKit/537.36 (KHTML, like Gecko) Chrome/118.0.0.0 Safari/537.36","WebKit","Chrome","118.0.0.0","Windows","10.0","null","es-ES,es;q=0.9","true","null","<div style=""font-size:100px;"">X</div>","null","","","fixation","","","","","","","",""
"","","","","","audio-keyboard-response","64","273178","0.0-26.0","4","1","2023-10-26 14:38:59","a725c3012b74bf33a1020a98cb69c237","157.92.39.238","Mozilla/5.0 (Windows NT 10.0; Win64; x64) AppleWebKit/537.36 (KHTML, like Gecko) Chrome/118.0.0.0 Safari/537.36","WebKit","Chrome","118.0.0.0","Windows","10.0","null","es-ES,es;q=0.9","true","589","tones/440hz_short.mp3","a","","","tone_number_task","992.5","37","tones/440hz_short.mp3","1142.5","100","0","0",""
"","","","","","html-keyboard-response","65","273588","0.0-27.0-0.0","4","1","2023-10-26 14:38:59","a725c3012b74bf33a1020a98cb69c237","157.92.39.238","Mozilla/5.0 (Windows NT 10.0; Win64; x64) AppleWebKit/537.36 (KHTML, like Gecko) Chrome/118.0.0.0 Safari/537.36","WebKit","Chrome","118.0.0.0","Windows","10.0","null","es-ES,es;q=0.9","true","null","","null","","","delay_block","","","","","","0","0",""
"","","","","","html-keyboard-response","66","273746","0.0-27.0-1.0","4","1","2023-10-26 14:38:59","a725c3012b74bf33a1020a98cb69c237","157.92.39.238","Mozilla/5.0 (Windows NT 10.0; Win64; x64) AppleWebKit/537.36 (KHTML, like Gecko) Chrome/118.0.0.0 Safari/537.36","WebKit","Chrome","118.0.0.0","Windows","10.0","null","es-ES,es;q=0.9","true","null","<p id=""stimulus"" style=""font-size:100px;"">37</p>","null","","","tone_number_task_remaining_before_delay","","37","","553.5","100","0","0",""
"","","","","","html-keyboard-response","67","274062","0.0-30.0-0.0","4","1","2023-10-26 14:38:59","a725c3012b74bf33a1020a98cb69c237","157.92.39.238","Mozilla/5.0 (Windows NT 10.0; Win64; x64) AppleWebKit/537.36 (KHTML, like Gecko) Chrome/118.0.0.0 Safari/537.36","WebKit","Chrome","118.0.0.0","Windows","10.0","null","es-ES,es;q=0.9","true","309","<p id=""stimulus"" style=""font-size:100px;"">37</p>","j","","","empty_block","","37","","","","0","0",""
"","","","","","html-keyboard-response","68","276762","0.0-31.0","4","1","2023-10-26 14:38:59","a725c3012b74bf33a1020a98cb69c237","157.92.39.238","Mozilla/5.0 (Windows NT 10.0; Win64; x64) AppleWebKit/537.36 (KHTML, like Gecko) Chrome/118.0.0.0 Safari/537.36","WebKit","Chrome","118.0.0.0","Windows","10.0","null","es-ES,es;q=0.9","true","null","<div style=""font-size:100px;"">X</div>","null","","","fixation","","","","","","","",""
"","","","","","audio-keyboard-response","69","277408","0.0-32.0","4","1","2023-10-26 14:38:59","a725c3012b74bf33a1020a98cb69c237","157.92.39.238","Mozilla/5.0 (Windows NT 10.0; Win64; x64) AppleWebKit/537.36 (KHTML, like Gecko) Chrome/118.0.0.0 Safari/537.36","WebKit","Chrome","118.0.0.0","Windows","10.0","null","es-ES,es;q=0.9","true","640","tones/880hz_short.mp3","s","","","tone_number_task","1025","43","tones/880hz_short.mp3","1175","100","0","1",""
"","","","","","html-keyboard-response","70","277800","0.0-33.0-0.0","4","1","2023-10-26 14:38:59","a725c3012b74bf33a1020a98cb69c237","157.92.39.238","Mozilla/5.0 (Windows NT 10.0; Win64; x64) AppleWebKit/537.36 (KHTML, like Gecko) Chrome/118.0.0.0 Safari/537.36","WebKit","Chrome","118.0.0.0","Windows","10.0","null","es-ES,es;q=0.9","true","null","","null","","","delay_block","","","","","","0","1",""
"","","","","","html-keyboard-response","71","277956","0.0-33.0-1.0","4","1","2023-10-26 14:38:59","a725c3012b74bf33a1020a98cb69c237","157.92.39.238","Mozilla/5.0 (Windows NT 10.0; Win64; x64) AppleWebKit/537.36 (KHTML, like Gecko) Chrome/118.0.0.0 Safari/537.36","WebKit","Chrome","118.0.0.0","Windows","10.0","null","es-ES,es;q=0.9","true","null","<p id=""stimulus"" style=""font-size:100px;"">43</p>","null","","","tone_number_task_remaining_before_delay","","43","","535","100","0","1",""
"","","","","","html-keyboard-response","72","278260","0.0-36.0-0.0","4","1","2023-10-26 14:38:59","a725c3012b74bf33a1020a98cb69c237","157.92.39.238","Mozilla/5.0 (Windows NT 10.0; Win64; x64) AppleWebKit/537.36 (KHTML, like Gecko) Chrome/118.0.0.0 Safari/537.36","WebKit","Chrome","118.0.0.0","Windows","10.0","null","es-ES,es;q=0.9","true","298","<p id=""stimulus"" style=""font-size:100px;"">43</p>","j","","","empty_block","","43","","","","0","1",""
"","","","","","html-keyboard-response","73","280960","0.0-37.0","4","1","2023-10-26 14:38:59","a725c3012b74bf33a1020a98cb69c237","157.92.39.238","Mozilla/5.0 (Windows NT 10.0; Win64; x64) AppleWebKit/537.36 (KHTML, like Gecko) Chrome/118.0.0.0 Safari/537.36","WebKit","Chrome","118.0.0.0","Windows","10.0","null","es-ES,es;q=0.9","true","null","<div style=""font-size:100px;"">X</div>","null","","","fixation","","","","","","","",""
"","","","","","audio-keyboard-response","74","281531","0.0-38.0","4","1","2023-10-26 14:38:59","a725c3012b74bf33a1020a98cb69c237","157.92.39.238","Mozilla/5.0 (Windows NT 10.0; Win64; x64) AppleWebKit/537.36 (KHTML, like Gecko) Chrome/118.0.0.0 Safari/537.36","WebKit","Chrome","118.0.0.0","Windows","10.0","null","es-ES,es;q=0.9","true","568","tones/880hz_short.mp3","s","","","tone_number_task","992.5","44","tones/880hz_short.mp3","1142.5","100","0","2",""
"","","","","","html-keyboard-response","75","281961","0.0-39.0-0.0","4","1","2023-10-26 14:38:59","a725c3012b74bf33a1020a98cb69c237","157.92.39.238","Mozilla/5.0 (Windows NT 10.0; Win64; x64) AppleWebKit/537.36 (KHTML, like Gecko) Chrome/118.0.0.0 Safari/537.36","WebKit","Chrome","118.0.0.0","Windows","10.0","null","es-ES,es;q=0.9","true","null","","null","","","delay_block","","","","","","0","2",""
"","","","","","html-keyboard-response","76","282120","0.0-39.0-1.0","4","1","2023-10-26 14:38:59","a725c3012b74bf33a1020a98cb69c237","157.92.39.238","Mozilla/5.0 (Windows NT 10.0; Win64; x64) AppleWebKit/537.36 (KHTML, like Gecko) Chrome/118.0.0.0 Safari/537.36","WebKit","Chrome","118.0.0.0","Windows","10.0","null","es-ES,es;q=0.9","true","null","<p id=""stimulus"" style=""font-size:100px;"">44</p>","null","","","tone_number_task_remaining_before_delay","","44","","574.5","100","0","2",""
"","","","","","html-keyboard-response","77","282453","0.0-42.0-0.0","4","1","2023-10-26 14:38:59","a725c3012b74bf33a1020a98cb69c237","157.92.39.238","Mozilla/5.0 (Windows NT 10.0; Win64; x64) AppleWebKit/537.36 (KHTML, like Gecko) Chrome/118.0.0.0 Safari/537.36","WebKit","Chrome","118.0.0.0","Windows","10.0","null","es-ES,es;q=0.9","true","327","<p id=""stimulus"" style=""font-size:100px;"">44</p>","j","","","empty_block","","44","","","","0","2",""
"","","","","","html-keyboard-response","78","285154","0.0-43.0","4","1","2023-10-26 14:38:59","a725c3012b74bf33a1020a98cb69c237","157.92.39.238","Mozilla/5.0 (Windows NT 10.0; Win64; x64) AppleWebKit/537.36 (KHTML, like Gecko) Chrome/118.0.0.0 Safari/537.36","WebKit","Chrome","118.0.0.0","Windows","10.0","null","es-ES,es;q=0.9","true","null","<div style=""font-size:100px;"">X</div>","null","","","fixation","","","","","","","",""
"","","","","","audio-keyboard-response","79","285311","0.0-44.0","4","1","2023-10-26 14:38:59","a725c3012b74bf33a1020a98cb69c237","157.92.39.238","Mozilla/5.0 (Windows NT 10.0; Win64; x64) AppleWebKit/537.36 (KHTML, like Gecko) Chrome/118.0.0.0 Safari/537.36","WebKit","Chrome","118.0.0.0","Windows","10.0","null","es-ES,es;q=0.9","true","null","tones/440hz_short.mp3","null","","","tone_number_task","0","26","tones/440hz_short.mp3","150","100","0","3",""
"","","","","","html-keyboard-response","80","285960","0.0-47.0-0.0","4","1","2023-10-26 14:38:59","a725c3012b74bf33a1020a98cb69c237","157.92.39.238","Mozilla/5.0 (Windows NT 10.0; Win64; x64) AppleWebKit/537.36 (KHTML, like Gecko) Chrome/118.0.0.0 Safari/537.36","WebKit","Chrome","118.0.0.0","Windows","10.0","null","es-ES,es;q=0.9","true","643","tones/440hz_short.mp3","a","","","empty_block","","26","","","","0","3",""
"","","","","","html-keyboard-response","81","287167","0.0-47.0-1.0","4","1","2023-10-26 14:38:59","a725c3012b74bf33a1020a98cb69c237","157.92.39.238","Mozilla/5.0 (Windows NT 10.0; Win64; x64) AppleWebKit/537.36 (KHTML, like Gecko) Chrome/118.0.0.0 Safari/537.36","WebKit","Chrome","118.0.0.0","Windows","10.0","null","es-ES,es;q=0.9","true","null","tones/440hz_short.mp3","null","","","empty_block","","26","","","","0","3",""
"","","","","","html-keyboard-response","82","289867","0.0-49.0","4","1","2023-10-26 14:38:59","a725c3012b74bf33a1020a98cb69c237","157.92.39.238","Mozilla/5.0 (Windows NT 10.0; Win64; x64) AppleWebKit/537.36 (KHTML, like Gecko) Chrome/118.0.0.0 Safari/537.36","WebKit","Chrome","118.0.0.0","Windows","10.0","null","es-ES,es;q=0.9","true","null","<div style=""font-size:100px;"">X</div>","null","","","fixation","","","","","","","",""
"","","","","","audio-keyboard-response","83","290023","0.0-50.0","4","1","2023-10-26 14:38:59","a725c3012b74bf33a1020a98cb69c237","157.92.39.238","Mozilla/5.0 (Windows NT 10.0; Win64; x64) AppleWebKit/537.36 (KHTML, like Gecko) Chrome/118.0.0.0 Safari/537.36","WebKit","Chrome","118.0.0.0","Windows","10.0","null","es-ES,es;q=0.9","true","null","tones/440hz_short.mp3","null","","","tone_number_task","0","60","tones/440hz_short.mp3","150","100","0","4",""
"","","","","","html-keyboard-response","84","290879","0.0-53.0-0.0","4","1","2023-10-26 14:38:59","a725c3012b74bf33a1020a98cb69c237","157.92.39.238","Mozilla/5.0 (Windows NT 10.0; Win64; x64) AppleWebKit/537.36 (KHTML, like Gecko) Chrome/118.0.0.0 Safari/537.36","WebKit","Chrome","118.0.0.0","Windows","10.0","null","es-ES,es;q=0.9","true","848","tones/440hz_short.mp3","a","","","empty_block","","60","","","","0","4",""
"","","","","","html-keyboard-response","85","291346","0.0-53.0-1.0","4","1","2023-10-26 14:38:59","a725c3012b74bf33a1020a98cb69c237","157.92.39.238","Mozilla/5.0 (Windows NT 10.0; Win64; x64) AppleWebKit/537.36 (KHTML, like Gecko) Chrome/118.0.0.0 Safari/537.36","WebKit","Chrome","118.0.0.0","Windows","10.0","null","es-ES,es;q=0.9","true","460","tones/440hz_short.mp3","k","","","empty_block","","60","","","","0","4",""
"","","","","","html-keyboard-response","86","294048","0.0-55.0","4","1","2023-10-26 14:38:59","a725c3012b74bf33a1020a98cb69c237","157.92.39.238","Mozilla/5.0 (Windows NT 10.0; Win64; x64) AppleWebKit/537.36 (KHTML, like Gecko) Chrome/118.0.0.0 Safari/537.36","WebKit","Chrome","118.0.0.0","Windows","10.0","null","es-ES,es;q=0.9","true","null","<div style=""font-size:100px;"">X</div>","null","","","fixation","","","","","","","",""
"","","","","","audio-keyboard-response","87","294631","0.0-56.0","4","1","2023-10-26 14:38:59","a725c3012b74bf33a1020a98cb69c237","157.92.39.238","Mozilla/5.0 (Windows NT 10.0; Win64; x64) AppleWebKit/537.36 (KHTML, like Gecko) Chrome/118.0.0.0 Safari/537.36","WebKit","Chrome","118.0.0.0","Windows","10.0","null","es-ES,es;q=0.9","true","581","tones/880hz_short.mp3","s","","","tone_number_task","1025","46","tones/880hz_short.mp3","1175","100","0","5",""
"","","","","","html-keyboard-response","88","295087","0.0-57.0-0.0","4","1","2023-10-26 14:38:59","a725c3012b74bf33a1020a98cb69c237","157.92.39.238","Mozilla/5.0 (Windows NT 10.0; Win64; x64) AppleWebKit/537.36 (KHTML, like Gecko) Chrome/118.0.0.0 Safari/537.36","WebKit","Chrome","118.0.0.0","Windows","10.0","null","es-ES,es;q=0.9","true","null","","null","","","delay_block","","","","","","0","5",""
"","","","","","html-keyboard-response","89","295245","0.0-57.0-1.0","4","1","2023-10-26 14:38:59","a725c3012b74bf33a1020a98cb69c237","157.92.39.238","Mozilla/5.0 (Windows NT 10.0; Win64; x64) AppleWebKit/537.36 (KHTML, like Gecko) Chrome/118.0.0.0 Safari/537.36","WebKit","Chrome","118.0.0.0","Windows","10.0","null","es-ES,es;q=0.9","true","null","<p id=""stimulus"" style=""font-size:100px;"">46</p>","null","","","tone_number_task_remaining_before_delay","","46","","594","100","0","5",""
"","","","","","html-keyboard-response","90","295726","0.0-60.0-0.0","4","1","2023-10-26 14:38:59","a725c3012b74bf33a1020a98cb69c237","157.92.39.238","Mozilla/5.0 (Windows NT 10.0; Win64; x64) AppleWebKit/537.36 (KHTML, like Gecko) Chrome/118.0.0.0 Safari/537.36","WebKit","Chrome","118.0.0.0","Windows","10.0","null","es-ES,es;q=0.9","true","473","<p id=""stimulus"" style=""font-size:100px;"">46</p>","j","","","empty_block","","46","","","","0","5",""
"","","","","","html-keyboard-response","91","298441","0.0-61.0","4","1","2023-10-26 14:38:59","a725c3012b74bf33a1020a98cb69c237","157.92.39.238","Mozilla/5.0 (Windows NT 10.0; Win64; x64) AppleWebKit/537.36 (KHTML, like Gecko) Chrome/118.0.0.0 Safari/537.36","WebKit","Chrome","118.0.0.0","Windows","10.0","null","es-ES,es;q=0.9","true","null","<div style=""font-size:100px;"">X</div>","null","","","fixation","","","","","","","",""
"","","","","","audio-keyboard-response","92","298600","0.0-62.0","4","1","2023-10-26 14:38:59","a725c3012b74bf33a1020a98cb69c237","157.92.39.238","Mozilla/5.0 (Windows NT 10.0; Win64; x64) AppleWebKit/537.36 (KHTML, like Gecko) Chrome/118.0.0.0 Safari/537.36","WebKit","Chrome","118.0.0.0","Windows","10.0","null","es-ES,es;q=0.9","true","null","tones/440hz_short.mp3","null","","","tone_number_task","0","66","tones/440hz_short.mp3","150","100","0","6",""
"","","","","","html-keyboard-response","93","299294","0.0-65.0-0.0","4","1","2023-10-26 14:38:59","a725c3012b74bf33a1020a98cb69c237","157.92.39.238","Mozilla/5.0 (Windows NT 10.0; Win64; x64) AppleWebKit/537.36 (KHTML, like Gecko) Chrome/118.0.0.0 Safari/537.36","WebKit","Chrome","118.0.0.0","Windows","10.0","null","es-ES,es;q=0.9","true","687","tones/440hz_short.mp3","a","","","empty_block","","66","","","","0","6",""
"","","","","","html-keyboard-response","94","299675","0.0-65.0-1.0","4","1","2023-10-26 14:38:59","a725c3012b74bf33a1020a98cb69c237","157.92.39.238","Mozilla/5.0 (Windows NT 10.0; Win64; x64) AppleWebKit/537.36 (KHTML, like Gecko) Chrome/118.0.0.0 Safari/537.36","WebKit","Chrome","118.0.0.0","Windows","10.0","null","es-ES,es;q=0.9","true","374","tones/440hz_short.mp3","k","","","empty_block","","66","","","","0","6",""
"","","","","","html-keyboard-response","95","302377","0.0-67.0","4","1","2023-10-26 14:38:59","a725c3012b74bf33a1020a98cb69c237","157.92.39.238","Mozilla/5.0 (Windows NT 10.0; Win64; x64) AppleWebKit/537.36 (KHTML, like Gecko) Chrome/118.0.0.0 Safari/537.36","WebKit","Chrome","118.0.0.0","Windows","10.0","null","es-ES,es;q=0.9","true","null","<div style=""font-size:100px;"">X</div>","null","","","fixation","","","","","","","",""
"","","","","","audio-keyboard-response","96","302536","0.0-68.0","4","1","2023-10-26 14:38:59","a725c3012b74bf33a1020a98cb69c237","157.92.39.238","Mozilla/5.0 (Windows NT 10.0; Win64; x64) AppleWebKit/537.36 (KHTML, like Gecko) Chrome/118.0.0.0 Safari/537.36","WebKit","Chrome","118.0.0.0","Windows","10.0","null","es-ES,es;q=0.9","true","null","tones/440hz_short.mp3","null","","","tone_number_task","0","39","tones/440hz_short.mp3","150","100","0","7",""
"","","","","","html-keyboard-response","97","303221","0.0-71.0-0.0","4","1","2023-10-26 14:38:59","a725c3012b74bf33a1020a98cb69c237","157.92.39.238","Mozilla/5.0 (Windows NT 10.0; Win64; x64) AppleWebKit/537.36 (KHTML, like Gecko) Chrome/118.0.0.0 Safari/537.36","WebKit","Chrome","118.0.0.0","Windows","10.0","null","es-ES,es;q=0.9","true","676","tones/440hz_short.mp3","a","","","empty_block","","39","","","","0","7",""
"","","","","","html-keyboard-response","98","303557","0.0-71.0-1.0","4","1","2023-10-26 14:38:59","a725c3012b74bf33a1020a98cb69c237","157.92.39.238","Mozilla/5.0 (Windows NT 10.0; Win64; x64) AppleWebKit/537.36 (KHTML, like Gecko) Chrome/118.0.0.0 Safari/537.36","WebKit","Chrome","118.0.0.0","Windows","10.0","null","es-ES,es;q=0.9","true","329","tones/440hz_short.mp3","j","","","empty_block","","39","","","","0","7",""
"","","","","","html-keyboard-response","99","306257","0.0-73.0","4","1","2023-10-26 14:38:59","a725c3012b74bf33a1020a98cb69c237","157.92.39.238","Mozilla/5.0 (Windows NT 10.0; Win64; x64) AppleWebKit/537.36 (KHTML, like Gecko) Chrome/118.0.0.0 Safari/537.36","WebKit","Chrome","118.0.0.0","Windows","10.0","null","es-ES,es;q=0.9","true","null","<div style=""font-size:100px;"">X</div>","null","","","fixation","","","","","","","",""
"","","","","","audio-keyboard-response","100","306516","0.0-74.0","4","1","2023-10-26 14:38:59","a725c3012b74bf33a1020a98cb69c237","157.92.39.238","Mozilla/5.0 (Windows NT 10.0; Win64; x64) AppleWebKit/537.36 (KHTML, like Gecko) Chrome/118.0.0.0 Safari/537.36","WebKit","Chrome","118.0.0.0","Windows","10.0","null","es-ES,es;q=0.9","true","null","tones/880hz_short.mp3","null","","","tone_number_task","102.5","40","tones/880hz_short.mp3","252.5","100","0","8",""
"","","","","","html-keyboard-response","101","306944","0.0-77.0-0.0","4","1","2023-10-26 14:38:59","a725c3012b74bf33a1020a98cb69c237","157.92.39.238","Mozilla/5.0 (Windows NT 10.0; Win64; x64) AppleWebKit/537.36 (KHTML, like Gecko) Chrome/118.0.0.0 Safari/537.36","WebKit","Chrome","118.0.0.0","Windows","10.0","null","es-ES,es;q=0.9","true","419","tones/880hz_short.mp3","s","","","empty_block","","40","","","","0","8",""
"","","","","","html-keyboard-response","102","307424","0.0-77.0-1.0","4","1","2023-10-26 14:38:59","a725c3012b74bf33a1020a98cb69c237","157.92.39.238","Mozilla/5.0 (Windows NT 10.0; Win64; x64) AppleWebKit/537.36 (KHTML, like Gecko) Chrome/118.0.0.0 Safari/537.36","WebKit","Chrome","118.0.0.0","Windows","10.0","null","es-ES,es;q=0.9","true","471","tones/880hz_short.mp3","j","","","empty_block","","40","","","","0","8",""
"","","","","","html-keyboard-response","103","310125","0.0-79.0","4","1","2023-10-26 14:38:59","a725c3012b74bf33a1020a98cb69c237","157.92.39.238","Mozilla/5.0 (Windows NT 10.0; Win64; x64) AppleWebKit/537.36 (KHTML, like Gecko) Chrome/118.0.0.0 Safari/537.36","WebKit","Chrome","118.0.0.0","Windows","10.0","null","es-ES,es;q=0.9","true","null","<div style=""font-size:100px;"">X</div>","null","","","fixation","","","","","","","",""
"","","","","","audio-keyboard-response","104","310951","0.0-80.0","4","1","2023-10-26 14:38:59","a725c3012b74bf33a1020a98cb69c237","157.92.39.238","Mozilla/5.0 (Windows NT 10.0; Win64; x64) AppleWebKit/537.36 (KHTML, like Gecko) Chrome/118.0.0.0 Safari/537.36","WebKit","Chrome","118.0.0.0","Windows","10.0","null","es-ES,es;q=0.9","true","821","tones/880hz_short.mp3","s","","","tone_number_task","1025","54","tones/880hz_short.mp3","1175","100","0","9",""
"","","","","","html-keyboard-response","105","311161","0.0-81.0-0.0","4","1","2023-10-26 14:38:59","a725c3012b74bf33a1020a98cb69c237","157.92.39.238","Mozilla/5.0 (Windows NT 10.0; Win64; x64) AppleWebKit/537.36 (KHTML, like Gecko) Chrome/118.0.0.0 Safari/537.36","WebKit","Chrome","118.0.0.0","Windows","10.0","null","es-ES,es;q=0.9","true","null","","null","","","delay_block","","","","","","0","9",""
"","","","","","html-keyboard-response","106","311321","0.0-81.0-1.0","4","1","2023-10-26 14:38:59","a725c3012b74bf33a1020a98cb69c237","157.92.39.238","Mozilla/5.0 (Windows NT 10.0; Win64; x64) AppleWebKit/537.36 (KHTML, like Gecko) Chrome/118.0.0.0 Safari/537.36","WebKit","Chrome","118.0.0.0","Windows","10.0","null","es-ES,es;q=0.9","true","null","<p id=""stimulus"" style=""font-size:100px;"">54</p>","null","","","tone_number_task_remaining_before_delay","","54","","354","100","0","9",""
"","","","","","html-keyboard-response","107","311725","0.0-84.0-0.0","4","1","2023-10-26 14:38:59","a725c3012b74bf33a1020a98cb69c237","157.92.39.238","Mozilla/5.0 (Windows NT 10.0; Win64; x64) AppleWebKit/537.36 (KHTML, like Gecko) Chrome/118.0.0.0 Safari/537.36","WebKit","Chrome","118.0.0.0","Windows","10.0","null","es-ES,es;q=0.9","true","397","<p id=""stimulus"" style=""font-size:100px;"">54</p>","k","","","empty_block","","54","","","","0","9",""
"","","","","","html-keyboard-response","108","314427","0.0-85.0","4","1","2023-10-26 14:38:59","a725c3012b74bf33a1020a98cb69c237","157.92.39.238","Mozilla/5.0 (Windows NT 10.0; Win64; x64) AppleWebKit/537.36 (KHTML, like Gecko) Chrome/118.0.0.0 Safari/537.36","WebKit","Chrome","118.0.0.0","Windows","10.0","null","es-ES,es;q=0.9","true","null","<div style=""font-size:100px;"">X</div>","null","","","fixation","","","","","","","",""
"","","","","","audio-keyboard-response","109","314690","0.0-86.0","4","1","2023-10-26 14:38:59","a725c3012b74bf33a1020a98cb69c237","157.92.39.238","Mozilla/5.0 (Windows NT 10.0; Win64; x64) AppleWebKit/537.36 (KHTML, like Gecko) Chrome/118.0.0.0 Safari/537.36","WebKit","Chrome","118.0.0.0","Windows","10.0","null","es-ES,es;q=0.9","true","null","tones/440hz_short.mp3","null","","","tone_number_task","102.5","40","tones/440hz_short.mp3","252.5","100","0","10",""
"","","","","","html-keyboard-response","110","315521","0.0-89.0-0.0","4","1","2023-10-26 14:38:59","a725c3012b74bf33a1020a98cb69c237","157.92.39.238","Mozilla/5.0 (Windows NT 10.0; Win64; x64) AppleWebKit/537.36 (KHTML, like Gecko) Chrome/118.0.0.0 Safari/537.36","WebKit","Chrome","118.0.0.0","Windows","10.0","null","es-ES,es;q=0.9","true","821","tones/440hz_short.mp3","a","","","empty_block","","40","","","","0","10",""
"","","","","","html-keyboard-response","111","315812","0.0-89.0-1.0","4","1","2023-10-26 14:38:59","a725c3012b74bf33a1020a98cb69c237","157.92.39.238","Mozilla/5.0 (Windows NT 10.0; Win64; x64) AppleWebKit/537.36 (KHTML, like Gecko) Chrome/118.0.0.0 Safari/537.36","WebKit","Chrome","118.0.0.0","Windows","10.0","null","es-ES,es;q=0.9","true","283","tones/440hz_short.mp3","j","","","empty_block","","40","","","","0","10",""
"","","","","","html-keyboard-response","112","318513","0.0-91.0","4","1","2023-10-26 14:38:59","a725c3012b74bf33a1020a98cb69c237","157.92.39.238","Mozilla/5.0 (Windows NT 10.0; Win64; x64) AppleWebKit/537.36 (KHTML, like Gecko) Chrome/118.0.0.0 Safari/537.36","WebKit","Chrome","118.0.0.0","Windows","10.0","null","es-ES,es;q=0.9","true","null","<div style=""font-size:100px;"">X</div>","null","","","fixation","","","","","","","",""
"","","","","","audio-keyboard-response","113","318773","0.0-92.0","4","1","2023-10-26 14:38:59","a725c3012b74bf33a1020a98cb69c237","157.92.39.238","Mozilla/5.0 (Windows NT 10.0; Win64; x64) AppleWebKit/537.36 (KHTML, like Gecko) Chrome/118.0.0.0 Safari/537.36","WebKit","Chrome","118.0.0.0","Windows","10.0","null","es-ES,es;q=0.9","true","null","tones/880hz_short.mp3","null","","","tone_number_task","102.5","37","tones/880hz_short.mp3","252.5","100","0","11",""
"","","","","","html-keyboard-response","114","319294","0.0-95.0-0.0","4","1","2023-10-26 14:38:59","a725c3012b74bf33a1020a98cb69c237","157.92.39.238","Mozilla/5.0 (Windows NT 10.0; Win64; x64) AppleWebKit/537.36 (KHTML, like Gecko) Chrome/118.0.0.0 Safari/537.36","WebKit","Chrome","118.0.0.0","Windows","10.0","null","es-ES,es;q=0.9","true","512","tones/880hz_short.mp3","s","","","empty_block","","37","","","","0","11",""
"","","","","","html-keyboard-response","115","319659","0.0-95.0-1.0","4","1","2023-10-26 14:38:59","a725c3012b74bf33a1020a98cb69c237","157.92.39.238","Mozilla/5.0 (Windows NT 10.0; Win64; x64) AppleWebKit/537.36 (KHTML, like Gecko) Chrome/118.0.0.0 Safari/537.36","WebKit","Chrome","118.0.0.0","Windows","10.0","null","es-ES,es;q=0.9","true","356","tones/880hz_short.mp3","j","","","empty_block","","37","","","","0","11",""
"","","","","","html-keyboard-response","116","322361","0.0-97.0","4","1","2023-10-26 14:38:59","a725c3012b74bf33a1020a98cb69c237","157.92.39.238","Mozilla/5.0 (Windows NT 10.0; Win64; x64) AppleWebKit/537.36 (KHTML, like Gecko) Chrome/118.0.0.0 Safari/537.36","WebKit","Chrome","118.0.0.0","Windows","10.0","null","es-ES,es;q=0.9","true","null","<div style=""font-size:100px;"">X</div>","null","","","fixation","","","","","","","",""
"","","","","","audio-keyboard-response","117","322622","0.0-98.0","4","1","2023-10-26 14:38:59","a725c3012b74bf33a1020a98cb69c237","157.92.39.238","Mozilla/5.0 (Windows NT 10.0; Win64; x64) AppleWebKit/537.36 (KHTML, like Gecko) Chrome/118.0.0.0 Safari/537.36","WebKit","Chrome","118.0.0.0","Windows","10.0","null","es-ES,es;q=0.9","true","null","tones/880hz_short.mp3","null","","","tone_number_task","102.5","55","tones/880hz_short.mp3","252.5","100","0","12",""
"","","","","","html-keyboard-response","118","323463","0.0-101.0-0.0","4","1","2023-10-26 14:38:59","a725c3012b74bf33a1020a98cb69c237","157.92.39.238","Mozilla/5.0 (Windows NT 10.0; Win64; x64) AppleWebKit/537.36 (KHTML, like Gecko) Chrome/118.0.0.0 Safari/537.36","WebKit","Chrome","118.0.0.0","Windows","10.0","null","es-ES,es;q=0.9","true","831","tones/880hz_short.mp3","s","","","empty_block","","55","","","","0","12",""
"","","","","","html-keyboard-response","119","323712","0.0-101.0-1.0","4","1","2023-10-26 14:38:59","a725c3012b74bf33a1020a98cb69c237","157.92.39.238","Mozilla/5.0 (Windows NT 10.0; Win64; x64) AppleWebKit/537.36 (KHTML, like Gecko) Chrome/118.0.0.0 Safari/537.36","WebKit","Chrome","118.0.0.0","Windows","10.0","null","es-ES,es;q=0.9","true","240","tones/880hz_short.mp3","k","","","empty_block","","55","","","","0","12",""
"","","","","","html-keyboard-response","120","326424","0.0-103.0","4","1","2023-10-26 14:38:59","a725c3012b74bf33a1020a98cb69c237","157.92.39.238","Mozilla/5.0 (Windows NT 10.0; Win64; x64) AppleWebKit/537.36 (KHTML, like Gecko) Chrome/118.0.0.0 Safari/537.36","WebKit","Chrome","118.0.0.0","Windows","10.0","null","es-ES,es;q=0.9","true","null","<div style=""font-size:100px;"">X</div>","null","","","fixation","","","","","","","",""
"","","","","","audio-keyboard-response","121","327301","0.0-104.0","4","1","2023-10-26 14:38:59","a725c3012b74bf33a1020a98cb69c237","157.92.39.238","Mozilla/5.0 (Windows NT 10.0; Win64; x64) AppleWebKit/537.36 (KHTML, like Gecko) Chrome/118.0.0.0 Safari/537.36","WebKit","Chrome","118.0.0.0","Windows","10.0","null","es-ES,es;q=0.9","true","869","tones/440hz_short.mp3","a","","","tone_number_task","992.5","51","tones/440hz_short.mp3","1142.5","100","0","13",""
"","","","","","html-keyboard-response","122","327434","0.0-105.0-0.0","4","1","2023-10-26 14:38:59","a725c3012b74bf33a1020a98cb69c237","157.92.39.238","Mozilla/5.0 (Windows NT 10.0; Win64; x64) AppleWebKit/537.36 (KHTML, like Gecko) Chrome/118.0.0.0 Safari/537.36","WebKit","Chrome","118.0.0.0","Windows","10.0","null","es-ES,es;q=0.9","true","null","","null","","","delay_block","","","","","","0","13",""
"","","","","","html-keyboard-response","123","327594","0.0-105.0-1.0","4","1","2023-10-26 14:38:59","a725c3012b74bf33a1020a98cb69c237","157.92.39.238","Mozilla/5.0 (Windows NT 10.0; Win64; x64) AppleWebKit/537.36 (KHTML, like Gecko) Chrome/118.0.0.0 Safari/537.36","WebKit","Chrome","118.0.0.0","Windows","10.0","null","es-ES,es;q=0.9","true","null","<p id=""stimulus"" style=""font-size:100px;"">51</p>","null","","","tone_number_task_remaining_before_delay","","51","","273.5","100","0","13",""
"","","","","","html-keyboard-response","124","327889","0.0-108.0-0.0","4","1","2023-10-26 14:38:59","a725c3012b74bf33a1020a98cb69c237","157.92.39.238","Mozilla/5.0 (Windows NT 10.0; Win64; x64) AppleWebKit/537.36 (KHTML, like Gecko) Chrome/118.0.0.0 Safari/537.36","WebKit","Chrome","118.0.0.0","Windows","10.0","null","es-ES,es;q=0.9","true","286","<p id=""stimulus"" style=""font-size:100px;"">51</p>","j","","","empty_block","","51","","","","0","13",""
"","","","","","html-keyboard-response","125","330592","0.0-109.0","4","1","2023-10-26 14:38:59","a725c3012b74bf33a1020a98cb69c237","157.92.39.238","Mozilla/5.0 (Windows NT 10.0; Win64; x64) AppleWebKit/537.36 (KHTML, like Gecko) Chrome/118.0.0.0 Safari/537.36","WebKit","Chrome","118.0.0.0","Windows","10.0","null","es-ES,es;q=0.9","true","null","<div style=""font-size:100px;"">X</div>","null","","","fixation","","","","","","","",""
"","","","","","audio-keyboard-response","126","330853","0.0-110.0","4","1","2023-10-26 14:38:59","a725c3012b74bf33a1020a98cb69c237","157.92.39.238","Mozilla/5.0 (Windows NT 10.0; Win64; x64) AppleWebKit/537.36 (KHTML, like Gecko) Chrome/118.0.0.0 Safari/537.36","WebKit","Chrome","118.0.0.0","Windows","10.0","null","es-ES,es;q=0.9","true","null","tones/880hz_short.mp3","null","","","tone_number_task","102.5","26","tones/880hz_short.mp3","252.5","100","0","14",""
"","","","","","html-keyboard-response","127","332068","0.0-113.0-0.0","4","1","2023-10-26 14:38:59","a725c3012b74bf33a1020a98cb69c237","157.92.39.238","Mozilla/5.0 (Windows NT 10.0; Win64; x64) AppleWebKit/537.36 (KHTML, like Gecko) Chrome/118.0.0.0 Safari/537.36","WebKit","Chrome","118.0.0.0","Windows","10.0","null","es-ES,es;q=0.9","true","null","tones/880hz_short.mp3","null","","","empty_block","","26","","","","0","14",""
"","","","","","html-keyboard-response","128","332443","0.0-113.0-1.0","4","1","2023-10-26 14:38:59","a725c3012b74bf33a1020a98cb69c237","157.92.39.238","Mozilla/5.0 (Windows NT 10.0; Win64; x64) AppleWebKit/537.36 (KHTML, like Gecko) Chrome/118.0.0.0 Safari/537.36","WebKit","Chrome","118.0.0.0","Windows","10.0","null","es-ES,es;q=0.9","true","365","tones/880hz_short.mp3","s","","","empty_block","","26","","","","0","14",""
"","","","","","html-keyboard-response","129","335154","0.0-115.0","4","1","2023-10-26 14:38:59","a725c3012b74bf33a1020a98cb69c237","157.92.39.238","Mozilla/5.0 (Windows NT 10.0; Win64; x64) AppleWebKit/537.36 (KHTML, like Gecko) Chrome/118.0.0.0 Safari/537.36","WebKit","Chrome","118.0.0.0","Windows","10.0","null","es-ES,es;q=0.9","true","null","<div style=""font-size:100px;"">X</div>","null","","","fixation","","","","","","","",""
"","","","","","audio-keyboard-response","130","335314","0.0-116.0","4","1","2023-10-26 14:38:59","a725c3012b74bf33a1020a98cb69c237","157.92.39.238","Mozilla/5.0 (Windows NT 10.0; Win64; x64) AppleWebKit/537.36 (KHTML, like Gecko) Chrome/118.0.0.0 Safari/537.36","WebKit","Chrome","118.0.0.0","Windows","10.0","null","es-ES,es;q=0.9","true","null","tones/440hz_short.mp3","null","","","tone_number_task","0","67","tones/440hz_short.mp3","150","100","0","15",""
"","","","","","html-keyboard-response","131","336423","0.0-119.0-0.0","4","1","2023-10-26 14:38:59","a725c3012b74bf33a1020a98cb69c237","157.92.39.238","Mozilla/5.0 (Windows NT 10.0; Win64; x64) AppleWebKit/537.36 (KHTML, like Gecko) Chrome/118.0.0.0 Safari/537.36","WebKit","Chrome","118.0.0.0","Windows","10.0","null","es-ES,es;q=0.9","true","1100","tones/440hz_short.mp3","a","","","empty_block","","67","","","","0","15",""
"","","","","","html-keyboard-response","132","336799","0.0-119.0-1.0","4","1","2023-10-26 14:38:59","a725c3012b74bf33a1020a98cb69c237","157.92.39.238","Mozilla/5.0 (Windows NT 10.0; Win64; x64) AppleWebKit/537.36 (KHTML, like Gecko) Chrome/118.0.0.0 Safari/537.36","WebKit","Chrome","118.0.0.0","Windows","10.0","null","es-ES,es;q=0.9","true","366","tones/440hz_short.mp3","k","","","empty_block","","67","","","","0","15",""
"","","","","","html-keyboard-response","133","339503","0.0-121.0","4","1","2023-10-26 14:38:59","a725c3012b74bf33a1020a98cb69c237","157.92.39.238","Mozilla/5.0 (Windows NT 10.0; Win64; x64) AppleWebKit/537.36 (KHTML, like Gecko) Chrome/118.0.0.0 Safari/537.36","WebKit","Chrome","118.0.0.0","Windows","10.0","null","es-ES,es;q=0.9","true","null","<div style=""font-size:100px;"">X</div>","null","","","fixation","","","","","","","",""
"","","","","","audio-keyboard-response","134","339664","0.0-122.0","4","1","2023-10-26 14:38:59","a725c3012b74bf33a1020a98cb69c237","157.92.39.238","Mozilla/5.0 (Windows NT 10.0; Win64; x64) AppleWebKit/537.36 (KHTML, like Gecko) Chrome/118.0.0.0 Safari/537.36","WebKit","Chrome","118.0.0.0","Windows","10.0","null","es-ES,es;q=0.9","true","null","tones/880hz_short.mp3","null","","","tone_number_task","0","46","tones/880hz_short.mp3","150","100","0","16",""
"","","","","","html-keyboard-response","135","340483","0.0-125.0-0.0","4","1","2023-10-26 14:38:59","a725c3012b74bf33a1020a98cb69c237","157.92.39.238","Mozilla/5.0 (Windows NT 10.0; Win64; x64) AppleWebKit/537.36 (KHTML, like Gecko) Chrome/118.0.0.0 Safari/537.36","WebKit","Chrome","118.0.0.0","Windows","10.0","null","es-ES,es;q=0.9","true","809","tones/880hz_short.mp3","s","","","empty_block","","46","","","","0","16",""
"","","","","","html-keyboard-response","136","340868","0.0-125.0-1.0","4","1","2023-10-26 14:38:59","a725c3012b74bf33a1020a98cb69c237","157.92.39.238","Mozilla/5.0 (Windows NT 10.0; Win64; x64) AppleWebKit/537.36 (KHTML, like Gecko) Chrome/118.0.0.0 Safari/537.36","WebKit","Chrome","118.0.0.0","Windows","10.0","null","es-ES,es;q=0.9","true","375","tones/880hz_short.mp3","k","","","empty_block","","46","","","","0","16",""
"","","","","","html-keyboard-response","137","343572","0.0-127.0","4","1","2023-10-26 14:38:59","a725c3012b74bf33a1020a98cb69c237","157.92.39.238","Mozilla/5.0 (Windows NT 10.0; Win64; x64) AppleWebKit/537.36 (KHTML, like Gecko) Chrome/118.0.0.0 Safari/537.36","WebKit","Chrome","118.0.0.0","Windows","10.0","null","es-ES,es;q=0.9","true","null","<div style=""font-size:100px;"">X</div>","null","","","fixation","","","","","","","",""
"","","","","","audio-keyboard-response","138","344169","0.0-128.0","4","1","2023-10-26 14:38:59","a725c3012b74bf33a1020a98cb69c237","157.92.39.238","Mozilla/5.0 (Windows NT 10.0; Win64; x64) AppleWebKit/537.36 (KHTML, like Gecko) Chrome/118.0.0.0 Safari/537.36","WebKit","Chrome","118.0.0.0","Windows","10.0","null","es-ES,es;q=0.9","true","581","tones/440hz_short.mp3","a","","","tone_number_task","992.5","38","tones/440hz_short.mp3","1142.5","100","0","17",""
"","","","","","html-keyboard-response","139","344589","0.0-129.0-0.0","4","1","2023-10-26 14:38:59","a725c3012b74bf33a1020a98cb69c237","157.92.39.238","Mozilla/5.0 (Windows NT 10.0; Win64; x64) AppleWebKit/537.36 (KHTML, like Gecko) Chrome/118.0.0.0 Safari/537.36","WebKit","Chrome","118.0.0.0","Windows","10.0","null","es-ES,es;q=0.9","true","null","","null","","","delay_block","","","","","","0","17",""
"","","","","","html-keyboard-response","140","344750","0.0-129.0-1.0","4","1","2023-10-26 14:38:59","a725c3012b74bf33a1020a98cb69c237","157.92.39.238","Mozilla/5.0 (Windows NT 10.0; Win64; x64) AppleWebKit/537.36 (KHTML, like Gecko) Chrome/118.0.0.0 Safari/537.36","WebKit","Chrome","118.0.0.0","Windows","10.0","null","es-ES,es;q=0.9","true","null","<p id=""stimulus"" style=""font-size:100px;"">38</p>","null","","","tone_number_task_remaining_before_delay","","38","","561.5","100","0","17",""
"","","","","","html-keyboard-response","141","345144","0.0-132.0-0.0","4","1","2023-10-26 14:38:59","a725c3012b74bf33a1020a98cb69c237","157.92.39.238","Mozilla/5.0 (Windows NT 10.0; Win64; x64) AppleWebKit/537.36 (KHTML, like Gecko) Chrome/118.0.0.0 Safari/537.36","WebKit","Chrome","118.0.0.0","Windows","10.0","null","es-ES,es;q=0.9","true","385","<p id=""stimulus"" style=""font-size:100px;"">38</p>","j","","","empty_block","","38","","","","0","17",""
"","","","","","html-keyboard-response","142","347847","0.0-133.0","4","1","2023-10-26 14:38:59","a725c3012b74bf33a1020a98cb69c237","157.92.39.238","Mozilla/5.0 (Windows NT 10.0; Win64; x64) AppleWebKit/537.36 (KHTML, like Gecko) Chrome/118.0.0.0 Safari/537.36","WebKit","Chrome","118.0.0.0","Windows","10.0","null","es-ES,es;q=0.9","true","null","<div style=""font-size:100px;"">X</div>","null","","","fixation","","","","","","","",""
"","","","","","audio-keyboard-response","143","348742","0.0-134.0","4","1","2023-10-26 14:38:59","a725c3012b74bf33a1020a98cb69c237","157.92.39.238","Mozilla/5.0 (Windows NT 10.0; Win64; x64) AppleWebKit/537.36 (KHTML, like Gecko) Chrome/118.0.0.0 Safari/537.36","WebKit","Chrome","118.0.0.0","Windows","10.0","null","es-ES,es;q=0.9","true","891","tones/880hz_short.mp3","s","","","tone_number_task","1025","29","tones/880hz_short.mp3","1175","100","0","18",""
"","","","","","html-keyboard-response","144","348887","0.0-135.0-0.0","4","1","2023-10-26 14:38:59","a725c3012b74bf33a1020a98cb69c237","157.92.39.238","Mozilla/5.0 (Windows NT 10.0; Win64; x64) AppleWebKit/537.36 (KHTML, like Gecko) Chrome/118.0.0.0 Safari/537.36","WebKit","Chrome","118.0.0.0","Windows","10.0","null","es-ES,es;q=0.9","true","null","","null","","","delay_block","","","","","","0","18",""
"","","","","","html-keyboard-response","145","349044","0.0-135.0-1.0","4","1","2023-10-26 14:38:59","a725c3012b74bf33a1020a98cb69c237","157.92.39.238","Mozilla/5.0 (Windows NT 10.0; Win64; x64) AppleWebKit/537.36 (KHTML, like Gecko) Chrome/118.0.0.0 Safari/537.36","WebKit","Chrome","118.0.0.0","Windows","10.0","null","es-ES,es;q=0.9","true","null","<p id=""stimulus"" style=""font-size:100px;"">29</p>","null","","","tone_number_task_remaining_before_delay","","29","","284","100","0","18",""
"","","","","","html-keyboard-response","146","349469","0.0-138.0-0.0","4","1","2023-10-26 14:38:59","a725c3012b74bf33a1020a98cb69c237","157.92.39.238","Mozilla/5.0 (Windows NT 10.0; Win64; x64) AppleWebKit/537.36 (KHTML, like Gecko) Chrome/118.0.0.0 Safari/537.36","WebKit","Chrome","118.0.0.0","Windows","10.0","null","es-ES,es;q=0.9","true","414","<p id=""stimulus"" style=""font-size:100px;"">29</p>","j","","","empty_block","","29","","","","0","18",""
"","","","","","html-keyboard-response","147","352173","0.0-139.0","4","1","2023-10-26 14:38:59","a725c3012b74bf33a1020a98cb69c237","157.92.39.238","Mozilla/5.0 (Windows NT 10.0; Win64; x64) AppleWebKit/537.36 (KHTML, like Gecko) Chrome/118.0.0.0 Safari/537.36","WebKit","Chrome","118.0.0.0","Windows","10.0","null","es-ES,es;q=0.9","true","null","<div style=""font-size:100px;"">X</div>","null","","","fixation","","","","","","","",""
"","","","","","audio-keyboard-response","148","353133","0.0-140.0","4","1","2023-10-26 14:38:59","a725c3012b74bf33a1020a98cb69c237","157.92.39.238","Mozilla/5.0 (Windows NT 10.0; Win64; x64) AppleWebKit/537.36 (KHTML, like Gecko) Chrome/118.0.0.0 Safari/537.36","WebKit","Chrome","118.0.0.0","Windows","10.0","null","es-ES,es;q=0.9","true","949","tones/880hz_short.mp3","s","","","tone_number_task","1025","37","tones/880hz_short.mp3","1175","100","0","19",""
"","","","","","html-keyboard-response","149","353222","0.0-141.0-0.0","4","1","2023-10-26 14:38:59","a725c3012b74bf33a1020a98cb69c237","157.92.39.238","Mozilla/5.0 (Windows NT 10.0; Win64; x64) AppleWebKit/537.36 (KHTML, like Gecko) Chrome/118.0.0.0 Safari/537.36","WebKit","Chrome","118.0.0.0","Windows","10.0","null","es-ES,es;q=0.9","true","null","","null","","","delay_block","","","","","","0","19",""
"","","","","","html-keyboard-response","150","353383","0.0-141.0-1.0","4","1","2023-10-26 14:38:59","a725c3012b74bf33a1020a98cb69c237","157.92.39.238","Mozilla/5.0 (Windows NT 10.0; Win64; x64) AppleWebKit/537.36 (KHTML, like Gecko) Chrome/118.0.0.0 Safari/537.36","WebKit","Chrome","118.0.0.0","Windows","10.0","null","es-ES,es;q=0.9","true","null","<p id=""stimulus"" style=""font-size:100px;"">37</p>","null","","","tone_number_task_remaining_before_delay","","37","","226","100","0","19",""
"","","","","","html-keyboard-response","151","353733","0.0-144.0-0.0","4","1","2023-10-26 14:38:59","a725c3012b74bf33a1020a98cb69c237","157.92.39.238","Mozilla/5.0 (Windows NT 10.0; Win64; x64) AppleWebKit/537.36 (KHTML, like Gecko) Chrome/118.0.0.0 Safari/537.36","WebKit","Chrome","118.0.0.0","Windows","10.0","null","es-ES,es;q=0.9","true","340","<p id=""stimulus"" style=""font-size:100px;"">37</p>","j","","","empty_block","","37","","","","0","19",""
"","","","","","html-keyboard-response","152","356438","0.0-145.0","4","1","2023-10-26 14:38:59","a725c3012b74bf33a1020a98cb69c237","157.92.39.238","Mozilla/5.0 (Windows NT 10.0; Win64; x64) AppleWebKit/537.36 (KHTML, like Gecko) Chrome/118.0.0.0 Safari/537.36","WebKit","Chrome","118.0.0.0","Windows","10.0","null","es-ES,es;q=0.9","true","null","<div style=""font-size:100px;"">X</div>","null","","","fixation","","","","","","","",""
"","","","","","audio-keyboard-response","153","357306","0.0-146.0","4","1","2023-10-26 14:38:59","a725c3012b74bf33a1020a98cb69c237","157.92.39.238","Mozilla/5.0 (Windows NT 10.0; Win64; x64) AppleWebKit/537.36 (KHTML, like Gecko) Chrome/118.0.0.0 Safari/537.36","WebKit","Chrome","118.0.0.0","Windows","10.0","null","es-ES,es;q=0.9","true","859","tones/440hz_short.mp3","a","","","tone_number_task","992.5","31","tones/440hz_short.mp3","1142.5","100","0","20",""
"","","","","","html-keyboard-response","154","357451","0.0-147.0-0.0","4","1","2023-10-26 14:38:59","a725c3012b74bf33a1020a98cb69c237","157.92.39.238","Mozilla/5.0 (Windows NT 10.0; Win64; x64) AppleWebKit/537.36 (KHTML, like Gecko) Chrome/118.0.0.0 Safari/537.36","WebKit","Chrome","118.0.0.0","Windows","10.0","null","es-ES,es;q=0.9","true","null","","null","","","delay_block","","","","","","0","20",""
"","","","","","html-keyboard-response","155","357613","0.0-147.0-1.0","4","1","2023-10-26 14:38:59","a725c3012b74bf33a1020a98cb69c237","157.92.39.238","Mozilla/5.0 (Windows NT 10.0; Win64; x64) AppleWebKit/537.36 (KHTML, like Gecko) Chrome/118.0.0.0 Safari/537.36","WebKit","Chrome","118.0.0.0","Windows","10.0","null","es-ES,es;q=0.9","true","null","<p id=""stimulus"" style=""font-size:100px;"">31</p>","null","","","tone_number_task_remaining_before_delay","","31","","283.5","100","0","20",""
"","","","","","html-keyboard-response","156","357943","0.0-150.0-0.0","4","1","2023-10-26 14:38:59","a725c3012b74bf33a1020a98cb69c237","157.92.39.238","Mozilla/5.0 (Windows NT 10.0; Win64; x64) AppleWebKit/537.36 (KHTML, like Gecko) Chrome/118.0.0.0 Safari/537.36","WebKit","Chrome","118.0.0.0","Windows","10.0","null","es-ES,es;q=0.9","true","320","<p id=""stimulus"" style=""font-size:100px;"">31</p>","j","","","empty_block","","31","","","","0","20",""
"","","","","","html-keyboard-response","157","360647","0.0-151.0","4","1","2023-10-26 14:38:59","a725c3012b74bf33a1020a98cb69c237","157.92.39.238","Mozilla/5.0 (Windows NT 10.0; Win64; x64) AppleWebKit/537.36 (KHTML, like Gecko) Chrome/118.0.0.0 Safari/537.36","WebKit","Chrome","118.0.0.0","Windows","10.0","null","es-ES,es;q=0.9","true","null","<div style=""font-size:100px;"">X</div>","null","","","fixation","","","","","","","",""
"","","","","","audio-keyboard-response","158","361168","0.0-152.0","4","1","2023-10-26 14:38:59","a725c3012b74bf33a1020a98cb69c237","157.92.39.238","Mozilla/5.0 (Windows NT 10.0; Win64; x64) AppleWebKit/537.36 (KHTML, like Gecko) Chrome/118.0.0.0 Safari/537.36","WebKit","Chrome","118.0.0.0","Windows","10.0","null","es-ES,es;q=0.9","true","512","tones/880hz_short.mp3","s","","","tone_number_task","1025","36","tones/880hz_short.mp3","1175","100","0","21",""
"","","","","","html-keyboard-response","159","361697","0.0-153.0-0.0","4","1","2023-10-26 14:38:59","a725c3012b74bf33a1020a98cb69c237","157.92.39.238","Mozilla/5.0 (Windows NT 10.0; Win64; x64) AppleWebKit/537.36 (KHTML, like Gecko) Chrome/118.0.0.0 Safari/537.36","WebKit","Chrome","118.0.0.0","Windows","10.0","null","es-ES,es;q=0.9","true","null","","null","","","delay_block","","","","","","0","21",""
"","","","","","html-keyboard-response","160","361858","0.0-153.0-1.0","4","1","2023-10-26 14:38:59","a725c3012b74bf33a1020a98cb69c237","157.92.39.238","Mozilla/5.0 (Windows NT 10.0; Win64; x64) AppleWebKit/537.36 (KHTML, like Gecko) Chrome/118.0.0.0 Safari/537.36","WebKit","Chrome","118.0.0.0","Windows","10.0","null","es-ES,es;q=0.9","true","null","<p id=""stimulus"" style=""font-size:100px;"">36</p>","null","","","tone_number_task_remaining_before_delay","","36","","663","100","0","21",""
"","","","","","html-keyboard-response","161","362185","0.0-156.0-0.0","4","1","2023-10-26 14:38:59","a725c3012b74bf33a1020a98cb69c237","157.92.39.238","Mozilla/5.0 (Windows NT 10.0; Win64; x64) AppleWebKit/537.36 (KHTML, like Gecko) Chrome/118.0.0.0 Safari/537.36","WebKit","Chrome","118.0.0.0","Windows","10.0","null","es-ES,es;q=0.9","true","316","<p id=""stimulus"" style=""font-size:100px;"">36</p>","j","","","empty_block","","36","","","","0","21",""
"","","","","","html-keyboard-response","162","364885","0.0-157.0","4","1","2023-10-26 14:38:59","a725c3012b74bf33a1020a98cb69c237","157.92.39.238","Mozilla/5.0 (Windows NT 10.0; Win64; x64) AppleWebKit/537.36 (KHTML, like Gecko) Chrome/118.0.0.0 Safari/537.36","WebKit","Chrome","118.0.0.0","Windows","10.0","null","es-ES,es;q=0.9","true","null","<div style=""font-size:100px;"">X</div>","null","","","fixation","","","","","","","",""
"","","","","","audio-keyboard-response","163","365672","0.0-158.0","4","1","2023-10-26 14:38:59","a725c3012b74bf33a1020a98cb69c237","157.92.39.238","Mozilla/5.0 (Windows NT 10.0; Win64; x64) AppleWebKit/537.36 (KHTML, like Gecko) Chrome/118.0.0.0 Safari/537.36","WebKit","Chrome","118.0.0.0","Windows","10.0","null","es-ES,es;q=0.9","true","781","tones/880hz_short.mp3","s","","","tone_number_task","992.5","58","tones/880hz_short.mp3","1142.5","100","0","22",""
"","","","","","html-keyboard-response","164","365895","0.0-159.0-0.0","4","1","2023-10-26 14:38:59","a725c3012b74bf33a1020a98cb69c237","157.92.39.238","Mozilla/5.0 (Windows NT 10.0; Win64; x64) AppleWebKit/537.36 (KHTML, like Gecko) Chrome/118.0.0.0 Safari/537.36","WebKit","Chrome","118.0.0.0","Windows","10.0","null","es-ES,es;q=0.9","true","null","","null","","","delay_block","","","","","","0","22",""
"","","","","","html-keyboard-response","165","366053","0.0-159.0-1.0","4","1","2023-10-26 14:38:59","a725c3012b74bf33a1020a98cb69c237","157.92.39.238","Mozilla/5.0 (Windows NT 10.0; Win64; x64) AppleWebKit/537.36 (KHTML, like Gecko) Chrome/118.0.0.0 Safari/537.36","WebKit","Chrome","118.0.0.0","Windows","10.0","null","es-ES,es;q=0.9","true","null","<p id=""stimulus"" style=""font-size:100px;"">58</p>","null","","","tone_number_task_remaining_before_delay","","58","","361.5","100","0","22",""
"","","","","","html-keyboard-response","166","366453","0.0-162.0-0.0","4","1","2023-10-26 14:38:59","a725c3012b74bf33a1020a98cb69c237","157.92.39.238","Mozilla/5.0 (Windows NT 10.0; Win64; x64) AppleWebKit/537.36 (KHTML, like Gecko) Chrome/118.0.0.0 Safari/537.36","WebKit","Chrome","118.0.0.0","Windows","10.0","null","es-ES,es;q=0.9","true","390","<p id=""stimulus"" style=""font-size:100px;"">58</p>","k","","","empty_block","","58","","","","0","22",""
"","","","","","html-keyboard-response","167","369158","0.0-163.0","4","1","2023-10-26 14:38:59","a725c3012b74bf33a1020a98cb69c237","157.92.39.238","Mozilla/5.0 (Windows NT 10.0; Win64; x64) AppleWebKit/537.36 (KHTML, like Gecko) Chrome/118.0.0.0 Safari/537.36","WebKit","Chrome","118.0.0.0","Windows","10.0","null","es-ES,es;q=0.9","true","null","<div style=""font-size:100px;"">X</div>","null","","","fixation","","","","","","","",""
"","","","","","audio-keyboard-response","168","369319","0.0-164.0","4","1","2023-10-26 14:38:59","a725c3012b74bf33a1020a98cb69c237","157.92.39.238","Mozilla/5.0 (Windows NT 10.0; Win64; x64) AppleWebKit/537.36 (KHTML, like Gecko) Chrome/118.0.0.0 Safari/537.36","WebKit","Chrome","118.0.0.0","Windows","10.0","null","es-ES,es;q=0.9","true","null","tones/880hz_short.mp3","null","","","tone_number_task","0","51","tones/880hz_short.mp3","150","100","0","23",""
"","","","","","html-keyboard-response","169","370525","0.0-167.0-0.0","4","1","2023-10-26 14:38:59","a725c3012b74bf33a1020a98cb69c237","157.92.39.238","Mozilla/5.0 (Windows NT 10.0; Win64; x64) AppleWebKit/537.36 (KHTML, like Gecko) Chrome/118.0.0.0 Safari/537.36","WebKit","Chrome","118.0.0.0","Windows","10.0","null","es-ES,es;q=0.9","true","1194","tones/880hz_short.mp3","s","","","empty_block","","51","","","","0","23",""
"","","","","","html-keyboard-response","170","370725","0.0-167.0-1.0","4","1","2023-10-26 14:38:59","a725c3012b74bf33a1020a98cb69c237","157.92.39.238","Mozilla/5.0 (Windows NT 10.0; Win64; x64) AppleWebKit/537.36 (KHTML, like Gecko) Chrome/118.0.0.0 Safari/537.36","WebKit","Chrome","118.0.0.0","Windows","10.0","null","es-ES,es;q=0.9","true","190","tones/880hz_short.mp3","k","","","empty_block","","51","","","","0","23",""
"","","","","","html-keyboard-response","171","373430","0.0-169.0","4","1","2023-10-26 14:38:59","a725c3012b74bf33a1020a98cb69c237","157.92.39.238","Mozilla/5.0 (Windows NT 10.0; Win64; x64) AppleWebKit/537.36 (KHTML, like Gecko) Chrome/118.0.0.0 Safari/537.36","WebKit","Chrome","118.0.0.0","Windows","10.0","null","es-ES,es;q=0.9","true","null","<div style=""font-size:100px;"">X</div>","null","","","fixation","","","","","","","",""
"","","","","","audio-keyboard-response","172","373935","0.0-170.0","4","1","2023-10-26 14:38:59","a725c3012b74bf33a1020a98cb69c237","157.92.39.238","Mozilla/5.0 (Windows NT 10.0; Win64; x64) AppleWebKit/537.36 (KHTML, like Gecko) Chrome/118.0.0.0 Safari/537.36","WebKit","Chrome","118.0.0.0","Windows","10.0","null","es-ES,es;q=0.9","true","488","tones/440hz_short.mp3","a","","","tone_number_task","1025","67","tones/440hz_short.mp3","1175","100","0","24",""
"","","","","","html-keyboard-response","173","374484","0.0-171.0-0.0","4","1","2023-10-26 14:38:59","a725c3012b74bf33a1020a98cb69c237","157.92.39.238","Mozilla/5.0 (Windows NT 10.0; Win64; x64) AppleWebKit/537.36 (KHTML, like Gecko) Chrome/118.0.0.0 Safari/537.36","WebKit","Chrome","118.0.0.0","Windows","10.0","null","es-ES,es;q=0.9","true","null","","null","","","delay_block","","","","","","0","24",""
"","","","","","html-keyboard-response","174","374647","0.0-171.0-1.0","4","1","2023-10-26 14:38:59","a725c3012b74bf33a1020a98cb69c237","157.92.39.238","Mozilla/5.0 (Windows NT 10.0; Win64; x64) AppleWebKit/537.36 (KHTML, like Gecko) Chrome/118.0.0.0 Safari/537.36","WebKit","Chrome","118.0.0.0","Windows","10.0","null","es-ES,es;q=0.9","true","null","<p id=""stimulus"" style=""font-size:100px;"">67</p>","null","","","tone_number_task_remaining_before_delay","","67","","687","100","0","24",""
"","","","","","html-keyboard-response","175","374943","0.0-174.0-0.0","4","1","2023-10-26 14:38:59","a725c3012b74bf33a1020a98cb69c237","157.92.39.238","Mozilla/5.0 (Windows NT 10.0; Win64; x64) AppleWebKit/537.36 (KHTML, like Gecko) Chrome/118.0.0.0 Safari/537.36","WebKit","Chrome","118.0.0.0","Windows","10.0","null","es-ES,es;q=0.9","true","285","<p id=""stimulus"" style=""font-size:100px;"">67</p>","k","","","empty_block","","67","","","","0","24",""
"","","","","","html-keyboard-response","176","377649","0.0-175.0","4","1","2023-10-26 14:38:59","a725c3012b74bf33a1020a98cb69c237","157.92.39.238","Mozilla/5.0 (Windows NT 10.0; Win64; x64) AppleWebKit/537.36 (KHTML, like Gecko) Chrome/118.0.0.0 Safari/537.36","WebKit","Chrome","118.0.0.0","Windows","10.0","null","es-ES,es;q=0.9","true","null","<div style=""font-size:100px;"">X</div>","null","","","fixation","","","","","","","",""
"","","","","","audio-keyboard-response","177","377914","0.0-176.0","4","1","2023-10-26 14:38:59","a725c3012b74bf33a1020a98cb69c237","157.92.39.238","Mozilla/5.0 (Windows NT 10.0; Win64; x64) AppleWebKit/537.36 (KHTML, like Gecko) Chrome/118.0.0.0 Safari/537.36","WebKit","Chrome","118.0.0.0","Windows","10.0","null","es-ES,es;q=0.9","true","null","tones/880hz_short.mp3","null","","","tone_number_task","102.5","27","tones/880hz_short.mp3","252.5","100","0","25",""
"","","","","","html-keyboard-response","178","378722","0.0-179.0-0.0","4","1","2023-10-26 14:38:59","a725c3012b74bf33a1020a98cb69c237","157.92.39.238","Mozilla/5.0 (Windows NT 10.0; Win64; x64) AppleWebKit/537.36 (KHTML, like Gecko) Chrome/118.0.0.0 Safari/537.36","WebKit","Chrome","118.0.0.0","Windows","10.0","null","es-ES,es;q=0.9","true","794","tones/880hz_short.mp3","s","","","empty_block","","27","","","","0","25",""
"","","","","","html-keyboard-response","179","379219","0.0-179.0-1.0","4","1","2023-10-26 14:38:59","a725c3012b74bf33a1020a98cb69c237","157.92.39.238","Mozilla/5.0 (Windows NT 10.0; Win64; x64) AppleWebKit/537.36 (KHTML, like Gecko) Chrome/118.0.0.0 Safari/537.36","WebKit","Chrome","118.0.0.0","Windows","10.0","null","es-ES,es;q=0.9","true","485","tones/880hz_short.mp3","j","","","empty_block","","27","","","","0","25",""
"","","","","","html-keyboard-response","180","381925","0.0-181.0","4","1","2023-10-26 14:38:59","a725c3012b74bf33a1020a98cb69c237","157.92.39.238","Mozilla/5.0 (Windows NT 10.0; Win64; x64) AppleWebKit/537.36 (KHTML, like Gecko) Chrome/118.0.0.0 Safari/537.36","WebKit","Chrome","118.0.0.0","Windows","10.0","null","es-ES,es;q=0.9","true","null","<div style=""font-size:100px;"">X</div>","null","","","fixation","","","","","","","",""
"","","","","","audio-keyboard-response","181","382191","0.0-182.0","4","1","2023-10-26 14:38:59","a725c3012b74bf33a1020a98cb69c237","157.92.39.238","Mozilla/5.0 (Windows NT 10.0; Win64; x64) AppleWebKit/537.36 (KHTML, like Gecko) Chrome/118.0.0.0 Safari/537.36","WebKit","Chrome","118.0.0.0","Windows","10.0","null","es-ES,es;q=0.9","true","null","tones/440hz_short.mp3","null","","","tone_number_task","102.5","66","tones/440hz_short.mp3","252.5","100","0","26",""
"","","","","","html-keyboard-response","182","383274","0.0-185.0-0.0","4","1","2023-10-26 14:38:59","a725c3012b74bf33a1020a98cb69c237","157.92.39.238","Mozilla/5.0 (Windows NT 10.0; Win64; x64) AppleWebKit/537.36 (KHTML, like Gecko) Chrome/118.0.0.0 Safari/537.36","WebKit","Chrome","118.0.0.0","Windows","10.0","null","es-ES,es;q=0.9","true","1069","tones/440hz_short.mp3","a","","","empty_block","","66","","","","0","26",""
"","","","","","html-keyboard-response","183","383466","0.0-185.0-1.0","4","1","2023-10-26 14:38:59","a725c3012b74bf33a1020a98cb69c237","157.92.39.238","Mozilla/5.0 (Windows NT 10.0; Win64; x64) AppleWebKit/537.36 (KHTML, like Gecko) Chrome/118.0.0.0 Safari/537.36","WebKit","Chrome","118.0.0.0","Windows","10.0","null","es-ES,es;q=0.9","true","180","tones/440hz_short.mp3","k","","","empty_block","","66","","","","0","26",""
"","","","","","html-keyboard-response","184","386173","0.0-187.0","4","1","2023-10-26 14:38:59","a725c3012b74bf33a1020a98cb69c237","157.92.39.238","Mozilla/5.0 (Windows NT 10.0; Win64; x64) AppleWebKit/537.36 (KHTML, like Gecko) Chrome/118.0.0.0 Safari/537.36","WebKit","Chrome","118.0.0.0","Windows","10.0","null","es-ES,es;q=0.9","true","null","<div style=""font-size:100px;"">X</div>","null","","","fixation","","","","","","","",""
"","","","","","audio-keyboard-response","185","386928","0.0-188.0","4","1","2023-10-26 14:38:59","a725c3012b74bf33a1020a98cb69c237","157.92.39.238","Mozilla/5.0 (Windows NT 10.0; Win64; x64) AppleWebKit/537.36 (KHTML, like Gecko) Chrome/118.0.0.0 Safari/537.36","WebKit","Chrome","118.0.0.0","Windows","10.0","null","es-ES,es;q=0.9","true","741","tones/880hz_short.mp3","s","","","tone_number_task","992.5","69","tones/880hz_short.mp3","1142.5","100","0","27",""
"","","","","","html-keyboard-response","186","387193","0.0-189.0-0.0","4","1","2023-10-26 14:38:59","a725c3012b74bf33a1020a98cb69c237","157.92.39.238","Mozilla/5.0 (Windows NT 10.0; Win64; x64) AppleWebKit/537.36 (KHTML, like Gecko) Chrome/118.0.0.0 Safari/537.36","WebKit","Chrome","118.0.0.0","Windows","10.0","null","es-ES,es;q=0.9","true","null","","null","","","delay_block","","","","","","0","27",""
"","","","","","html-keyboard-response","187","387356","0.0-189.0-1.0","4","1","2023-10-26 14:38:59","a725c3012b74bf33a1020a98cb69c237","157.92.39.238","Mozilla/5.0 (Windows NT 10.0; Win64; x64) AppleWebKit/537.36 (KHTML, like Gecko) Chrome/118.0.0.0 Safari/537.36","WebKit","Chrome","118.0.0.0","Windows","10.0","null","es-ES,es;q=0.9","true","null","<p id=""stimulus"" style=""font-size:100px;"">69</p>","null","","","tone_number_task_remaining_before_delay","","69","","401.5","100","0","27",""
"","","","","","html-keyboard-response","188","387767","0.0-192.0-0.0","4","1","2023-10-26 14:38:59","a725c3012b74bf33a1020a98cb69c237","157.92.39.238","Mozilla/5.0 (Windows NT 10.0; Win64; x64) AppleWebKit/537.36 (KHTML, like Gecko) Chrome/118.0.0.0 Safari/537.36","WebKit","Chrome","118.0.0.0","Windows","10.0","null","es-ES,es;q=0.9","true","400","<p id=""stimulus"" style=""font-size:100px;"">69</p>","k","","","empty_block","","69","","","","0","27",""
"","","","","","html-keyboard-response","189","390475","0.0-193.0","4","1","2023-10-26 14:38:59","a725c3012b74bf33a1020a98cb69c237","157.92.39.238","Mozilla/5.0 (Windows NT 10.0; Win64; x64) AppleWebKit/537.36 (KHTML, like Gecko) Chrome/118.0.0.0 Safari/537.36","WebKit","Chrome","118.0.0.0","Windows","10.0","null","es-ES,es;q=0.9","true","null","<div style=""font-size:100px;"">X</div>","null","","","fixation","","","","","","","",""
"","","","","","audio-keyboard-response","190","391154","0.0-194.0","4","1","2023-10-26 14:38:59","a725c3012b74bf33a1020a98cb69c237","157.92.39.238","Mozilla/5.0 (Windows NT 10.0; Win64; x64) AppleWebKit/537.36 (KHTML, like Gecko) Chrome/118.0.0.0 Safari/537.36","WebKit","Chrome","118.0.0.0","Windows","10.0","null","es-ES,es;q=0.9","true","669","tones/880hz_short.mp3","s","","","tone_number_task","1025","25","tones/880hz_short.mp3","1175","100","0","28",""
"","","","","","html-keyboard-response","191","391524","0.0-195.0-0.0","4","1","2023-10-26 14:38:59","a725c3012b74bf33a1020a98cb69c237","157.92.39.238","Mozilla/5.0 (Windows NT 10.0; Win64; x64) AppleWebKit/537.36 (KHTML, like Gecko) Chrome/118.0.0.0 Safari/537.36","WebKit","Chrome","118.0.0.0","Windows","10.0","null","es-ES,es;q=0.9","true","null","","null","","","delay_block","","","","","","0","28",""
"","","","","","html-keyboard-response","192","391689","0.0-195.0-1.0","4","1","2023-10-26 14:38:59","a725c3012b74bf33a1020a98cb69c237","157.92.39.238","Mozilla/5.0 (Windows NT 10.0; Win64; x64) AppleWebKit/537.36 (KHTML, like Gecko) Chrome/118.0.0.0 Safari/537.36","WebKit","Chrome","118.0.0.0","Windows","10.0","null","es-ES,es;q=0.9","true","null","<p id=""stimulus"" style=""font-size:100px;"">25</p>","null","","","tone_number_task_remaining_before_delay","","25","","506","100","0","28",""
"","","","","","html-keyboard-response","193","392076","0.0-198.0-0.0","4","1","2023-10-26 14:38:59","a725c3012b74bf33a1020a98cb69c237","157.92.39.238","Mozilla/5.0 (Windows NT 10.0; Win64; x64) AppleWebKit/537.36 (KHTML, like Gecko) Chrome/118.0.0.0 Safari/537.36","WebKit","Chrome","118.0.0.0","Windows","10.0","null","es-ES,es;q=0.9","true","375","<p id=""stimulus"" style=""font-size:100px;"">25</p>","j","","","empty_block","","25","","","","0","28",""
"","","","","","html-keyboard-response","194","394782","0.0-199.0","4","1","2023-10-26 14:38:59","a725c3012b74bf33a1020a98cb69c237","157.92.39.238","Mozilla/5.0 (Windows NT 10.0; Win64; x64) AppleWebKit/537.36 (KHTML, like Gecko) Chrome/118.0.0.0 Safari/537.36","WebKit","Chrome","118.0.0.0","Windows","10.0","null","es-ES,es;q=0.9","true","null","<div style=""font-size:100px;"">X</div>","null","","","fixation","","","","","","","",""
"","","","","","audio-keyboard-response","195","395049","0.0-200.0","4","1","2023-10-26 14:38:59","a725c3012b74bf33a1020a98cb69c237","157.92.39.238","Mozilla/5.0 (Windows NT 10.0; Win64; x64) AppleWebKit/537.36 (KHTML, like Gecko) Chrome/118.0.0.0 Safari/537.36","WebKit","Chrome","118.0.0.0","Windows","10.0","null","es-ES,es;q=0.9","true","null","tones/440hz_short.mp3","null","","","tone_number_task","102.5","64","tones/440hz_short.mp3","252.5","100","0","29",""
"","","","","","html-keyboard-response","196","396264","0.0-203.0-0.0","4","1","2023-10-26 14:38:59","a725c3012b74bf33a1020a98cb69c237","157.92.39.238","Mozilla/5.0 (Windows NT 10.0; Win64; x64) AppleWebKit/537.36 (KHTML, like Gecko) Chrome/118.0.0.0 Safari/537.36","WebKit","Chrome","118.0.0.0","Windows","10.0","null","es-ES,es;q=0.9","true","null","tones/440hz_short.mp3","null","","","empty_block","","64","","","","0","29",""
"","","","","","html-keyboard-response","197","396337","0.0-203.0-1.0","4","1","2023-10-26 14:38:59","a725c3012b74bf33a1020a98cb69c237","157.92.39.238","Mozilla/5.0 (Windows NT 10.0; Win64; x64) AppleWebKit/537.36 (KHTML, like Gecko) Chrome/118.0.0.0 Safari/537.36","WebKit","Chrome","118.0.0.0","Windows","10.0","null","es-ES,es;q=0.9","true","64","tones/440hz_short.mp3","a","","","empty_block","","64","","","","0","29",""
"","","","","","html-keyboard-response","198","399042","0.0-205.0","4","1","2023-10-26 14:38:59","a725c3012b74bf33a1020a98cb69c237","157.92.39.238","Mozilla/5.0 (Windows NT 10.0; Win64; x64) AppleWebKit/537.36 (KHTML, like Gecko) Chrome/118.0.0.0 Safari/537.36","WebKit","Chrome","118.0.0.0","Windows","10.0","null","es-ES,es;q=0.9","true","null","<div style=""font-size:100px;"">X</div>","null","","","fixation","","","","","","","",""
"","","","","","audio-keyboard-response","199","399653","0.0-206.0","4","1","2023-10-26 14:38:59","a725c3012b74bf33a1020a98cb69c237","157.92.39.238","Mozilla/5.0 (Windows NT 10.0; Win64; x64) AppleWebKit/537.36 (KHTML, like Gecko) Chrome/118.0.0.0 Safari/537.36","WebKit","Chrome","118.0.0.0","Windows","10.0","null","es-ES,es;q=0.9","true","600","tones/440hz_short.mp3","a","","","tone_number_task","992.5","62","tones/440hz_short.mp3","1142.5","100","0","30",""
"","","","","","html-keyboard-response","200","400058","0.0-207.0-0.0","4","1","2023-10-26 14:38:59","a725c3012b74bf33a1020a98cb69c237","157.92.39.238","Mozilla/5.0 (Windows NT 10.0; Win64; x64) AppleWebKit/537.36 (KHTML, like Gecko) Chrome/118.0.0.0 Safari/537.36","WebKit","Chrome","118.0.0.0","Windows","10.0","null","es-ES,es;q=0.9","true","null","","null","","","delay_block","","","","","","0","30",""
"","","","","","html-keyboard-response","201","400222","0.0-207.0-1.0","4","1","2023-10-26 14:38:59","a725c3012b74bf33a1020a98cb69c237","157.92.39.238","Mozilla/5.0 (Windows NT 10.0; Win64; x64) AppleWebKit/537.36 (KHTML, like Gecko) Chrome/118.0.0.0 Safari/537.36","WebKit","Chrome","118.0.0.0","Windows","10.0","null","es-ES,es;q=0.9","true","null","<p id=""stimulus"" style=""font-size:100px;"">62</p>","null","","","tone_number_task_remaining_before_delay","","62","","542.5","100","0","30",""
"","","","","","html-keyboard-response","202","400620","0.0-210.0-0.0","4","1","2023-10-26 14:38:59","a725c3012b74bf33a1020a98cb69c237","157.92.39.238","Mozilla/5.0 (Windows NT 10.0; Win64; x64) AppleWebKit/537.36 (KHTML, like Gecko) Chrome/118.0.0.0 Safari/537.36","WebKit","Chrome","118.0.0.0","Windows","10.0","null","es-ES,es;q=0.9","true","385","<p id=""stimulus"" style=""font-size:100px;"">62</p>","k","","","empty_block","","62","","","","0","30",""
"","","","","","html-keyboard-response","203","403325","0.0-211.0","4","1","2023-10-26 14:38:59","a725c3012b74bf33a1020a98cb69c237","157.92.39.238","Mozilla/5.0 (Windows NT 10.0; Win64; x64) AppleWebKit/537.36 (KHTML, like Gecko) Chrome/118.0.0.0 Safari/537.36","WebKit","Chrome","118.0.0.0","Windows","10.0","null","es-ES,es;q=0.9","true","null","<div style=""font-size:100px;"">X</div>","null","","","fixation","","","","","","","",""
"","","","","","audio-keyboard-response","204","404238","0.0-212.0","4","1","2023-10-26 14:38:59","a725c3012b74bf33a1020a98cb69c237","157.92.39.238","Mozilla/5.0 (Windows NT 10.0; Win64; x64) AppleWebKit/537.36 (KHTML, like Gecko) Chrome/118.0.0.0 Safari/537.36","WebKit","Chrome","118.0.0.0","Windows","10.0","null","es-ES,es;q=0.9","true","901","tones/440hz_short.mp3","a","","","tone_number_task","1025","68","tones/440hz_short.mp3","1175","100","0","31",""
"","","","","","html-keyboard-response","205","404376","0.0-213.0-0.0","4","1","2023-10-26 14:38:59","a725c3012b74bf33a1020a98cb69c237","157.92.39.238","Mozilla/5.0 (Windows NT 10.0; Win64; x64) AppleWebKit/537.36 (KHTML, like Gecko) Chrome/118.0.0.0 Safari/537.36","WebKit","Chrome","118.0.0.0","Windows","10.0","null","es-ES,es;q=0.9","true","null","","null","","","delay_block","","","","","","0","31",""
"","","","","","html-keyboard-response","206","404539","0.0-213.0-1.0","4","1","2023-10-26 14:38:59","a725c3012b74bf33a1020a98cb69c237","157.92.39.238","Mozilla/5.0 (Windows NT 10.0; Win64; x64) AppleWebKit/537.36 (KHTML, like Gecko) Chrome/118.0.0.0 Safari/537.36","WebKit","Chrome","118.0.0.0","Windows","10.0","null","es-ES,es;q=0.9","true","null","<p id=""stimulus"" style=""font-size:100px;"">68</p>","null","","","tone_number_task_remaining_before_delay","","68","","274","100","0","31",""
"","","","","","html-keyboard-response","207","404801","0.0-216.0-0.0","4","1","2023-10-26 14:38:59","a725c3012b74bf33a1020a98cb69c237","157.92.39.238","Mozilla/5.0 (Windows NT 10.0; Win64; x64) AppleWebKit/537.36 (KHTML, like Gecko) Chrome/118.0.0.0 Safari/537.36","WebKit","Chrome","118.0.0.0","Windows","10.0","null","es-ES,es;q=0.9","true","249","<p id=""stimulus"" style=""font-size:100px;"">68</p>","k","","","empty_block","","68","","","","0","31",""
"","","","","","html-keyboard-response","208","407521","0.0-217.0","4","1","2023-10-26 14:38:59","a725c3012b74bf33a1020a98cb69c237","157.92.39.238","Mozilla/5.0 (Windows NT 10.0; Win64; x64) AppleWebKit/537.36 (KHTML, like Gecko) Chrome/118.0.0.0 Safari/537.36","WebKit","Chrome","118.0.0.0","Windows","10.0","null","es-ES,es;q=0.9","true","null","<div style=""font-size:100px;"">X</div>","null","","","fixation","","","","","","","",""
"","","","","","audio-keyboard-response","209","407787","0.0-218.0","4","1","2023-10-26 14:38:59","a725c3012b74bf33a1020a98cb69c237","157.92.39.238","Mozilla/5.0 (Windows NT 10.0; Win64; x64) AppleWebKit/537.36 (KHTML, like Gecko) Chrome/118.0.0.0 Safari/537.36","WebKit","Chrome","118.0.0.0","Windows","10.0","null","es-ES,es;q=0.9","true","null","tones/880hz_short.mp3","null","","","tone_number_task","102.5","54","tones/880hz_short.mp3","252.5","100","0","32",""
"","","","","","html-keyboard-response","210","408076","0.0-221.0-0.0","4","1","2023-10-26 14:38:59","a725c3012b74bf33a1020a98cb69c237","157.92.39.238","Mozilla/5.0 (Windows NT 10.0; Win64; x64) AppleWebKit/537.36 (KHTML, like Gecko) Chrome/118.0.0.0 Safari/537.36","WebKit","Chrome","118.0.0.0","Windows","10.0","null","es-ES,es;q=0.9","true","275","tones/880hz_short.mp3","s","","","empty_block","","54","","","","0","32",""
"","","","","","html-keyboard-response","211","408784","0.0-221.0-1.0","4","1","2023-10-26 14:38:59","a725c3012b74bf33a1020a98cb69c237","157.92.39.238","Mozilla/5.0 (Windows NT 10.0; Win64; x64) AppleWebKit/537.36 (KHTML, like Gecko) Chrome/118.0.0.0 Safari/537.36","WebKit","Chrome","118.0.0.0","Windows","10.0","null","es-ES,es;q=0.9","true","694","tones/880hz_short.mp3","k","","","empty_block","","54","","","","0","32",""
"","","","","","html-keyboard-response","212","411489","0.0-223.0","4","1","2023-10-26 14:38:59","a725c3012b74bf33a1020a98cb69c237","157.92.39.238","Mozilla/5.0 (Windows NT 10.0; Win64; x64) AppleWebKit/537.36 (KHTML, like Gecko) Chrome/118.0.0.0 Safari/537.36","WebKit","Chrome","118.0.0.0","Windows","10.0","null","es-ES,es;q=0.9","true","null","<div style=""font-size:100px;"">X</div>","null","","","fixation","","","","","","","",""
"","","","","","audio-keyboard-response","213","411654","0.0-224.0","4","1","2023-10-26 14:38:59","a725c3012b74bf33a1020a98cb69c237","157.92.39.238","Mozilla/5.0 (Windows NT 10.0; Win64; x64) AppleWebKit/537.36 (KHTML, like Gecko) Chrome/118.0.0.0 Safari/537.36","WebKit","Chrome","118.0.0.0","Windows","10.0","null","es-ES,es;q=0.9","true","null","tones/880hz_short.mp3","null","","","tone_number_task","0","49","tones/880hz_short.mp3","150","100","0","33",""
"","","","","","html-keyboard-response","214","412867","0.0-227.0-0.0","4","1","2023-10-26 14:38:59","a725c3012b74bf33a1020a98cb69c237","157.92.39.238","Mozilla/5.0 (Windows NT 10.0; Win64; x64) AppleWebKit/537.36 (KHTML, like Gecko) Chrome/118.0.0.0 Safari/537.36","WebKit","Chrome","118.0.0.0","Windows","10.0","null","es-ES,es;q=0.9","true","1199","tones/880hz_short.mp3","s","","","empty_block","","49","","","","0","33",""
"","","","","","html-keyboard-response","215","413071","0.0-227.0-1.0","4","1","2023-10-26 14:38:59","a725c3012b74bf33a1020a98cb69c237","157.92.39.238","Mozilla/5.0 (Windows NT 10.0; Win64; x64) AppleWebKit/537.36 (KHTML, like Gecko) Chrome/118.0.0.0 Safari/537.36","WebKit","Chrome","118.0.0.0","Windows","10.0","null","es-ES,es;q=0.9","true","189","tones/880hz_short.mp3","k","","","empty_block","","49","","","","0","33",""
"","","","","","html-keyboard-response","216","415780","0.0-229.0","4","1","2023-10-26 14:38:59","a725c3012b74bf33a1020a98cb69c237","157.92.39.238","Mozilla/5.0 (Windows NT 10.0; Win64; x64) AppleWebKit/537.36 (KHTML, like Gecko) Chrome/118.0.0.0 Safari/537.36","WebKit","Chrome","118.0.0.0","Windows","10.0","null","es-ES,es;q=0.9","true","null","<div style=""font-size:100px;"">X</div>","null","","","fixation","","","","","","","",""
"","","","","","audio-keyboard-response","217","416935","0.0-230.0","4","1","2023-10-26 14:38:59","a725c3012b74bf33a1020a98cb69c237","157.92.39.238","Mozilla/5.0 (Windows NT 10.0; Win64; x64) AppleWebKit/537.36 (KHTML, like Gecko) Chrome/118.0.0.0 Safari/537.36","WebKit","Chrome","118.0.0.0","Windows","10.0","null","es-ES,es;q=0.9","true","null","tones/440hz_short.mp3","null","","","tone_number_task","992.5","35","tones/440hz_short.mp3","1142.5","100","0","34",""
"","","","","","html-keyboard-response","218","418136","0.0-233.0-0.0","4","1","2023-10-26 14:38:59","a725c3012b74bf33a1020a98cb69c237","157.92.39.238","Mozilla/5.0 (Windows NT 10.0; Win64; x64) AppleWebKit/537.36 (KHTML, like Gecko) Chrome/118.0.0.0 Safari/537.36","WebKit","Chrome","118.0.0.0","Windows","10.0","null","es-ES,es;q=0.9","true","1186","tones/440hz_short.mp3","a","","","empty_block","","35","","","","0","34",""
"","","","","","html-keyboard-response","219","418370","0.0-233.0-1.0","4","1","2023-10-26 14:38:59","a725c3012b74bf33a1020a98cb69c237","157.92.39.238","Mozilla/5.0 (Windows NT 10.0; Win64; x64) AppleWebKit/537.36 (KHTML, like Gecko) Chrome/118.0.0.0 Safari/537.36","WebKit","Chrome","118.0.0.0","Windows","10.0","null","es-ES,es;q=0.9","true","221","tones/440hz_short.mp3","j","","","empty_block","","35","","","","0","34",""
"","","","","","html-keyboard-response","220","421091","0.0-235.0","4","1","2023-10-26 14:38:59","a725c3012b74bf33a1020a98cb69c237","157.92.39.238","Mozilla/5.0 (Windows NT 10.0; Win64; x64) AppleWebKit/537.36 (KHTML, like Gecko) Chrome/118.0.0.0 Safari/537.36","WebKit","Chrome","118.0.0.0","Windows","10.0","null","es-ES,es;q=0.9","true","null","<div style=""font-size:100px;"">X</div>","null","","","fixation","","","","","","","",""
