"success","timeout","failed_images","failed_audio","failed_video","trial_type","trial_index","time_elapsed","internal_node_id","run_id","condition","recorded_at","source_code_version","ip","user_agent","device","browser","browser_version","platform","platform_version","referer","accept_language","check","rt","stimulus","response","question_order","url","task","delay","number","audioFile","trial_duration","font_size","block","round","value"
"true","false","[]","[]","[]","preload","0","312","0.0-0.0","50","1","2023-11-01 03:22:25","a725c3012b74bf33a1020a98cb69c237","24.232.215.58","Mozilla/5.0 (Windows NT 10.0; Win64; x64) AppleWebKit/537.36 (KHTML, like Gecko) Chrome/118.0.0.0 Safari/537.36","WebKit","Chrome","118.0.0.0","Windows","10.0","null","es-419,es;q=0.9","true","","","","","","","","","","","","","",""
"true","","","","","fullscreen","1","28001","0.0-1.0","50","1","2023-11-01 03:22:25","a725c3012b74bf33a1020a98cb69c237","24.232.215.58","Mozilla/5.0 (Windows NT 10.0; Win64; x64) AppleWebKit/537.36 (KHTML, like Gecko) Chrome/118.0.0.0 Safari/537.36","WebKit","Chrome","118.0.0.0","Windows","10.0","null","es-419,es;q=0.9","true","","","","","","","","","","","","","",""
"","","","","","html-button-response","2","37068","0.0-2.0","50","1","2023-11-01 03:22:25","a725c3012b74bf33a1020a98cb69c237","24.232.215.58","Mozilla/5.0 (Windows NT 10.0; Win64; x64) AppleWebKit/537.36 (KHTML, like Gecko) Chrome/118.0.0.0 Safari/537.36","WebKit","Chrome","118.0.0.0","Windows","10.0","null","es-419,es;q=0.9","true","9065","<p style=""font-size:24px; color:red;"">Cosas importantes a tener en cuenta antes de comenzar el experimento:</p>","0","","","","","","","","","","",""
"","","","","","html-button-response","3","44276","0.0-3.0","50","1","2023-11-01 03:22:25","a725c3012b74bf33a1020a98cb69c237","24.232.215.58","Mozilla/5.0 (Windows NT 10.0; Win64; x64) AppleWebKit/537.36 (KHTML, like Gecko) Chrome/118.0.0.0 Safari/537.36","WebKit","Chrome","118.0.0.0","Windows","10.0","null","es-419,es;q=0.9","true","7207","<p style=""font-size:24px;"">El experimento dura aproximadamente 15 minutos.</p><p style=""font-size:24px;"">Por favor, no cierres la ventana del navegador durante el experimento.</p><p style=""font-size:24px;"">Si se completa de forma parcial, no se guardará ningún resultado.</p>","0","","","","","","","","","","",""
"","","","","","html-button-response","4","47884","0.0-4.0","50","1","2023-11-01 03:22:25","a725c3012b74bf33a1020a98cb69c237","24.232.215.58","Mozilla/5.0 (Windows NT 10.0; Win64; x64) AppleWebKit/537.36 (KHTML, like Gecko) Chrome/118.0.0.0 Safari/537.36","WebKit","Chrome","118.0.0.0","Windows","10.0","null","es-419,es;q=0.9","true","3607","<p style=""font-size:24px;"">El experimento contiene estímulos sonoros.</p>","0","","","","","","","","","","",""
"","","","","","audio-button-response","5","53012","0.0-5.0-0.0","50","1","2023-11-01 03:22:25","a725c3012b74bf33a1020a98cb69c237","24.232.215.58","Mozilla/5.0 (Windows NT 10.0; Win64; x64) AppleWebKit/537.36 (KHTML, like Gecko) Chrome/118.0.0.0 Safari/537.36","WebKit","Chrome","118.0.0.0","Windows","10.0","null","es-419,es;q=0.9","true","4640","tones/440hz_short.mp3","1","","","","","","","","","","",""
"","","","","","audio-button-response","6","55236","0.0-6.0-0.0","50","1","2023-11-01 03:22:25","a725c3012b74bf33a1020a98cb69c237","24.232.215.58","Mozilla/5.0 (Windows NT 10.0; Win64; x64) AppleWebKit/537.36 (KHTML, like Gecko) Chrome/118.0.0.0 Safari/537.36","WebKit","Chrome","118.0.0.0","Windows","10.0","null","es-419,es;q=0.9","true","2221","tones/880hz_short.mp3","1","","","","","","","","","","",""
"","","","","","survey-html-form","7","60660","0.0-7.0","50","1","2023-11-01 03:22:25","a725c3012b74bf33a1020a98cb69c237","24.232.215.58","Mozilla/5.0 (Windows NT 10.0; Win64; x64) AppleWebKit/537.36 (KHTML, like Gecko) Chrome/118.0.0.0 Safari/537.36","WebKit","Chrome","118.0.0.0","Windows","10.0","null","es-419,es;q=0.9","true","5421","","{""response"":""24""}","","","","","","","","","","",""
"","","","","","survey-multi-choice","8","66740","0.0-8.0","50","1","2023-11-01 03:22:25","a725c3012b74bf33a1020a98cb69c237","24.232.215.58","Mozilla/5.0 (Windows NT 10.0; Win64; x64) AppleWebKit/537.36 (KHTML, like Gecko) Chrome/118.0.0.0 Safari/537.36","WebKit","Chrome","118.0.0.0","Windows","10.0","null","es-419,es;q=0.9","true","6078","","{""gender"":""Mujer"",""hand"":""Derecha""}","[0,1]","","","","","","","","","",""
"","","","","","external-html","9","138668","0.0-9.0","50","1","2023-11-01 03:22:25","a725c3012b74bf33a1020a98cb69c237","24.232.215.58","Mozilla/5.0 (Windows NT 10.0; Win64; x64) AppleWebKit/537.36 (KHTML, like Gecko) Chrome/118.0.0.0 Safari/537.36","WebKit","Chrome","118.0.0.0","Windows","10.0","null","es-419,es;q=0.9","true","71504","","","","instructions/instructions.html","","","","","","","","",""
"","","","","","external-html","10","182945","0.0-10.0","50","1","2023-11-01 03:22:25","a725c3012b74bf33a1020a98cb69c237","24.232.215.58","Mozilla/5.0 (Windows NT 10.0; Win64; x64) AppleWebKit/537.36 (KHTML, like Gecko) Chrome/118.0.0.0 Safari/537.36","WebKit","Chrome","118.0.0.0","Windows","10.0","null","es-419,es;q=0.9","true","43807","","","","instructions/animation.html","","","","","","","","",""
"","","","","","html-keyboard-response","11","185828","0.0-11.0-0.0","50","1","2023-11-01 03:22:25","a725c3012b74bf33a1020a98cb69c237","24.232.215.58","Mozilla/5.0 (Windows NT 10.0; Win64; x64) AppleWebKit/537.36 (KHTML, like Gecko) Chrome/118.0.0.0 Safari/537.36","WebKit","Chrome","118.0.0.0","Windows","10.0","null","es-419,es;q=0.9","true","null","<div style=""font-size:100px;"">X</div>","null","","","fixation","","","","","","","",""
"","","","","","audio-keyboard-response","12","186549","0.0-11.0-1.0","50","1","2023-11-01 03:22:25","a725c3012b74bf33a1020a98cb69c237","24.232.215.58","Mozilla/5.0 (Windows NT 10.0; Win64; x64) AppleWebKit/537.36 (KHTML, like Gecko) Chrome/118.0.0.0 Safari/537.36","WebKit","Chrome","118.0.0.0","Windows","10.0","null","es-419,es;q=0.9","true","709","tones/880hz_short.mp3","s","","","tone_number_task","1000","25","tones/880hz_short.mp3","1150","100","null","null",""
"","","","","","html-keyboard-response","13","186842","0.0-11.0-2.0-0.0","50","1","2023-11-01 03:22:25","a725c3012b74bf33a1020a98cb69c237","24.232.215.58","Mozilla/5.0 (Windows NT 10.0; Win64; x64) AppleWebKit/537.36 (KHTML, like Gecko) Chrome/118.0.0.0 Safari/537.36","WebKit","Chrome","118.0.0.0","Windows","10.0","null","es-419,es;q=0.9","true","null","","null","","","delay_block","","","","","","null","null",""
"","","","","","html-keyboard-response","14","186995","0.0-11.0-2.0-1.0","50","1","2023-11-01 03:22:25","a725c3012b74bf33a1020a98cb69c237","24.232.215.58","Mozilla/5.0 (Windows NT 10.0; Win64; x64) AppleWebKit/537.36 (KHTML, like Gecko) Chrome/118.0.0.0 Safari/537.36","WebKit","Chrome","118.0.0.0","Windows","10.0","null","es-419,es;q=0.9","true","null","<p id=""stimulus"" style=""font-size:100px;"">25</p>","null","","","tone_number_task_remaining_before_delay","","25","","441","100","null","null",""
"","","","","","html-keyboard-response","15","187868","0.0-11.0-5.0-0.0","50","1","2023-11-01 03:22:25","a725c3012b74bf33a1020a98cb69c237","24.232.215.58","Mozilla/5.0 (Windows NT 10.0; Win64; x64) AppleWebKit/537.36 (KHTML, like Gecko) Chrome/118.0.0.0 Safari/537.36","WebKit","Chrome","118.0.0.0","Windows","10.0","null","es-419,es;q=0.9","true","871","<p id=""stimulus"" style=""font-size:100px;"">25</p>","j","","","empty_block","","25","","","","null","null",""
"","","","","","html-keyboard-response","16","190748","0.0-13.0-0.0","50","1","2023-11-01 03:22:25","a725c3012b74bf33a1020a98cb69c237","24.232.215.58","Mozilla/5.0 (Windows NT 10.0; Win64; x64) AppleWebKit/537.36 (KHTML, like Gecko) Chrome/118.0.0.0 Safari/537.36","WebKit","Chrome","118.0.0.0","Windows","10.0","null","es-419,es;q=0.9","true","null","<div style=""font-size:100px;"">X</div>","null","","","fixation","","","","","","","",""
"","","","","","audio-keyboard-response","17","191257","0.0-13.0-1.0","50","1","2023-11-01 03:22:25","a725c3012b74bf33a1020a98cb69c237","24.232.215.58","Mozilla/5.0 (Windows NT 10.0; Win64; x64) AppleWebKit/537.36 (KHTML, like Gecko) Chrome/118.0.0.0 Safari/537.36","WebKit","Chrome","118.0.0.0","Windows","10.0","null","es-419,es;q=0.9","true","499","tones/440hz_short.mp3","a","","","tone_number_task","500","61","tones/440hz_short.mp3","650","100","null","null",""
"","","","","","html-keyboard-response","18","191259","0.0-13.0-2.0-0.0","50","1","2023-11-01 03:22:25","a725c3012b74bf33a1020a98cb69c237","24.232.215.58","Mozilla/5.0 (Windows NT 10.0; Win64; x64) AppleWebKit/537.36 (KHTML, like Gecko) Chrome/118.0.0.0 Safari/537.36","WebKit","Chrome","118.0.0.0","Windows","10.0","null","es-419,es;q=0.9","true","null","","null","","","delay_block","","","","","","null","null",""
"","","","","","html-keyboard-response","19","191411","0.0-13.0-2.0-1.0","50","1","2023-11-01 03:22:25","a725c3012b74bf33a1020a98cb69c237","24.232.215.58","Mozilla/5.0 (Windows NT 10.0; Win64; x64) AppleWebKit/537.36 (KHTML, like Gecko) Chrome/118.0.0.0 Safari/537.36","WebKit","Chrome","118.0.0.0","Windows","10.0","null","es-419,es;q=0.9","true","null","<p id=""stimulus"" style=""font-size:100px;"">61</p>","null","","","tone_number_task_remaining_before_delay","","61","","151","100","null","null",""
"","","","","","html-keyboard-response","20","191941","0.0-13.0-5.0-0.0","50","1","2023-11-01 03:22:25","a725c3012b74bf33a1020a98cb69c237","24.232.215.58","Mozilla/5.0 (Windows NT 10.0; Win64; x64) AppleWebKit/537.36 (KHTML, like Gecko) Chrome/118.0.0.0 Safari/537.36","WebKit","Chrome","118.0.0.0","Windows","10.0","null","es-419,es;q=0.9","true","528","<p id=""stimulus"" style=""font-size:100px;"">61</p>","k","","","empty_block","","61","","","","null","null",""
"","","","","","html-keyboard-response","21","194823","0.0-15.0-0.0","50","1","2023-11-01 03:22:25","a725c3012b74bf33a1020a98cb69c237","24.232.215.58","Mozilla/5.0 (Windows NT 10.0; Win64; x64) AppleWebKit/537.36 (KHTML, like Gecko) Chrome/118.0.0.0 Safari/537.36","WebKit","Chrome","118.0.0.0","Windows","10.0","null","es-419,es;q=0.9","true","null","<div style=""font-size:100px;"">X</div>","null","","","fixation","","","","","","","",""
"","","","","","audio-keyboard-response","22","195125","0.0-15.0-1.0","50","1","2023-11-01 03:22:25","a725c3012b74bf33a1020a98cb69c237","24.232.215.58","Mozilla/5.0 (Windows NT 10.0; Win64; x64) AppleWebKit/537.36 (KHTML, like Gecko) Chrome/118.0.0.0 Safari/537.36","WebKit","Chrome","118.0.0.0","Windows","10.0","null","es-419,es;q=0.9","true","null","tones/880hz_short.mp3","null","","","tone_number_task","150","57","tones/880hz_short.mp3","300","100","null","null",""
"","","","","","html-keyboard-response","23","196953","0.0-15.0-4.0-0.0","50","1","2023-11-01 03:22:25","a725c3012b74bf33a1020a98cb69c237","24.232.215.58","Mozilla/5.0 (Windows NT 10.0; Win64; x64) AppleWebKit/537.36 (KHTML, like Gecko) Chrome/118.0.0.0 Safari/537.36","WebKit","Chrome","118.0.0.0","Windows","10.0","null","es-419,es;q=0.9","true","1827","tones/880hz_short.mp3","s","","","empty_block","","57","","","","null","null",""
"","","","","","html-keyboard-response","24","197571","0.0-15.0-4.0-1.0","50","1","2023-11-01 03:22:25","a725c3012b74bf33a1020a98cb69c237","24.232.215.58","Mozilla/5.0 (Windows NT 10.0; Win64; x64) AppleWebKit/537.36 (KHTML, like Gecko) Chrome/118.0.0.0 Safari/537.36","WebKit","Chrome","118.0.0.0","Windows","10.0","null","es-419,es;q=0.9","true","616","tones/880hz_short.mp3","k","","","empty_block","","57","","","","null","null",""
"","","","","","html-keyboard-response","25","200451","0.0-17.0-0.0","50","1","2023-11-01 03:22:25","a725c3012b74bf33a1020a98cb69c237","24.232.215.58","Mozilla/5.0 (Windows NT 10.0; Win64; x64) AppleWebKit/537.36 (KHTML, like Gecko) Chrome/118.0.0.0 Safari/537.36","WebKit","Chrome","118.0.0.0","Windows","10.0","null","es-419,es;q=0.9","true","null","<div style=""font-size:100px;"">X</div>","null","","","fixation","","","","","","","",""
"","","","","","audio-keyboard-response","26","200654","0.0-17.0-1.0","50","1","2023-11-01 03:22:25","a725c3012b74bf33a1020a98cb69c237","24.232.215.58","Mozilla/5.0 (Windows NT 10.0; Win64; x64) AppleWebKit/537.36 (KHTML, like Gecko) Chrome/118.0.0.0 Safari/537.36","WebKit","Chrome","118.0.0.0","Windows","10.0","null","es-419,es;q=0.9","true","null","tones/880hz_short.mp3","null","","","tone_number_task","50","65","tones/880hz_short.mp3","200","100","null","null",""
"","","","","","html-keyboard-response","27","200995","0.0-17.0-4.0-0.0","50","1","2023-11-01 03:22:25","a725c3012b74bf33a1020a98cb69c237","24.232.215.58","Mozilla/5.0 (Windows NT 10.0; Win64; x64) AppleWebKit/537.36 (KHTML, like Gecko) Chrome/118.0.0.0 Safari/537.36","WebKit","Chrome","118.0.0.0","Windows","10.0","null","es-419,es;q=0.9","true","339","tones/880hz_short.mp3","s","","","empty_block","","65","","","","null","null",""
"","","","","","html-keyboard-response","28","201299","0.0-17.0-4.0-1.0","50","1","2023-11-01 03:22:25","a725c3012b74bf33a1020a98cb69c237","24.232.215.58","Mozilla/5.0 (Windows NT 10.0; Win64; x64) AppleWebKit/537.36 (KHTML, like Gecko) Chrome/118.0.0.0 Safari/537.36","WebKit","Chrome","118.0.0.0","Windows","10.0","null","es-419,es;q=0.9","true","302","tones/880hz_short.mp3","k","","","empty_block","","65","","","","null","null",""
"","","","","","html-button-response","29","210606","0.0-19.0","50","1","2023-11-01 03:22:25","a725c3012b74bf33a1020a98cb69c237","24.232.215.58","Mozilla/5.0 (Windows NT 10.0; Win64; x64) AppleWebKit/537.36 (KHTML, like Gecko) Chrome/118.0.0.0 Safari/537.36","WebKit","Chrome","118.0.0.0","Windows","10.0","null","es-419,es;q=0.9","true","9304","
  <h1> Muy bien </h1>
  <p> Ahora, en vez de ser presentados en dígitos, los números vendrán escritos en palabras. </p>
  <p> Por ejemplo, en vez de 44 te aparecerá ""cuarenta y cuatro"". </p>
  ","0","","","","","","","","","","",""
"","","","","","html-keyboard-response","30","213488","0.0-20.0-0.0","50","1","2023-11-01 03:22:25","a725c3012b74bf33a1020a98cb69c237","24.232.215.58","Mozilla/5.0 (Windows NT 10.0; Win64; x64) AppleWebKit/537.36 (KHTML, like Gecko) Chrome/118.0.0.0 Safari/537.36","WebKit","Chrome","118.0.0.0","Windows","10.0","null","es-419,es;q=0.9","true","null","<div style=""font-size:100px;"">X</div>","null","","","fixation","","","","","","","",""
"","","","","","audio-keyboard-response","31","213878","0.0-20.0-1.0","50","1","2023-11-01 03:22:25","a725c3012b74bf33a1020a98cb69c237","24.232.215.58","Mozilla/5.0 (Windows NT 10.0; Win64; x64) AppleWebKit/537.36 (KHTML, like Gecko) Chrome/118.0.0.0 Safari/537.36","WebKit","Chrome","118.0.0.0","Windows","10.0","null","es-419,es;q=0.9","true","381","tones/440hz_short.mp3","a","","","tone_number_task","1000","veinticuatro","tones/440hz_short.mp3","1150","60","null","null",""
"","","","","","html-keyboard-response","32","214500","0.0-20.0-2.0-0.0","50","1","2023-11-01 03:22:25","a725c3012b74bf33a1020a98cb69c237","24.232.215.58","Mozilla/5.0 (Windows NT 10.0; Win64; x64) AppleWebKit/537.36 (KHTML, like Gecko) Chrome/118.0.0.0 Safari/537.36","WebKit","Chrome","118.0.0.0","Windows","10.0","null","es-419,es;q=0.9","true","null","","null","","","delay_block","","","","","","null","null",""
"","","","","","html-keyboard-response","33","214652","0.0-20.0-2.0-1.0","50","1","2023-11-01 03:22:25","a725c3012b74bf33a1020a98cb69c237","24.232.215.58","Mozilla/5.0 (Windows NT 10.0; Win64; x64) AppleWebKit/537.36 (KHTML, like Gecko) Chrome/118.0.0.0 Safari/537.36","WebKit","Chrome","118.0.0.0","Windows","10.0","null","es-419,es;q=0.9","true","null","<p id=""stimulus"" style=""font-size:60px;"">veinticuatro</p>","null","","","tone_number_task_remaining_before_delay","","veinticuatro","","769","60","null","null",""
"","","","","","html-keyboard-response","34","215557","0.0-20.0-5.0-0.0","50","1","2023-11-01 03:22:25","a725c3012b74bf33a1020a98cb69c237","24.232.215.58","Mozilla/5.0 (Windows NT 10.0; Win64; x64) AppleWebKit/537.36 (KHTML, like Gecko) Chrome/118.0.0.0 Safari/537.36","WebKit","Chrome","118.0.0.0","Windows","10.0","null","es-419,es;q=0.9","true","903","<p id=""stimulus"" style=""font-size:60px;"">veinticuatro</p>","j","","","empty_block","","veinticuatro","","","","null","null",""
"","","","","","html-button-response","35","238195","0.0-22.0","50","1","2023-11-01 03:22:25","a725c3012b74bf33a1020a98cb69c237","24.232.215.58","Mozilla/5.0 (Windows NT 10.0; Win64; x64) AppleWebKit/537.36 (KHTML, like Gecko) Chrome/118.0.0.0 Safari/537.36","WebKit","Chrome","118.0.0.0","Windows","10.0","null","es-419,es;q=0.9","true","22636","
  <h1> Fin del Entrenamiento </h1>
  <p> ¡Felicitaciones, terminaste el entrenamiento! Ahora vamos a comenzar con el experimento. </p>
  <p> Es importante tener en cuenta que consta de cuatro bloques.</p>
  <p> Podés aprovechar los momentos entre bloques para tomar un breve descanso o tomar agua entre cada uno</p>
  <p> Recordá que tenés que responder lo más rápido que puedas, pero sin equivocarte. </p>
  ","0","","","","","","","","","","",""
"","","","","","external-html","36","251227","0.0-23.0","50","1","2023-11-01 03:22:25","a725c3012b74bf33a1020a98cb69c237","24.232.215.58","Mozilla/5.0 (Windows NT 10.0; Win64; x64) AppleWebKit/537.36 (KHTML, like Gecko) Chrome/118.0.0.0 Safari/537.36","WebKit","Chrome","118.0.0.0","Windows","10.0","null","es-419,es;q=0.9","true","12588","","","","instructions/instructions_words_first.html","","","","","","","","",""
"","","","","","call-function","37","251229","0.0-24.0","50","1","2023-11-01 03:22:25","a725c3012b74bf33a1020a98cb69c237","24.232.215.58","Mozilla/5.0 (Windows NT 10.0; Win64; x64) AppleWebKit/537.36 (KHTML, like Gecko) Chrome/118.0.0.0 Safari/537.36","WebKit","Chrome","118.0.0.0","Windows","10.0","null","es-419,es;q=0.9","true","","","","","","","","","","","","","",""
"","","","","","html-keyboard-response","38","254109","0.0-25.0","50","1","2023-11-01 03:22:25","a725c3012b74bf33a1020a98cb69c237","24.232.215.58","Mozilla/5.0 (Windows NT 10.0; Win64; x64) AppleWebKit/537.36 (KHTML, like Gecko) Chrome/118.0.0.0 Safari/537.36","WebKit","Chrome","118.0.0.0","Windows","10.0","null","es-419,es;q=0.9","true","null","<div style=""font-size:100px;"">X</div>","null","","","fixation","","","","","","","",""
"","","","","","audio-keyboard-response","39","254364","0.0-26.0","50","1","2023-11-01 03:22:25","a725c3012b74bf33a1020a98cb69c237","24.232.215.58","Mozilla/5.0 (Windows NT 10.0; Win64; x64) AppleWebKit/537.36 (KHTML, like Gecko) Chrome/118.0.0.0 Safari/537.36","WebKit","Chrome","118.0.0.0","Windows","10.0","null","es-419,es;q=0.9","true","null","tones/440hz_short.mp3","null","","","tone_number_task","102.5","cuarenta y cuatro","tones/440hz_short.mp3","252.5","60","2","0",""
"","","","","","html-keyboard-response","40","254709","0.0-29.0-0.0","50","1","2023-11-01 03:22:25","a725c3012b74bf33a1020a98cb69c237","24.232.215.58","Mozilla/5.0 (Windows NT 10.0; Win64; x64) AppleWebKit/537.36 (KHTML, like Gecko) Chrome/118.0.0.0 Safari/537.36","WebKit","Chrome","118.0.0.0","Windows","10.0","null","es-419,es;q=0.9","true","343","tones/440hz_short.mp3","a","","","empty_block","","cuarenta y cuatro","","","","2","0",""
"","","","","","html-keyboard-response","41","255727","0.0-29.0-1.0","50","1","2023-11-01 03:22:25","a725c3012b74bf33a1020a98cb69c237","24.232.215.58","Mozilla/5.0 (Windows NT 10.0; Win64; x64) AppleWebKit/537.36 (KHTML, like Gecko) Chrome/118.0.0.0 Safari/537.36","WebKit","Chrome","118.0.0.0","Windows","10.0","null","es-419,es;q=0.9","true","1017","tones/440hz_short.mp3","j","","","empty_block","","cuarenta y cuatro","","","","2","0",""
"","","","","","html-keyboard-response","42","258609","0.0-31.0","50","1","2023-11-01 03:22:25","a725c3012b74bf33a1020a98cb69c237","24.232.215.58","Mozilla/5.0 (Windows NT 10.0; Win64; x64) AppleWebKit/537.36 (KHTML, like Gecko) Chrome/118.0.0.0 Safari/537.36","WebKit","Chrome","118.0.0.0","Windows","10.0","null","es-419,es;q=0.9","true","null","<div style=""font-size:100px;"">X</div>","null","","","fixation","","","","","","","",""
"","","","","","audio-keyboard-response","43","258864","0.0-32.0","50","1","2023-11-01 03:22:25","a725c3012b74bf33a1020a98cb69c237","24.232.215.58","Mozilla/5.0 (Windows NT 10.0; Win64; x64) AppleWebKit/537.36 (KHTML, like Gecko) Chrome/118.0.0.0 Safari/537.36","WebKit","Chrome","118.0.0.0","Windows","10.0","null","es-419,es;q=0.9","true","null","tones/440hz_short.mp3","null","","","tone_number_task","102.5","sesenta","tones/440hz_short.mp3","252.5","60","2","1",""
"","","","","","html-keyboard-response","44","259516","0.0-35.0-0.0","50","1","2023-11-01 03:22:25","a725c3012b74bf33a1020a98cb69c237","24.232.215.58","Mozilla/5.0 (Windows NT 10.0; Win64; x64) AppleWebKit/537.36 (KHTML, like Gecko) Chrome/118.0.0.0 Safari/537.36","WebKit","Chrome","118.0.0.0","Windows","10.0","null","es-419,es;q=0.9","true","649","tones/440hz_short.mp3","a","","","empty_block","","sesenta","","","","2","1",""
"","","","","","html-keyboard-response","45","259617","0.0-35.0-1.0","50","1","2023-11-01 03:22:25","a725c3012b74bf33a1020a98cb69c237","24.232.215.58","Mozilla/5.0 (Windows NT 10.0; Win64; x64) AppleWebKit/537.36 (KHTML, like Gecko) Chrome/118.0.0.0 Safari/537.36","WebKit","Chrome","118.0.0.0","Windows","10.0","null","es-419,es;q=0.9","true","99","tones/440hz_short.mp3","k","","","empty_block","","sesenta","","","","2","1",""
"","","","","","html-keyboard-response","46","262499","0.0-37.0","50","1","2023-11-01 03:22:25","a725c3012b74bf33a1020a98cb69c237","24.232.215.58","Mozilla/5.0 (Windows NT 10.0; Win64; x64) AppleWebKit/537.36 (KHTML, like Gecko) Chrome/118.0.0.0 Safari/537.36","WebKit","Chrome","118.0.0.0","Windows","10.0","null","es-419,es;q=0.9","true","null","<div style=""font-size:100px;"">X</div>","null","","","fixation","","","","","","","",""
"","","","","","audio-keyboard-response","47","263130","0.0-38.0","50","1","2023-11-01 03:22:25","a725c3012b74bf33a1020a98cb69c237","24.232.215.58","Mozilla/5.0 (Windows NT 10.0; Win64; x64) AppleWebKit/537.36 (KHTML, like Gecko) Chrome/118.0.0.0 Safari/537.36","WebKit","Chrome","118.0.0.0","Windows","10.0","null","es-419,es;q=0.9","true","629","tones/440hz_short.mp3","a","","","tone_number_task","992.5","treinta y cinco","tones/440hz_short.mp3","1142.5","60","2","2",""
"","","","","","html-keyboard-response","48","263494","0.0-39.0-0.0","50","1","2023-11-01 03:22:25","a725c3012b74bf33a1020a98cb69c237","24.232.215.58","Mozilla/5.0 (Windows NT 10.0; Win64; x64) AppleWebKit/537.36 (KHTML, like Gecko) Chrome/118.0.0.0 Safari/537.36","WebKit","Chrome","118.0.0.0","Windows","10.0","null","es-419,es;q=0.9","true","null","","null","","","delay_block","","","","","","2","2",""
"","","","","","html-keyboard-response","49","263647","0.0-39.0-1.0","50","1","2023-11-01 03:22:25","a725c3012b74bf33a1020a98cb69c237","24.232.215.58","Mozilla/5.0 (Windows NT 10.0; Win64; x64) AppleWebKit/537.36 (KHTML, like Gecko) Chrome/118.0.0.0 Safari/537.36","WebKit","Chrome","118.0.0.0","Windows","10.0","null","es-419,es;q=0.9","true","null","<p id=""stimulus"" style=""font-size:60px;"">treinta y cinco</p>","null","","","tone_number_task_remaining_before_delay","","treinta y cinco","","513.5","60","2","2",""
"","","","","","html-keyboard-response","50","264148","0.0-42.0-0.0","50","1","2023-11-01 03:22:25","a725c3012b74bf33a1020a98cb69c237","24.232.215.58","Mozilla/5.0 (Windows NT 10.0; Win64; x64) AppleWebKit/537.36 (KHTML, like Gecko) Chrome/118.0.0.0 Safari/537.36","WebKit","Chrome","118.0.0.0","Windows","10.0","null","es-419,es;q=0.9","true","499","<p id=""stimulus"" style=""font-size:60px;"">treinta y cinco</p>","j","","","empty_block","","treinta y cinco","","","","2","2",""
"","","","","","html-keyboard-response","51","267029","0.0-43.0","50","1","2023-11-01 03:22:25","a725c3012b74bf33a1020a98cb69c237","24.232.215.58","Mozilla/5.0 (Windows NT 10.0; Win64; x64) AppleWebKit/537.36 (KHTML, like Gecko) Chrome/118.0.0.0 Safari/537.36","WebKit","Chrome","118.0.0.0","Windows","10.0","null","es-419,es;q=0.9","true","null","<div style=""font-size:100px;"">X</div>","null","","","fixation","","","","","","","",""
"","","","","","audio-keyboard-response","52","267182","0.0-44.0","50","1","2023-11-01 03:22:25","a725c3012b74bf33a1020a98cb69c237","24.232.215.58","Mozilla/5.0 (Windows NT 10.0; Win64; x64) AppleWebKit/537.36 (KHTML, like Gecko) Chrome/118.0.0.0 Safari/537.36","WebKit","Chrome","118.0.0.0","Windows","10.0","null","es-419,es;q=0.9","true","null","tones/440hz_short.mp3","null","","","tone_number_task","0","sesenta y cinco","tones/440hz_short.mp3","150","60","2","3",""
"","","","","","html-keyboard-response","53","267550","0.0-47.0-0.0","50","1","2023-11-01 03:22:25","a725c3012b74bf33a1020a98cb69c237","24.232.215.58","Mozilla/5.0 (Windows NT 10.0; Win64; x64) AppleWebKit/537.36 (KHTML, like Gecko) Chrome/118.0.0.0 Safari/537.36","WebKit","Chrome","118.0.0.0","Windows","10.0","null","es-419,es;q=0.9","true","366","tones/440hz_short.mp3","a","","","empty_block","","sesenta y cinco","","","","2","3",""
"","","","","","html-keyboard-response","54","268058","0.0-47.0-1.0","50","1","2023-11-01 03:22:25","a725c3012b74bf33a1020a98cb69c237","24.232.215.58","Mozilla/5.0 (Windows NT 10.0; Win64; x64) AppleWebKit/537.36 (KHTML, like Gecko) Chrome/118.0.0.0 Safari/537.36","WebKit","Chrome","118.0.0.0","Windows","10.0","null","es-419,es;q=0.9","true","505","tones/440hz_short.mp3","k","","","empty_block","","sesenta y cinco","","","","2","3",""
"","","","","","html-keyboard-response","55","270940","0.0-49.0","50","1","2023-11-01 03:22:25","a725c3012b74bf33a1020a98cb69c237","24.232.215.58","Mozilla/5.0 (Windows NT 10.0; Win64; x64) AppleWebKit/537.36 (KHTML, like Gecko) Chrome/118.0.0.0 Safari/537.36","WebKit","Chrome","118.0.0.0","Windows","10.0","null","es-419,es;q=0.9","true","null","<div style=""font-size:100px;"">X</div>","null","","","fixation","","","","","","","",""
"","","","","","audio-keyboard-response","56","271477","0.0-50.0","50","1","2023-11-01 03:22:25","a725c3012b74bf33a1020a98cb69c237","24.232.215.58","Mozilla/5.0 (Windows NT 10.0; Win64; x64) AppleWebKit/537.36 (KHTML, like Gecko) Chrome/118.0.0.0 Safari/537.36","WebKit","Chrome","118.0.0.0","Windows","10.0","null","es-419,es;q=0.9","true","531","tones/880hz_short.mp3","s","","","tone_number_task","992.5","veintidós","tones/880hz_short.mp3","1142.5","60","2","4",""
"","","","","","html-keyboard-response","57","271940","0.0-51.0-0.0","50","1","2023-11-01 03:22:25","a725c3012b74bf33a1020a98cb69c237","24.232.215.58","Mozilla/5.0 (Windows NT 10.0; Win64; x64) AppleWebKit/537.36 (KHTML, like Gecko) Chrome/118.0.0.0 Safari/537.36","WebKit","Chrome","118.0.0.0","Windows","10.0","null","es-419,es;q=0.9","true","null","","null","","","delay_block","","","","","","2","4",""
"","","","","","html-keyboard-response","58","272092","0.0-51.0-1.0","50","1","2023-11-01 03:22:25","a725c3012b74bf33a1020a98cb69c237","24.232.215.58","Mozilla/5.0 (Windows NT 10.0; Win64; x64) AppleWebKit/537.36 (KHTML, like Gecko) Chrome/118.0.0.0 Safari/537.36","WebKit","Chrome","118.0.0.0","Windows","10.0","null","es-419,es;q=0.9","true","null","<p id=""stimulus"" style=""font-size:60px;"">veintidós</p>","null","","","tone_number_task_remaining_before_delay","","veintidós","","611.5","60","2","4",""
"","","","","","html-keyboard-response","59","272511","0.0-54.0-0.0","50","1","2023-11-01 03:22:25","a725c3012b74bf33a1020a98cb69c237","24.232.215.58","Mozilla/5.0 (Windows NT 10.0; Win64; x64) AppleWebKit/537.36 (KHTML, like Gecko) Chrome/118.0.0.0 Safari/537.36","WebKit","Chrome","118.0.0.0","Windows","10.0","null","es-419,es;q=0.9","true","416","<p id=""stimulus"" style=""font-size:60px;"">veintidós</p>","j","","","empty_block","","veintidós","","","","2","4",""
"","","","","","html-keyboard-response","60","275393","0.0-55.0","50","1","2023-11-01 03:22:25","a725c3012b74bf33a1020a98cb69c237","24.232.215.58","Mozilla/5.0 (Windows NT 10.0; Win64; x64) AppleWebKit/537.36 (KHTML, like Gecko) Chrome/118.0.0.0 Safari/537.36","WebKit","Chrome","118.0.0.0","Windows","10.0","null","es-419,es;q=0.9","true","null","<div style=""font-size:100px;"">X</div>","null","","","fixation","","","","","","","",""
"","","","","","audio-keyboard-response","61","275548","0.0-56.0","50","1","2023-11-01 03:22:25","a725c3012b74bf33a1020a98cb69c237","24.232.215.58","Mozilla/5.0 (Windows NT 10.0; Win64; x64) AppleWebKit/537.36 (KHTML, like Gecko) Chrome/118.0.0.0 Safari/537.36","WebKit","Chrome","118.0.0.0","Windows","10.0","null","es-419,es;q=0.9","true","null","tones/880hz_short.mp3","null","","","tone_number_task","0","cuarenta y tres","tones/880hz_short.mp3","150","60","2","5",""
"","","","","","html-keyboard-response","62","276723","0.0-59.0-0.0","50","1","2023-11-01 03:22:25","a725c3012b74bf33a1020a98cb69c237","24.232.215.58","Mozilla/5.0 (Windows NT 10.0; Win64; x64) AppleWebKit/537.36 (KHTML, like Gecko) Chrome/118.0.0.0 Safari/537.36","WebKit","Chrome","118.0.0.0","Windows","10.0","null","es-419,es;q=0.9","true","1172","tones/880hz_short.mp3","s","","","empty_block","","cuarenta y tres","","","","2","5",""
"","","","","","html-keyboard-response","63","277528","0.0-59.0-1.0","50","1","2023-11-01 03:22:25","a725c3012b74bf33a1020a98cb69c237","24.232.215.58","Mozilla/5.0 (Windows NT 10.0; Win64; x64) AppleWebKit/537.36 (KHTML, like Gecko) Chrome/118.0.0.0 Safari/537.36","WebKit","Chrome","118.0.0.0","Windows","10.0","null","es-419,es;q=0.9","true","804","tones/880hz_short.mp3","k","","","empty_block","","cuarenta y tres","","","","2","5",""
"","","","","","html-keyboard-response","64","280409","0.0-61.0","50","1","2023-11-01 03:22:25","a725c3012b74bf33a1020a98cb69c237","24.232.215.58","Mozilla/5.0 (Windows NT 10.0; Win64; x64) AppleWebKit/537.36 (KHTML, like Gecko) Chrome/118.0.0.0 Safari/537.36","WebKit","Chrome","118.0.0.0","Windows","10.0","null","es-419,es;q=0.9","true","null","<div style=""font-size:100px;"">X</div>","null","","","fixation","","","","","","","",""
"","","","","","audio-keyboard-response","65","280665","0.0-62.0","50","1","2023-11-01 03:22:25","a725c3012b74bf33a1020a98cb69c237","24.232.215.58","Mozilla/5.0 (Windows NT 10.0; Win64; x64) AppleWebKit/537.36 (KHTML, like Gecko) Chrome/118.0.0.0 Safari/537.36","WebKit","Chrome","118.0.0.0","Windows","10.0","null","es-419,es;q=0.9","true","null","tones/440hz_short.mp3","null","","","tone_number_task","102.5","cuarenta y nueve","tones/440hz_short.mp3","252.5","60","2","6",""
"","","","","","html-keyboard-response","66","281291","0.0-65.0-0.0","50","1","2023-11-01 03:22:25","a725c3012b74bf33a1020a98cb69c237","24.232.215.58","Mozilla/5.0 (Windows NT 10.0; Win64; x64) AppleWebKit/537.36 (KHTML, like Gecko) Chrome/118.0.0.0 Safari/537.36","WebKit","Chrome","118.0.0.0","Windows","10.0","null","es-419,es;q=0.9","true","624","tones/440hz_short.mp3","a","","","empty_block","","cuarenta y nueve","","","","2","6",""
"","","","","","html-keyboard-response","67","282494","0.0-65.0-1.0","50","1","2023-11-01 03:22:25","a725c3012b74bf33a1020a98cb69c237","24.232.215.58","Mozilla/5.0 (Windows NT 10.0; Win64; x64) AppleWebKit/537.36 (KHTML, like Gecko) Chrome/118.0.0.0 Safari/537.36","WebKit","Chrome","118.0.0.0","Windows","10.0","null","es-419,es;q=0.9","true","null","tones/440hz_short.mp3","null","","","empty_block","","cuarenta y nueve","","","","2","6",""
"","","","","","html-keyboard-response","68","285378","0.0-67.0","50","1","2023-11-01 03:22:25","a725c3012b74bf33a1020a98cb69c237","24.232.215.58","Mozilla/5.0 (Windows NT 10.0; Win64; x64) AppleWebKit/537.36 (KHTML, like Gecko) Chrome/118.0.0.0 Safari/537.36","WebKit","Chrome","118.0.0.0","Windows","10.0","null","es-419,es;q=0.9","true","null","<div style=""font-size:100px;"">X</div>","null","","","fixation","","","","","","","",""
"","","","","","audio-keyboard-response","69","285987","0.0-68.0","50","1","2023-11-01 03:22:25","a725c3012b74bf33a1020a98cb69c237","24.232.215.58","Mozilla/5.0 (Windows NT 10.0; Win64; x64) AppleWebKit/537.36 (KHTML, like Gecko) Chrome/118.0.0.0 Safari/537.36","WebKit","Chrome","118.0.0.0","Windows","10.0","null","es-419,es;q=0.9","true","600","tones/880hz_short.mp3","s","","","tone_number_task","1025","sesenta y ocho","tones/880hz_short.mp3","1175","60","2","7",""
"","","","","","html-keyboard-response","70","286417","0.0-69.0-0.0","50","1","2023-11-01 03:22:25","a725c3012b74bf33a1020a98cb69c237","24.232.215.58","Mozilla/5.0 (Windows NT 10.0; Win64; x64) AppleWebKit/537.36 (KHTML, like Gecko) Chrome/118.0.0.0 Safari/537.36","WebKit","Chrome","118.0.0.0","Windows","10.0","null","es-419,es;q=0.9","true","null","","null","","","delay_block","","","","","","2","7",""
"","","","","","html-keyboard-response","71","286570","0.0-69.0-1.0","50","1","2023-11-01 03:22:25","a725c3012b74bf33a1020a98cb69c237","24.232.215.58","Mozilla/5.0 (Windows NT 10.0; Win64; x64) AppleWebKit/537.36 (KHTML, like Gecko) Chrome/118.0.0.0 Safari/537.36","WebKit","Chrome","118.0.0.0","Windows","10.0","null","es-419,es;q=0.9","true","null","<p id=""stimulus"" style=""font-size:60px;"">sesenta y ocho</p>","null","","","tone_number_task_remaining_before_delay","","sesenta y ocho","","575","60","2","7",""
"","","","","","html-keyboard-response","72","287225","0.0-72.0-0.0","50","1","2023-11-01 03:22:25","a725c3012b74bf33a1020a98cb69c237","24.232.215.58","Mozilla/5.0 (Windows NT 10.0; Win64; x64) AppleWebKit/537.36 (KHTML, like Gecko) Chrome/118.0.0.0 Safari/537.36","WebKit","Chrome","118.0.0.0","Windows","10.0","null","es-419,es;q=0.9","true","651","<p id=""stimulus"" style=""font-size:60px;"">sesenta y ocho</p>","k","","","empty_block","","sesenta y ocho","","","","2","7",""
"","","","","","html-keyboard-response","73","290107","0.0-73.0","50","1","2023-11-01 03:22:25","a725c3012b74bf33a1020a98cb69c237","24.232.215.58","Mozilla/5.0 (Windows NT 10.0; Win64; x64) AppleWebKit/537.36 (KHTML, like Gecko) Chrome/118.0.0.0 Safari/537.36","WebKit","Chrome","118.0.0.0","Windows","10.0","null","es-419,es;q=0.9","true","null","<div style=""font-size:100px;"">X</div>","null","","","fixation","","","","","","","",""
"","","","","","audio-keyboard-response","74","291055","0.0-74.0","50","1","2023-11-01 03:22:25","a725c3012b74bf33a1020a98cb69c237","24.232.215.58","Mozilla/5.0 (Windows NT 10.0; Win64; x64) AppleWebKit/537.36 (KHTML, like Gecko) Chrome/118.0.0.0 Safari/537.36","WebKit","Chrome","118.0.0.0","Windows","10.0","null","es-419,es;q=0.9","true","939","tones/440hz_short.mp3","a","","","tone_number_task","1025","sesenta y cinco","tones/440hz_short.mp3","1175","60","2","8",""
"","","","","","html-keyboard-response","75","291143","0.0-75.0-0.0","50","1","2023-11-01 03:22:25","a725c3012b74bf33a1020a98cb69c237","24.232.215.58","Mozilla/5.0 (Windows NT 10.0; Win64; x64) AppleWebKit/537.36 (KHTML, like Gecko) Chrome/118.0.0.0 Safari/537.36","WebKit","Chrome","118.0.0.0","Windows","10.0","null","es-419,es;q=0.9","true","null","","null","","","delay_block","","","","","","2","8",""
"","","","","","html-keyboard-response","76","291299","0.0-75.0-1.0","50","1","2023-11-01 03:22:25","a725c3012b74bf33a1020a98cb69c237","24.232.215.58","Mozilla/5.0 (Windows NT 10.0; Win64; x64) AppleWebKit/537.36 (KHTML, like Gecko) Chrome/118.0.0.0 Safari/537.36","WebKit","Chrome","118.0.0.0","Windows","10.0","null","es-419,es;q=0.9","true","null","<p id=""stimulus"" style=""font-size:60px;"">sesenta y cinco</p>","null","","","tone_number_task_remaining_before_delay","","sesenta y cinco","","236","60","2","8",""
"","","","","","html-keyboard-response","77","291873","0.0-78.0-0.0","50","1","2023-11-01 03:22:25","a725c3012b74bf33a1020a98cb69c237","24.232.215.58","Mozilla/5.0 (Windows NT 10.0; Win64; x64) AppleWebKit/537.36 (KHTML, like Gecko) Chrome/118.0.0.0 Safari/537.36","WebKit","Chrome","118.0.0.0","Windows","10.0","null","es-419,es;q=0.9","true","570","<p id=""stimulus"" style=""font-size:60px;"">sesenta y cinco</p>","k","","","empty_block","","sesenta y cinco","","","","2","8",""
"","","","","","html-keyboard-response","78","294755","0.0-79.0","50","1","2023-11-01 03:22:25","a725c3012b74bf33a1020a98cb69c237","24.232.215.58","Mozilla/5.0 (Windows NT 10.0; Win64; x64) AppleWebKit/537.36 (KHTML, like Gecko) Chrome/118.0.0.0 Safari/537.36","WebKit","Chrome","118.0.0.0","Windows","10.0","null","es-419,es;q=0.9","true","null","<div style=""font-size:100px;"">X</div>","null","","","fixation","","","","","","","",""
"","","","","","audio-keyboard-response","79","295509","0.0-80.0","50","1","2023-11-01 03:22:25","a725c3012b74bf33a1020a98cb69c237","24.232.215.58","Mozilla/5.0 (Windows NT 10.0; Win64; x64) AppleWebKit/537.36 (KHTML, like Gecko) Chrome/118.0.0.0 Safari/537.36","WebKit","Chrome","118.0.0.0","Windows","10.0","null","es-419,es;q=0.9","true","760","tones/880hz_short.mp3","a","","","tone_number_task","1025","cincuenta y dos","tones/880hz_short.mp3","1175","60","2","9",""
"","","","","","html-keyboard-response","80","295778","0.0-81.0-0.0","50","1","2023-11-01 03:22:25","a725c3012b74bf33a1020a98cb69c237","24.232.215.58","Mozilla/5.0 (Windows NT 10.0; Win64; x64) AppleWebKit/537.36 (KHTML, like Gecko) Chrome/118.0.0.0 Safari/537.36","WebKit","Chrome","118.0.0.0","Windows","10.0","null","es-419,es;q=0.9","true","null","","null","","","delay_block","","","","","","2","9",""
"","","","","","html-keyboard-response","81","295933","0.0-81.0-1.0","50","1","2023-11-01 03:22:25","a725c3012b74bf33a1020a98cb69c237","24.232.215.58","Mozilla/5.0 (Windows NT 10.0; Win64; x64) AppleWebKit/537.36 (KHTML, like Gecko) Chrome/118.0.0.0 Safari/537.36","WebKit","Chrome","118.0.0.0","Windows","10.0","null","es-419,es;q=0.9","true","null","<p id=""stimulus"" style=""font-size:60px;"">cincuenta y dos</p>","null","","","tone_number_task_remaining_before_delay","","cincuenta y dos","","415","60","2","9",""
"","","","","","html-keyboard-response","82","296980","0.0-84.0-0.0","50","1","2023-11-01 03:22:25","a725c3012b74bf33a1020a98cb69c237","24.232.215.58","Mozilla/5.0 (Windows NT 10.0; Win64; x64) AppleWebKit/537.36 (KHTML, like Gecko) Chrome/118.0.0.0 Safari/537.36","WebKit","Chrome","118.0.0.0","Windows","10.0","null","es-419,es;q=0.9","true","1044","<p id=""stimulus"" style=""font-size:60px;"">cincuenta y dos</p>","k","","","empty_block","","cincuenta y dos","","","","2","9",""
"","","","","","html-keyboard-response","83","299862","0.0-85.0","50","1","2023-11-01 03:22:25","a725c3012b74bf33a1020a98cb69c237","24.232.215.58","Mozilla/5.0 (Windows NT 10.0; Win64; x64) AppleWebKit/537.36 (KHTML, like Gecko) Chrome/118.0.0.0 Safari/537.36","WebKit","Chrome","118.0.0.0","Windows","10.0","null","es-419,es;q=0.9","true","null","<div style=""font-size:100px;"">X</div>","null","","","fixation","","","","","","","",""
"","","","","","audio-keyboard-response","84","300118","0.0-86.0","50","1","2023-11-01 03:22:25","a725c3012b74bf33a1020a98cb69c237","24.232.215.58","Mozilla/5.0 (Windows NT 10.0; Win64; x64) AppleWebKit/537.36 (KHTML, like Gecko) Chrome/118.0.0.0 Safari/537.36","WebKit","Chrome","118.0.0.0","Windows","10.0","null","es-419,es;q=0.9","true","null","tones/440hz_short.mp3","null","","","tone_number_task","102.5","veintinueve","tones/440hz_short.mp3","252.5","60","2","10",""
"","","","","","html-keyboard-response","85","300497","0.0-89.0-0.0","50","1","2023-11-01 03:22:25","a725c3012b74bf33a1020a98cb69c237","24.232.215.58","Mozilla/5.0 (Windows NT 10.0; Win64; x64) AppleWebKit/537.36 (KHTML, like Gecko) Chrome/118.0.0.0 Safari/537.36","WebKit","Chrome","118.0.0.0","Windows","10.0","null","es-419,es;q=0.9","true","374","tones/440hz_short.mp3","a","","","empty_block","","veintinueve","","","","2","10",""
"","","","","","html-keyboard-response","86","300910","0.0-89.0-1.0","50","1","2023-11-01 03:22:25","a725c3012b74bf33a1020a98cb69c237","24.232.215.58","Mozilla/5.0 (Windows NT 10.0; Win64; x64) AppleWebKit/537.36 (KHTML, like Gecko) Chrome/118.0.0.0 Safari/537.36","WebKit","Chrome","118.0.0.0","Windows","10.0","null","es-419,es;q=0.9","true","412","tones/440hz_short.mp3","j","","","empty_block","","veintinueve","","","","2","10",""
"","","","","","html-keyboard-response","87","303794","0.0-91.0","50","1","2023-11-01 03:22:25","a725c3012b74bf33a1020a98cb69c237","24.232.215.58","Mozilla/5.0 (Windows NT 10.0; Win64; x64) AppleWebKit/537.36 (KHTML, like Gecko) Chrome/118.0.0.0 Safari/537.36","WebKit","Chrome","118.0.0.0","Windows","10.0","null","es-419,es;q=0.9","true","null","<div style=""font-size:100px;"">X</div>","null","","","fixation","","","","","","","",""
"","","","","","audio-keyboard-response","88","304523","0.0-92.0","50","1","2023-11-01 03:22:25","a725c3012b74bf33a1020a98cb69c237","24.232.215.58","Mozilla/5.0 (Windows NT 10.0; Win64; x64) AppleWebKit/537.36 (KHTML, like Gecko) Chrome/118.0.0.0 Safari/537.36","WebKit","Chrome","118.0.0.0","Windows","10.0","null","es-419,es;q=0.9","true","728","tones/880hz_short.mp3","s","","","tone_number_task","992.5","cincuenta y tres","tones/880hz_short.mp3","1142.5","60","2","11",""
"","","","","","html-keyboard-response","89","304790","0.0-93.0-0.0","50","1","2023-11-01 03:22:25","a725c3012b74bf33a1020a98cb69c237","24.232.215.58","Mozilla/5.0 (Windows NT 10.0; Win64; x64) AppleWebKit/537.36 (KHTML, like Gecko) Chrome/118.0.0.0 Safari/537.36","WebKit","Chrome","118.0.0.0","Windows","10.0","null","es-419,es;q=0.9","true","null","","null","","","delay_block","","","","","","2","11",""
"","","","","","html-keyboard-response","90","304942","0.0-93.0-1.0","50","1","2023-11-01 03:22:25","a725c3012b74bf33a1020a98cb69c237","24.232.215.58","Mozilla/5.0 (Windows NT 10.0; Win64; x64) AppleWebKit/537.36 (KHTML, like Gecko) Chrome/118.0.0.0 Safari/537.36","WebKit","Chrome","118.0.0.0","Windows","10.0","null","es-419,es;q=0.9","true","null","<p id=""stimulus"" style=""font-size:60px;"">cincuenta y tres</p>","null","","","tone_number_task_remaining_before_delay","","cincuenta y tres","","414.5","60","2","11",""
"","","","","","html-keyboard-response","91","306010","0.0-96.0-0.0","50","1","2023-11-01 03:22:25","a725c3012b74bf33a1020a98cb69c237","24.232.215.58","Mozilla/5.0 (Windows NT 10.0; Win64; x64) AppleWebKit/537.36 (KHTML, like Gecko) Chrome/118.0.0.0 Safari/537.36","WebKit","Chrome","118.0.0.0","Windows","10.0","null","es-419,es;q=0.9","true","1063","<p id=""stimulus"" style=""font-size:60px;"">cincuenta y tres</p>","k","","","empty_block","","cincuenta y tres","","","","2","11",""
"","","","","","html-keyboard-response","92","308893","0.0-97.0","50","1","2023-11-01 03:22:25","a725c3012b74bf33a1020a98cb69c237","24.232.215.58","Mozilla/5.0 (Windows NT 10.0; Win64; x64) AppleWebKit/537.36 (KHTML, like Gecko) Chrome/118.0.0.0 Safari/537.36","WebKit","Chrome","118.0.0.0","Windows","10.0","null","es-419,es;q=0.9","true","null","<div style=""font-size:100px;"">X</div>","null","","","fixation","","","","","","","",""
"","","","","","audio-keyboard-response","93","309048","0.0-98.0","50","1","2023-11-01 03:22:25","a725c3012b74bf33a1020a98cb69c237","24.232.215.58","Mozilla/5.0 (Windows NT 10.0; Win64; x64) AppleWebKit/537.36 (KHTML, like Gecko) Chrome/118.0.0.0 Safari/537.36","WebKit","Chrome","118.0.0.0","Windows","10.0","null","es-419,es;q=0.9","true","null","tones/440hz_short.mp3","null","","","tone_number_task","0","treinta y tres","tones/440hz_short.mp3","150","60","2","12",""
"","","","","","html-keyboard-response","94","309654","0.0-101.0-0.0","50","1","2023-11-01 03:22:25","a725c3012b74bf33a1020a98cb69c237","24.232.215.58","Mozilla/5.0 (Windows NT 10.0; Win64; x64) AppleWebKit/537.36 (KHTML, like Gecko) Chrome/118.0.0.0 Safari/537.36","WebKit","Chrome","118.0.0.0","Windows","10.0","null","es-419,es;q=0.9","true","604","tones/440hz_short.mp3","a","","","empty_block","","treinta y tres","","","","2","12",""
"","","","","","html-keyboard-response","95","310280","0.0-101.0-1.0","50","1","2023-11-01 03:22:25","a725c3012b74bf33a1020a98cb69c237","24.232.215.58","Mozilla/5.0 (Windows NT 10.0; Win64; x64) AppleWebKit/537.36 (KHTML, like Gecko) Chrome/118.0.0.0 Safari/537.36","WebKit","Chrome","118.0.0.0","Windows","10.0","null","es-419,es;q=0.9","true","625","tones/440hz_short.mp3","j","","","empty_block","","treinta y tres","","","","2","12",""
"","","","","","html-keyboard-response","96","313162","0.0-103.0","50","1","2023-11-01 03:22:25","a725c3012b74bf33a1020a98cb69c237","24.232.215.58","Mozilla/5.0 (Windows NT 10.0; Win64; x64) AppleWebKit/537.36 (KHTML, like Gecko) Chrome/118.0.0.0 Safari/537.36","WebKit","Chrome","118.0.0.0","Windows","10.0","null","es-419,es;q=0.9","true","null","<div style=""font-size:100px;"">X</div>","null","","","fixation","","","","","","","",""
"","","","","","audio-keyboard-response","97","313861","0.0-104.0","50","1","2023-11-01 03:22:25","a725c3012b74bf33a1020a98cb69c237","24.232.215.58","Mozilla/5.0 (Windows NT 10.0; Win64; x64) AppleWebKit/537.36 (KHTML, like Gecko) Chrome/118.0.0.0 Safari/537.36","WebKit","Chrome","118.0.0.0","Windows","10.0","null","es-419,es;q=0.9","true","701","tones/440hz_short.mp3","a","","","tone_number_task","1025","treinta y dos","tones/440hz_short.mp3","1175","60","2","13",""
"","","","","","html-keyboard-response","98","314189","0.0-105.0-0.0","50","1","2023-11-01 03:22:25","a725c3012b74bf33a1020a98cb69c237","24.232.215.58","Mozilla/5.0 (Windows NT 10.0; Win64; x64) AppleWebKit/537.36 (KHTML, like Gecko) Chrome/118.0.0.0 Safari/537.36","WebKit","Chrome","118.0.0.0","Windows","10.0","null","es-419,es;q=0.9","true","null","","null","","","delay_block","","","","","","2","13",""
"","","","","","html-keyboard-response","99","314344","0.0-105.0-1.0","50","1","2023-11-01 03:22:25","a725c3012b74bf33a1020a98cb69c237","24.232.215.58","Mozilla/5.0 (Windows NT 10.0; Win64; x64) AppleWebKit/537.36 (KHTML, like Gecko) Chrome/118.0.0.0 Safari/537.36","WebKit","Chrome","118.0.0.0","Windows","10.0","null","es-419,es;q=0.9","true","null","<p id=""stimulus"" style=""font-size:60px;"">treinta y dos</p>","null","","","tone_number_task_remaining_before_delay","","treinta y dos","","474","60","2","13",""
"","","","","","html-keyboard-response","100","314909","0.0-108.0-0.0","50","1","2023-11-01 03:22:25","a725c3012b74bf33a1020a98cb69c237","24.232.215.58","Mozilla/5.0 (Windows NT 10.0; Win64; x64) AppleWebKit/537.36 (KHTML, like Gecko) Chrome/118.0.0.0 Safari/537.36","WebKit","Chrome","118.0.0.0","Windows","10.0","null","es-419,es;q=0.9","true","561","<p id=""stimulus"" style=""font-size:60px;"">treinta y dos</p>","j","","","empty_block","","treinta y dos","","","","2","13",""
"","","","","","html-keyboard-response","101","317800","0.0-109.0","50","1","2023-11-01 03:22:25","a725c3012b74bf33a1020a98cb69c237","24.232.215.58","Mozilla/5.0 (Windows NT 10.0; Win64; x64) AppleWebKit/537.36 (KHTML, like Gecko) Chrome/118.0.0.0 Safari/537.36","WebKit","Chrome","118.0.0.0","Windows","10.0","null","es-419,es;q=0.9","true","null","<div style=""font-size:100px;"">X</div>","null","","","fixation","","","","","","","",""
"","","","","","audio-keyboard-response","102","318057","0.0-110.0","50","1","2023-11-01 03:22:25","a725c3012b74bf33a1020a98cb69c237","24.232.215.58","Mozilla/5.0 (Windows NT 10.0; Win64; x64) AppleWebKit/537.36 (KHTML, like Gecko) Chrome/118.0.0.0 Safari/537.36","WebKit","Chrome","118.0.0.0","Windows","10.0","null","es-419,es;q=0.9","true","null","tones/440hz_short.mp3","null","","","tone_number_task","102.5","veintiocho","tones/440hz_short.mp3","252.5","60","2","14",""
"","","","","","html-keyboard-response","103","318488","0.0-113.0-0.0","50","1","2023-11-01 03:22:25","a725c3012b74bf33a1020a98cb69c237","24.232.215.58","Mozilla/5.0 (Windows NT 10.0; Win64; x64) AppleWebKit/537.36 (KHTML, like Gecko) Chrome/118.0.0.0 Safari/537.36","WebKit","Chrome","118.0.0.0","Windows","10.0","null","es-419,es;q=0.9","true","428","tones/440hz_short.mp3","a","","","empty_block","","veintiocho","","","","2","14",""
"","","","","","html-keyboard-response","104","318803","0.0-113.0-1.0","50","1","2023-11-01 03:22:25","a725c3012b74bf33a1020a98cb69c237","24.232.215.58","Mozilla/5.0 (Windows NT 10.0; Win64; x64) AppleWebKit/537.36 (KHTML, like Gecko) Chrome/118.0.0.0 Safari/537.36","WebKit","Chrome","118.0.0.0","Windows","10.0","null","es-419,es;q=0.9","true","313","tones/440hz_short.mp3","j","","","empty_block","","veintiocho","","","","2","14",""
"","","","","","html-keyboard-response","105","321685","0.0-115.0","50","1","2023-11-01 03:22:25","a725c3012b74bf33a1020a98cb69c237","24.232.215.58","Mozilla/5.0 (Windows NT 10.0; Win64; x64) AppleWebKit/537.36 (KHTML, like Gecko) Chrome/118.0.0.0 Safari/537.36","WebKit","Chrome","118.0.0.0","Windows","10.0","null","es-419,es;q=0.9","true","null","<div style=""font-size:100px;"">X</div>","null","","","fixation","","","","","","","",""
"","","","","","audio-keyboard-response","106","322532","0.0-116.0","50","1","2023-11-01 03:22:25","a725c3012b74bf33a1020a98cb69c237","24.232.215.58","Mozilla/5.0 (Windows NT 10.0; Win64; x64) AppleWebKit/537.36 (KHTML, like Gecko) Chrome/118.0.0.0 Safari/537.36","WebKit","Chrome","118.0.0.0","Windows","10.0","null","es-419,es;q=0.9","true","840","tones/880hz_short.mp3","s","","","tone_number_task","992.5","veinticuatro","tones/880hz_short.mp3","1142.5","60","2","15",""
"","","","","","html-keyboard-response","107","322687","0.0-117.0-0.0","50","1","2023-11-01 03:22:25","a725c3012b74bf33a1020a98cb69c237","24.232.215.58","Mozilla/5.0 (Windows NT 10.0; Win64; x64) AppleWebKit/537.36 (KHTML, like Gecko) Chrome/118.0.0.0 Safari/537.36","WebKit","Chrome","118.0.0.0","Windows","10.0","null","es-419,es;q=0.9","true","null","","null","","","delay_block","","","","","","2","15",""
"","","","","","html-keyboard-response","108","322840","0.0-117.0-1.0","50","1","2023-11-01 03:22:25","a725c3012b74bf33a1020a98cb69c237","24.232.215.58","Mozilla/5.0 (Windows NT 10.0; Win64; x64) AppleWebKit/537.36 (KHTML, like Gecko) Chrome/118.0.0.0 Safari/537.36","WebKit","Chrome","118.0.0.0","Windows","10.0","null","es-419,es;q=0.9","true","null","<p id=""stimulus"" style=""font-size:60px;"">veinticuatro</p>","null","","","tone_number_task_remaining_before_delay","","veinticuatro","","302.5","60","2","15",""
"","","","","","html-keyboard-response","109","323456","0.0-120.0-0.0","50","1","2023-11-01 03:22:25","a725c3012b74bf33a1020a98cb69c237","24.232.215.58","Mozilla/5.0 (Windows NT 10.0; Win64; x64) AppleWebKit/537.36 (KHTML, like Gecko) Chrome/118.0.0.0 Safari/537.36","WebKit","Chrome","118.0.0.0","Windows","10.0","null","es-419,es;q=0.9","true","615","<p id=""stimulus"" style=""font-size:60px;"">veinticuatro</p>","j","","","empty_block","","veinticuatro","","","","2","15",""
"","","","","","html-keyboard-response","110","326340","0.0-121.0","50","1","2023-11-01 03:22:25","a725c3012b74bf33a1020a98cb69c237","24.232.215.58","Mozilla/5.0 (Windows NT 10.0; Win64; x64) AppleWebKit/537.36 (KHTML, like Gecko) Chrome/118.0.0.0 Safari/537.36","WebKit","Chrome","118.0.0.0","Windows","10.0","null","es-419,es;q=0.9","true","null","<div style=""font-size:100px;"">X</div>","null","","","fixation","","","","","","","",""
"","","","","","audio-keyboard-response","111","326893","0.0-122.0","50","1","2023-11-01 03:22:25","a725c3012b74bf33a1020a98cb69c237","24.232.215.58","Mozilla/5.0 (Windows NT 10.0; Win64; x64) AppleWebKit/537.36 (KHTML, like Gecko) Chrome/118.0.0.0 Safari/537.36","WebKit","Chrome","118.0.0.0","Windows","10.0","null","es-419,es;q=0.9","true","549","tones/880hz_short.mp3","s","","","tone_number_task","992.5","sesenta y dos","tones/880hz_short.mp3","1142.5","60","2","16",""
"","","","","","html-keyboard-response","112","327339","0.0-123.0-0.0","50","1","2023-11-01 03:22:25","a725c3012b74bf33a1020a98cb69c237","24.232.215.58","Mozilla/5.0 (Windows NT 10.0; Win64; x64) AppleWebKit/537.36 (KHTML, like Gecko) Chrome/118.0.0.0 Safari/537.36","WebKit","Chrome","118.0.0.0","Windows","10.0","null","es-419,es;q=0.9","true","null","","null","","","delay_block","","","","","","2","16",""
"","","","","","html-keyboard-response","113","327495","0.0-123.0-1.0","50","1","2023-11-01 03:22:25","a725c3012b74bf33a1020a98cb69c237","24.232.215.58","Mozilla/5.0 (Windows NT 10.0; Win64; x64) AppleWebKit/537.36 (KHTML, like Gecko) Chrome/118.0.0.0 Safari/537.36","WebKit","Chrome","118.0.0.0","Windows","10.0","null","es-419,es;q=0.9","true","null","<p id=""stimulus"" style=""font-size:60px;"">sesenta y dos</p>","null","","","tone_number_task_remaining_before_delay","","sesenta y dos","","593.5","60","2","16",""
"","","","","","html-keyboard-response","114","328125","0.0-126.0-0.0","50","1","2023-11-01 03:22:25","a725c3012b74bf33a1020a98cb69c237","24.232.215.58","Mozilla/5.0 (Windows NT 10.0; Win64; x64) AppleWebKit/537.36 (KHTML, like Gecko) Chrome/118.0.0.0 Safari/537.36","WebKit","Chrome","118.0.0.0","Windows","10.0","null","es-419,es;q=0.9","true","628","<p id=""stimulus"" style=""font-size:60px;"">sesenta y dos</p>","k","","","empty_block","","sesenta y dos","","","","2","16",""
"","","","","","html-keyboard-response","115","331010","0.0-127.0","50","1","2023-11-01 03:22:25","a725c3012b74bf33a1020a98cb69c237","24.232.215.58","Mozilla/5.0 (Windows NT 10.0; Win64; x64) AppleWebKit/537.36 (KHTML, like Gecko) Chrome/118.0.0.0 Safari/537.36","WebKit","Chrome","118.0.0.0","Windows","10.0","null","es-419,es;q=0.9","true","null","<div style=""font-size:100px;"">X</div>","null","","","fixation","","","","","","","",""
"","","","","","audio-keyboard-response","116","331588","0.0-128.0","50","1","2023-11-01 03:22:25","a725c3012b74bf33a1020a98cb69c237","24.232.215.58","Mozilla/5.0 (Windows NT 10.0; Win64; x64) AppleWebKit/537.36 (KHTML, like Gecko) Chrome/118.0.0.0 Safari/537.36","WebKit","Chrome","118.0.0.0","Windows","10.0","null","es-419,es;q=0.9","true","571","tones/440hz_short.mp3","a","","","tone_number_task","992.5","cuarenta y nueve","tones/440hz_short.mp3","1142.5","60","2","17",""
"","","","","","html-keyboard-response","117","332013","0.0-129.0-0.0","50","1","2023-11-01 03:22:25","a725c3012b74bf33a1020a98cb69c237","24.232.215.58","Mozilla/5.0 (Windows NT 10.0; Win64; x64) AppleWebKit/537.36 (KHTML, like Gecko) Chrome/118.0.0.0 Safari/537.36","WebKit","Chrome","118.0.0.0","Windows","10.0","null","es-419,es;q=0.9","true","null","","null","","","delay_block","","","","","","2","17",""
"","","","","","html-keyboard-response","118","332167","0.0-129.0-1.0","50","1","2023-11-01 03:22:25","a725c3012b74bf33a1020a98cb69c237","24.232.215.58","Mozilla/5.0 (Windows NT 10.0; Win64; x64) AppleWebKit/537.36 (KHTML, like Gecko) Chrome/118.0.0.0 Safari/537.36","WebKit","Chrome","118.0.0.0","Windows","10.0","null","es-419,es;q=0.9","true","null","<p id=""stimulus"" style=""font-size:60px;"">cuarenta y nueve</p>","null","","","tone_number_task_remaining_before_delay","","cuarenta y nueve","","571.5","60","2","17",""
"","","","","","html-keyboard-response","119","333372","0.0-132.0-0.0","50","1","2023-11-01 03:22:25","a725c3012b74bf33a1020a98cb69c237","24.232.215.58","Mozilla/5.0 (Windows NT 10.0; Win64; x64) AppleWebKit/537.36 (KHTML, like Gecko) Chrome/118.0.0.0 Safari/537.36","WebKit","Chrome","118.0.0.0","Windows","10.0","null","es-419,es;q=0.9","true","null","<p id=""stimulus"" style=""font-size:60px;"">cuarenta y nueve</p>","null","","","empty_block","","cuarenta y nueve","","","","2","17",""
"","","","","","html-keyboard-response","120","336255","0.0-133.0","50","1","2023-11-01 03:22:25","a725c3012b74bf33a1020a98cb69c237","24.232.215.58","Mozilla/5.0 (Windows NT 10.0; Win64; x64) AppleWebKit/537.36 (KHTML, like Gecko) Chrome/118.0.0.0 Safari/537.36","WebKit","Chrome","118.0.0.0","Windows","10.0","null","es-419,es;q=0.9","true","null","<div style=""font-size:100px;"">X</div>","null","","","fixation","","","","","","","",""
"","","","","","audio-keyboard-response","121","336510","0.0-134.0","50","1","2023-11-01 03:22:25","a725c3012b74bf33a1020a98cb69c237","24.232.215.58","Mozilla/5.0 (Windows NT 10.0; Win64; x64) AppleWebKit/537.36 (KHTML, like Gecko) Chrome/118.0.0.0 Safari/537.36","WebKit","Chrome","118.0.0.0","Windows","10.0","null","es-419,es;q=0.9","true","null","tones/880hz_short.mp3","null","","","tone_number_task","102.5","veintiuno","tones/880hz_short.mp3","252.5","60","2","18",""
"","","","","","html-keyboard-response","122","336915","0.0-137.0-0.0","50","1","2023-11-01 03:22:25","a725c3012b74bf33a1020a98cb69c237","24.232.215.58","Mozilla/5.0 (Windows NT 10.0; Win64; x64) AppleWebKit/537.36 (KHTML, like Gecko) Chrome/118.0.0.0 Safari/537.36","WebKit","Chrome","118.0.0.0","Windows","10.0","null","es-419,es;q=0.9","true","400","tones/880hz_short.mp3","s","","","empty_block","","veintiuno","","","","2","18",""
"","","","","","html-keyboard-response","123","337452","0.0-137.0-1.0","50","1","2023-11-01 03:22:25","a725c3012b74bf33a1020a98cb69c237","24.232.215.58","Mozilla/5.0 (Windows NT 10.0; Win64; x64) AppleWebKit/537.36 (KHTML, like Gecko) Chrome/118.0.0.0 Safari/537.36","WebKit","Chrome","118.0.0.0","Windows","10.0","null","es-419,es;q=0.9","true","533","tones/880hz_short.mp3","j","","","empty_block","","veintiuno","","","","2","18",""
"","","","","","html-keyboard-response","124","340335","0.0-139.0","50","1","2023-11-01 03:22:25","a725c3012b74bf33a1020a98cb69c237","24.232.215.58","Mozilla/5.0 (Windows NT 10.0; Win64; x64) AppleWebKit/537.36 (KHTML, like Gecko) Chrome/118.0.0.0 Safari/537.36","WebKit","Chrome","118.0.0.0","Windows","10.0","null","es-419,es;q=0.9","true","null","<div style=""font-size:100px;"">X</div>","null","","","fixation","","","","","","","",""
"","","","","","audio-keyboard-response","125","340490","0.0-140.0","50","1","2023-11-01 03:22:25","a725c3012b74bf33a1020a98cb69c237","24.232.215.58","Mozilla/5.0 (Windows NT 10.0; Win64; x64) AppleWebKit/537.36 (KHTML, like Gecko) Chrome/118.0.0.0 Safari/537.36","WebKit","Chrome","118.0.0.0","Windows","10.0","null","es-419,es;q=0.9","true","null","tones/440hz_short.mp3","null","","","tone_number_task","0","veintiuno","tones/440hz_short.mp3","150","60","2","19",""
"","","","","","html-keyboard-response","126","340822","0.0-143.0-0.0","50","1","2023-11-01 03:22:25","a725c3012b74bf33a1020a98cb69c237","24.232.215.58","Mozilla/5.0 (Windows NT 10.0; Win64; x64) AppleWebKit/537.36 (KHTML, like Gecko) Chrome/118.0.0.0 Safari/537.36","WebKit","Chrome","118.0.0.0","Windows","10.0","null","es-419,es;q=0.9","true","327","tones/440hz_short.mp3","a","","","empty_block","","veintiuno","","","","2","19",""
"","","","","","html-keyboard-response","127","341175","0.0-143.0-1.0","50","1","2023-11-01 03:22:25","a725c3012b74bf33a1020a98cb69c237","24.232.215.58","Mozilla/5.0 (Windows NT 10.0; Win64; x64) AppleWebKit/537.36 (KHTML, like Gecko) Chrome/118.0.0.0 Safari/537.36","WebKit","Chrome","118.0.0.0","Windows","10.0","null","es-419,es;q=0.9","true","351","tones/440hz_short.mp3","j","","","empty_block","","veintiuno","","","","2","19",""
"","","","","","html-keyboard-response","128","344056","0.0-145.0","50","1","2023-11-01 03:22:25","a725c3012b74bf33a1020a98cb69c237","24.232.215.58","Mozilla/5.0 (Windows NT 10.0; Win64; x64) AppleWebKit/537.36 (KHTML, like Gecko) Chrome/118.0.0.0 Safari/537.36","WebKit","Chrome","118.0.0.0","Windows","10.0","null","es-419,es;q=0.9","true","null","<div style=""font-size:100px;"">X</div>","null","","","fixation","","","","","","","",""
"","","","","","audio-keyboard-response","129","344759","0.0-146.0","50","1","2023-11-01 03:22:25","a725c3012b74bf33a1020a98cb69c237","24.232.215.58","Mozilla/5.0 (Windows NT 10.0; Win64; x64) AppleWebKit/537.36 (KHTML, like Gecko) Chrome/118.0.0.0 Safari/537.36","WebKit","Chrome","118.0.0.0","Windows","10.0","null","es-419,es;q=0.9","true","699","tones/880hz_short.mp3","s","","","tone_number_task","1025","cincuenta y uno","tones/880hz_short.mp3","1175","60","2","20",""
"","","","","","html-keyboard-response","130","345091","0.0-147.0-0.0","50","1","2023-11-01 03:22:25","a725c3012b74bf33a1020a98cb69c237","24.232.215.58","Mozilla/5.0 (Windows NT 10.0; Win64; x64) AppleWebKit/537.36 (KHTML, like Gecko) Chrome/118.0.0.0 Safari/537.36","WebKit","Chrome","118.0.0.0","Windows","10.0","null","es-419,es;q=0.9","true","null","","null","","","delay_block","","","","","","2","20",""
"","","","","","html-keyboard-response","131","345246","0.0-147.0-1.0","50","1","2023-11-01 03:22:25","a725c3012b74bf33a1020a98cb69c237","24.232.215.58","Mozilla/5.0 (Windows NT 10.0; Win64; x64) AppleWebKit/537.36 (KHTML, like Gecko) Chrome/118.0.0.0 Safari/537.36","WebKit","Chrome","118.0.0.0","Windows","10.0","null","es-419,es;q=0.9","true","null","<p id=""stimulus"" style=""font-size:60px;"">cincuenta y uno</p>","null","","","tone_number_task_remaining_before_delay","","cincuenta y uno","","476","60","2","20",""
"","","","","","html-keyboard-response","132","345888","0.0-150.0-0.0","50","1","2023-11-01 03:22:25","a725c3012b74bf33a1020a98cb69c237","24.232.215.58","Mozilla/5.0 (Windows NT 10.0; Win64; x64) AppleWebKit/537.36 (KHTML, like Gecko) Chrome/118.0.0.0 Safari/537.36","WebKit","Chrome","118.0.0.0","Windows","10.0","null","es-419,es;q=0.9","true","638","<p id=""stimulus"" style=""font-size:60px;"">cincuenta y uno</p>","k","","","empty_block","","cincuenta y uno","","","","2","20",""
"","","","","","html-keyboard-response","133","348770","0.0-151.0","50","1","2023-11-01 03:22:25","a725c3012b74bf33a1020a98cb69c237","24.232.215.58","Mozilla/5.0 (Windows NT 10.0; Win64; x64) AppleWebKit/537.36 (KHTML, like Gecko) Chrome/118.0.0.0 Safari/537.36","WebKit","Chrome","118.0.0.0","Windows","10.0","null","es-419,es;q=0.9","true","null","<div style=""font-size:100px;"">X</div>","null","","","fixation","","","","","","","",""
"","","","","","audio-keyboard-response","134","349409","0.0-152.0","50","1","2023-11-01 03:22:25","a725c3012b74bf33a1020a98cb69c237","24.232.215.58","Mozilla/5.0 (Windows NT 10.0; Win64; x64) AppleWebKit/537.36 (KHTML, like Gecko) Chrome/118.0.0.0 Safari/537.36","WebKit","Chrome","118.0.0.0","Windows","10.0","null","es-419,es;q=0.9","true","640","tones/440hz_short.mp3","a","","","tone_number_task","992.5","sesenta y uno","tones/440hz_short.mp3","1142.5","60","2","21",""
"","","","","","html-keyboard-response","135","349764","0.0-153.0-0.0","50","1","2023-11-01 03:22:25","a725c3012b74bf33a1020a98cb69c237","24.232.215.58","Mozilla/5.0 (Windows NT 10.0; Win64; x64) AppleWebKit/537.36 (KHTML, like Gecko) Chrome/118.0.0.0 Safari/537.36","WebKit","Chrome","118.0.0.0","Windows","10.0","null","es-419,es;q=0.9","true","null","","null","","","delay_block","","","","","","2","21",""
"","","","","","html-keyboard-response","136","349922","0.0-153.0-1.0","50","1","2023-11-01 03:22:25","a725c3012b74bf33a1020a98cb69c237","24.232.215.58","Mozilla/5.0 (Windows NT 10.0; Win64; x64) AppleWebKit/537.36 (KHTML, like Gecko) Chrome/118.0.0.0 Safari/537.36","WebKit","Chrome","118.0.0.0","Windows","10.0","null","es-419,es;q=0.9","true","null","<p id=""stimulus"" style=""font-size:60px;"">sesenta y uno</p>","null","","","tone_number_task_remaining_before_delay","","sesenta y uno","","502.5","60","2","21",""
"","","","","","html-keyboard-response","137","350317","0.0-156.0-0.0","50","1","2023-11-01 03:22:25","a725c3012b74bf33a1020a98cb69c237","24.232.215.58","Mozilla/5.0 (Windows NT 10.0; Win64; x64) AppleWebKit/537.36 (KHTML, like Gecko) Chrome/118.0.0.0 Safari/537.36","WebKit","Chrome","118.0.0.0","Windows","10.0","null","es-419,es;q=0.9","true","390","<p id=""stimulus"" style=""font-size:60px;"">sesenta y uno</p>","k","","","empty_block","","sesenta y uno","","","","2","21",""
"","","","","","html-keyboard-response","138","353201","0.0-157.0","50","1","2023-11-01 03:22:25","a725c3012b74bf33a1020a98cb69c237","24.232.215.58","Mozilla/5.0 (Windows NT 10.0; Win64; x64) AppleWebKit/537.36 (KHTML, like Gecko) Chrome/118.0.0.0 Safari/537.36","WebKit","Chrome","118.0.0.0","Windows","10.0","null","es-419,es;q=0.9","true","null","<div style=""font-size:100px;"">X</div>","null","","","fixation","","","","","","","",""
"","","","","","audio-keyboard-response","139","353458","0.0-158.0","50","1","2023-11-01 03:22:25","a725c3012b74bf33a1020a98cb69c237","24.232.215.58","Mozilla/5.0 (Windows NT 10.0; Win64; x64) AppleWebKit/537.36 (KHTML, like Gecko) Chrome/118.0.0.0 Safari/537.36","WebKit","Chrome","118.0.0.0","Windows","10.0","null","es-419,es;q=0.9","true","null","tones/440hz_short.mp3","null","","","tone_number_task","102.5","veintisiete","tones/440hz_short.mp3","252.5","60","2","22",""
"","","","","","html-keyboard-response","140","353824","0.0-161.0-0.0","50","1","2023-11-01 03:22:25","a725c3012b74bf33a1020a98cb69c237","24.232.215.58","Mozilla/5.0 (Windows NT 10.0; Win64; x64) AppleWebKit/537.36 (KHTML, like Gecko) Chrome/118.0.0.0 Safari/537.36","WebKit","Chrome","118.0.0.0","Windows","10.0","null","es-419,es;q=0.9","true","360","tones/440hz_short.mp3","a","","","empty_block","","veintisiete","","","","2","22",""
"","","","","","html-keyboard-response","141","354824","0.0-161.0-1.0","50","1","2023-11-01 03:22:25","a725c3012b74bf33a1020a98cb69c237","24.232.215.58","Mozilla/5.0 (Windows NT 10.0; Win64; x64) AppleWebKit/537.36 (KHTML, like Gecko) Chrome/118.0.0.0 Safari/537.36","WebKit","Chrome","118.0.0.0","Windows","10.0","null","es-419,es;q=0.9","true","996","tones/440hz_short.mp3","j","","","empty_block","","veintisiete","","","","2","22",""
"","","","","","html-keyboard-response","142","357708","0.0-163.0","50","1","2023-11-01 03:22:25","a725c3012b74bf33a1020a98cb69c237","24.232.215.58","Mozilla/5.0 (Windows NT 10.0; Win64; x64) AppleWebKit/537.36 (KHTML, like Gecko) Chrome/118.0.0.0 Safari/537.36","WebKit","Chrome","118.0.0.0","Windows","10.0","null","es-419,es;q=0.9","true","null","<div style=""font-size:100px;"">X</div>","null","","","fixation","","","","","","","",""
"","","","","","audio-keyboard-response","143","358554","0.0-164.0","50","1","2023-11-01 03:22:25","a725c3012b74bf33a1020a98cb69c237","24.232.215.58","Mozilla/5.0 (Windows NT 10.0; Win64; x64) AppleWebKit/537.36 (KHTML, like Gecko) Chrome/118.0.0.0 Safari/537.36","WebKit","Chrome","118.0.0.0","Windows","10.0","null","es-419,es;q=0.9","true","840","tones/440hz_short.mp3","a","","","tone_number_task","992.5","veintisiete","tones/440hz_short.mp3","1142.5","60","2","23",""
"","","","","","html-keyboard-response","144","358710","0.0-165.0-0.0","50","1","2023-11-01 03:22:25","a725c3012b74bf33a1020a98cb69c237","24.232.215.58","Mozilla/5.0 (Windows NT 10.0; Win64; x64) AppleWebKit/537.36 (KHTML, like Gecko) Chrome/118.0.0.0 Safari/537.36","WebKit","Chrome","118.0.0.0","Windows","10.0","null","es-419,es;q=0.9","true","null","","null","","","delay_block","","","","","","2","23",""
"","","","","","html-keyboard-response","145","358866","0.0-165.0-1.0","50","1","2023-11-01 03:22:25","a725c3012b74bf33a1020a98cb69c237","24.232.215.58","Mozilla/5.0 (Windows NT 10.0; Win64; x64) AppleWebKit/537.36 (KHTML, like Gecko) Chrome/118.0.0.0 Safari/537.36","WebKit","Chrome","118.0.0.0","Windows","10.0","null","es-419,es;q=0.9","true","null","<p id=""stimulus"" style=""font-size:60px;"">veintisiete</p>","null","","","tone_number_task_remaining_before_delay","","veintisiete","","302.5","60","2","23",""
"","","","","","html-keyboard-response","146","359368","0.0-168.0-0.0","50","1","2023-11-01 03:22:25","a725c3012b74bf33a1020a98cb69c237","24.232.215.58","Mozilla/5.0 (Windows NT 10.0; Win64; x64) AppleWebKit/537.36 (KHTML, like Gecko) Chrome/118.0.0.0 Safari/537.36","WebKit","Chrome","118.0.0.0","Windows","10.0","null","es-419,es;q=0.9","true","496","<p id=""stimulus"" style=""font-size:60px;"">veintisiete</p>","j","","","empty_block","","veintisiete","","","","2","23",""
"","","","","","html-keyboard-response","147","362250","0.0-169.0","50","1","2023-11-01 03:22:25","a725c3012b74bf33a1020a98cb69c237","24.232.215.58","Mozilla/5.0 (Windows NT 10.0; Win64; x64) AppleWebKit/537.36 (KHTML, like Gecko) Chrome/118.0.0.0 Safari/537.36","WebKit","Chrome","118.0.0.0","Windows","10.0","null","es-419,es;q=0.9","true","null","<div style=""font-size:100px;"">X</div>","null","","","fixation","","","","","","","",""
"","","","","","audio-keyboard-response","148","362408","0.0-170.0","50","1","2023-11-01 03:22:25","a725c3012b74bf33a1020a98cb69c237","24.232.215.58","Mozilla/5.0 (Windows NT 10.0; Win64; x64) AppleWebKit/537.36 (KHTML, like Gecko) Chrome/118.0.0.0 Safari/537.36","WebKit","Chrome","118.0.0.0","Windows","10.0","null","es-419,es;q=0.9","true","null","tones/880hz_short.mp3","null","","","tone_number_task","0","veinticuatro","tones/880hz_short.mp3","150","60","2","24",""
"","","","","","html-keyboard-response","149","363016","0.0-173.0-0.0","50","1","2023-11-01 03:22:25","a725c3012b74bf33a1020a98cb69c237","24.232.215.58","Mozilla/5.0 (Windows NT 10.0; Win64; x64) AppleWebKit/537.36 (KHTML, like Gecko) Chrome/118.0.0.0 Safari/537.36","WebKit","Chrome","118.0.0.0","Windows","10.0","null","es-419,es;q=0.9","true","603","tones/880hz_short.mp3","s","","","empty_block","","veinticuatro","","","","2","24",""
"","","","","","html-keyboard-response","150","363420","0.0-173.0-1.0","50","1","2023-11-01 03:22:25","a725c3012b74bf33a1020a98cb69c237","24.232.215.58","Mozilla/5.0 (Windows NT 10.0; Win64; x64) AppleWebKit/537.36 (KHTML, like Gecko) Chrome/118.0.0.0 Safari/537.36","WebKit","Chrome","118.0.0.0","Windows","10.0","null","es-419,es;q=0.9","true","399","tones/880hz_short.mp3","j","","","empty_block","","veinticuatro","","","","2","24",""
"","","","","","html-keyboard-response","151","366305","0.0-175.0","50","1","2023-11-01 03:22:25","a725c3012b74bf33a1020a98cb69c237","24.232.215.58","Mozilla/5.0 (Windows NT 10.0; Win64; x64) AppleWebKit/537.36 (KHTML, like Gecko) Chrome/118.0.0.0 Safari/537.36","WebKit","Chrome","118.0.0.0","Windows","10.0","null","es-419,es;q=0.9","true","null","<div style=""font-size:100px;"">X</div>","null","","","fixation","","","","","","","",""
"","","","","","audio-keyboard-response","152","366564","0.0-176.0","50","1","2023-11-01 03:22:25","a725c3012b74bf33a1020a98cb69c237","24.232.215.58","Mozilla/5.0 (Windows NT 10.0; Win64; x64) AppleWebKit/537.36 (KHTML, like Gecko) Chrome/118.0.0.0 Safari/537.36","WebKit","Chrome","118.0.0.0","Windows","10.0","null","es-419,es;q=0.9","true","null","tones/880hz_short.mp3","null","","","tone_number_task","102.5","treinta y siete","tones/880hz_short.mp3","252.5","60","2","25",""
"","","","","","html-keyboard-response","153","366910","0.0-179.0-0.0","50","1","2023-11-01 03:22:25","a725c3012b74bf33a1020a98cb69c237","24.232.215.58","Mozilla/5.0 (Windows NT 10.0; Win64; x64) AppleWebKit/537.36 (KHTML, like Gecko) Chrome/118.0.0.0 Safari/537.36","WebKit","Chrome","118.0.0.0","Windows","10.0","null","es-419,es;q=0.9","true","341","tones/880hz_short.mp3","s","","","empty_block","","treinta y siete","","","","2","25",""
"","","","","","html-keyboard-response","154","368047","0.0-179.0-1.0","50","1","2023-11-01 03:22:25","a725c3012b74bf33a1020a98cb69c237","24.232.215.58","Mozilla/5.0 (Windows NT 10.0; Win64; x64) AppleWebKit/537.36 (KHTML, like Gecko) Chrome/118.0.0.0 Safari/537.36","WebKit","Chrome","118.0.0.0","Windows","10.0","null","es-419,es;q=0.9","true","1135","tones/880hz_short.mp3","j","","","empty_block","","treinta y siete","","","","2","25",""
"","","","","","html-keyboard-response","155","370932","0.0-181.0","50","1","2023-11-01 03:22:25","a725c3012b74bf33a1020a98cb69c237","24.232.215.58","Mozilla/5.0 (Windows NT 10.0; Win64; x64) AppleWebKit/537.36 (KHTML, like Gecko) Chrome/118.0.0.0 Safari/537.36","WebKit","Chrome","118.0.0.0","Windows","10.0","null","es-419,es;q=0.9","true","null","<div style=""font-size:100px;"">X</div>","null","","","fixation","","","","","","","",""
"","","","","","audio-keyboard-response","156","371524","0.0-182.0","50","1","2023-11-01 03:22:25","a725c3012b74bf33a1020a98cb69c237","24.232.215.58","Mozilla/5.0 (Windows NT 10.0; Win64; x64) AppleWebKit/537.36 (KHTML, like Gecko) Chrome/118.0.0.0 Safari/537.36","WebKit","Chrome","118.0.0.0","Windows","10.0","null","es-419,es;q=0.9","true","589","tones/880hz_short.mp3","s","","","tone_number_task","1025","cincuenta y tres","tones/880hz_short.mp3","1175","60","2","26",""
"","","","","","html-keyboard-response","157","371965","0.0-183.0-0.0","50","1","2023-11-01 03:22:25","a725c3012b74bf33a1020a98cb69c237","24.232.215.58","Mozilla/5.0 (Windows NT 10.0; Win64; x64) AppleWebKit/537.36 (KHTML, like Gecko) Chrome/118.0.0.0 Safari/537.36","WebKit","Chrome","118.0.0.0","Windows","10.0","null","es-419,es;q=0.9","true","null","","null","","","delay_block","","","","","","2","26",""
"","","","","","html-keyboard-response","158","372121","0.0-183.0-1.0","50","1","2023-11-01 03:22:25","a725c3012b74bf33a1020a98cb69c237","24.232.215.58","Mozilla/5.0 (Windows NT 10.0; Win64; x64) AppleWebKit/537.36 (KHTML, like Gecko) Chrome/118.0.0.0 Safari/537.36","WebKit","Chrome","118.0.0.0","Windows","10.0","null","es-419,es;q=0.9","true","null","<p id=""stimulus"" style=""font-size:60px;"">cincuenta y tres</p>","null","","","tone_number_task_remaining_before_delay","","cincuenta y tres","","586","60","2","26",""
"","","","","","html-keyboard-response","159","372524","0.0-186.0-0.0","50","1","2023-11-01 03:22:25","a725c3012b74bf33a1020a98cb69c237","24.232.215.58","Mozilla/5.0 (Windows NT 10.0; Win64; x64) AppleWebKit/537.36 (KHTML, like Gecko) Chrome/118.0.0.0 Safari/537.36","WebKit","Chrome","118.0.0.0","Windows","10.0","null","es-419,es;q=0.9","true","396","<p id=""stimulus"" style=""font-size:60px;"">cincuenta y tres</p>","k","","","empty_block","","cincuenta y tres","","","","2","26",""
"","","","","","html-keyboard-response","160","375406","0.0-187.0","50","1","2023-11-01 03:22:25","a725c3012b74bf33a1020a98cb69c237","24.232.215.58","Mozilla/5.0 (Windows NT 10.0; Win64; x64) AppleWebKit/537.36 (KHTML, like Gecko) Chrome/118.0.0.0 Safari/537.36","WebKit","Chrome","118.0.0.0","Windows","10.0","null","es-419,es;q=0.9","true","null","<div style=""font-size:100px;"">X</div>","null","","","fixation","","","","","","","",""
"","","","","","audio-keyboard-response","161","375665","0.0-188.0","50","1","2023-11-01 03:22:25","a725c3012b74bf33a1020a98cb69c237","24.232.215.58","Mozilla/5.0 (Windows NT 10.0; Win64; x64) AppleWebKit/537.36 (KHTML, like Gecko) Chrome/118.0.0.0 Safari/537.36","WebKit","Chrome","118.0.0.0","Windows","10.0","null","es-419,es;q=0.9","true","null","tones/440hz_short.mp3","null","","","tone_number_task","102.5","veinticuatro","tones/440hz_short.mp3","252.5","60","2","27",""
"","","","","","html-keyboard-response","162","376680","0.0-191.0-0.0","50","1","2023-11-01 03:22:25","a725c3012b74bf33a1020a98cb69c237","24.232.215.58","Mozilla/5.0 (Windows NT 10.0; Win64; x64) AppleWebKit/537.36 (KHTML, like Gecko) Chrome/118.0.0.0 Safari/537.36","WebKit","Chrome","118.0.0.0","Windows","10.0","null","es-419,es;q=0.9","true","1009","tones/440hz_short.mp3","a","","","empty_block","","veinticuatro","","","","2","27",""
"","","","","","html-keyboard-response","163","377052","0.0-191.0-1.0","50","1","2023-11-01 03:22:25","a725c3012b74bf33a1020a98cb69c237","24.232.215.58","Mozilla/5.0 (Windows NT 10.0; Win64; x64) AppleWebKit/537.36 (KHTML, like Gecko) Chrome/118.0.0.0 Safari/537.36","WebKit","Chrome","118.0.0.0","Windows","10.0","null","es-419,es;q=0.9","true","367","tones/440hz_short.mp3","j","","","empty_block","","veinticuatro","","","","2","27",""
"","","","","","html-keyboard-response","164","379934","0.0-193.0","50","1","2023-11-01 03:22:25","a725c3012b74bf33a1020a98cb69c237","24.232.215.58","Mozilla/5.0 (Windows NT 10.0; Win64; x64) AppleWebKit/537.36 (KHTML, like Gecko) Chrome/118.0.0.0 Safari/537.36","WebKit","Chrome","118.0.0.0","Windows","10.0","null","es-419,es;q=0.9","true","null","<div style=""font-size:100px;"">X</div>","null","","","fixation","","","","","","","",""
"","","","","","audio-keyboard-response","165","380495","0.0-194.0","50","1","2023-11-01 03:22:25","a725c3012b74bf33a1020a98cb69c237","24.232.215.58","Mozilla/5.0 (Windows NT 10.0; Win64; x64) AppleWebKit/537.36 (KHTML, like Gecko) Chrome/118.0.0.0 Safari/537.36","WebKit","Chrome","118.0.0.0","Windows","10.0","null","es-419,es;q=0.9","true","549","tones/440hz_short.mp3","a","","","tone_number_task","992.5","cincuenta y ocho","tones/440hz_short.mp3","1142.5","60","2","28",""
"","","","","","html-keyboard-response","166","380941","0.0-195.0-0.0","50","1","2023-11-01 03:22:25","a725c3012b74bf33a1020a98cb69c237","24.232.215.58","Mozilla/5.0 (Windows NT 10.0; Win64; x64) AppleWebKit/537.36 (KHTML, like Gecko) Chrome/118.0.0.0 Safari/537.36","WebKit","Chrome","118.0.0.0","Windows","10.0","null","es-419,es;q=0.9","true","null","","null","","","delay_block","","","","","","2","28",""
"","","","","","html-keyboard-response","167","381099","0.0-195.0-1.0","50","1","2023-11-01 03:22:25","a725c3012b74bf33a1020a98cb69c237","24.232.215.58","Mozilla/5.0 (Windows NT 10.0; Win64; x64) AppleWebKit/537.36 (KHTML, like Gecko) Chrome/118.0.0.0 Safari/537.36","WebKit","Chrome","118.0.0.0","Windows","10.0","null","es-419,es;q=0.9","true","null","<p id=""stimulus"" style=""font-size:60px;"">cincuenta y ocho</p>","null","","","tone_number_task_remaining_before_delay","","cincuenta y ocho","","593.5","60","2","28",""
"","","","","","html-keyboard-response","168","381648","0.0-198.0-0.0","50","1","2023-11-01 03:22:25","a725c3012b74bf33a1020a98cb69c237","24.232.215.58","Mozilla/5.0 (Windows NT 10.0; Win64; x64) AppleWebKit/537.36 (KHTML, like Gecko) Chrome/118.0.0.0 Safari/537.36","WebKit","Chrome","118.0.0.0","Windows","10.0","null","es-419,es;q=0.9","true","543","<p id=""stimulus"" style=""font-size:60px;"">cincuenta y ocho</p>","k","","","empty_block","","cincuenta y ocho","","","","2","28",""
"","","","","","html-keyboard-response","169","384533","0.0-199.0","50","1","2023-11-01 03:22:25","a725c3012b74bf33a1020a98cb69c237","24.232.215.58","Mozilla/5.0 (Windows NT 10.0; Win64; x64) AppleWebKit/537.36 (KHTML, like Gecko) Chrome/118.0.0.0 Safari/537.36","WebKit","Chrome","118.0.0.0","Windows","10.0","null","es-419,es;q=0.9","true","null","<div style=""font-size:100px;"">X</div>","null","","","fixation","","","","","","","",""
"","","","","","audio-keyboard-response","170","385118","0.0-200.0","50","1","2023-11-01 03:22:25","a725c3012b74bf33a1020a98cb69c237","24.232.215.58","Mozilla/5.0 (Windows NT 10.0; Win64; x64) AppleWebKit/537.36 (KHTML, like Gecko) Chrome/118.0.0.0 Safari/537.36","WebKit","Chrome","118.0.0.0","Windows","10.0","null","es-419,es;q=0.9","true","581","tones/440hz_short.mp3","a","","","tone_number_task","1025","veinticinco","tones/440hz_short.mp3","1175","60","2","29",""
"","","","","","html-keyboard-response","171","385568","0.0-201.0-0.0","50","1","2023-11-01 03:22:25","a725c3012b74bf33a1020a98cb69c237","24.232.215.58","Mozilla/5.0 (Windows NT 10.0; Win64; x64) AppleWebKit/537.36 (KHTML, like Gecko) Chrome/118.0.0.0 Safari/537.36","WebKit","Chrome","118.0.0.0","Windows","10.0","null","es-419,es;q=0.9","true","null","","null","","","delay_block","","","","","","2","29",""
"","","","","","html-keyboard-response","172","385724","0.0-201.0-1.0","50","1","2023-11-01 03:22:25","a725c3012b74bf33a1020a98cb69c237","24.232.215.58","Mozilla/5.0 (Windows NT 10.0; Win64; x64) AppleWebKit/537.36 (KHTML, like Gecko) Chrome/118.0.0.0 Safari/537.36","WebKit","Chrome","118.0.0.0","Windows","10.0","null","es-419,es;q=0.9","true","null","<p id=""stimulus"" style=""font-size:60px;"">veinticinco</p>","null","","","tone_number_task_remaining_before_delay","","veinticinco","","594","60","2","29",""
"","","","","","html-keyboard-response","173","386110","0.0-204.0-0.0","50","1","2023-11-01 03:22:25","a725c3012b74bf33a1020a98cb69c237","24.232.215.58","Mozilla/5.0 (Windows NT 10.0; Win64; x64) AppleWebKit/537.36 (KHTML, like Gecko) Chrome/118.0.0.0 Safari/537.36","WebKit","Chrome","118.0.0.0","Windows","10.0","null","es-419,es;q=0.9","true","380","<p id=""stimulus"" style=""font-size:60px;"">veinticinco</p>","j","","","empty_block","","veinticinco","","","","2","29",""
"","","","","","html-keyboard-response","174","388992","0.0-205.0","50","1","2023-11-01 03:22:25","a725c3012b74bf33a1020a98cb69c237","24.232.215.58","Mozilla/5.0 (Windows NT 10.0; Win64; x64) AppleWebKit/537.36 (KHTML, like Gecko) Chrome/118.0.0.0 Safari/537.36","WebKit","Chrome","118.0.0.0","Windows","10.0","null","es-419,es;q=0.9","true","null","<div style=""font-size:100px;"">X</div>","null","","","fixation","","","","","","","",""
"","","","","","audio-keyboard-response","175","389149","0.0-206.0","50","1","2023-11-01 03:22:25","a725c3012b74bf33a1020a98cb69c237","24.232.215.58","Mozilla/5.0 (Windows NT 10.0; Win64; x64) AppleWebKit/537.36 (KHTML, like Gecko) Chrome/118.0.0.0 Safari/537.36","WebKit","Chrome","118.0.0.0","Windows","10.0","null","es-419,es;q=0.9","true","null","tones/440hz_short.mp3","null","","","tone_number_task","0","veintitres","tones/440hz_short.mp3","150","60","2","30",""
"","","","","","html-keyboard-response","176","389619","0.0-209.0-0.0","50","1","2023-11-01 03:22:25","a725c3012b74bf33a1020a98cb69c237","24.232.215.58","Mozilla/5.0 (Windows NT 10.0; Win64; x64) AppleWebKit/537.36 (KHTML, like Gecko) Chrome/118.0.0.0 Safari/537.36","WebKit","Chrome","118.0.0.0","Windows","10.0","null","es-419,es;q=0.9","true","464","tones/440hz_short.mp3","a","","","empty_block","","veintitres","","","","2","30",""
"","","","","","html-keyboard-response","177","389902","0.0-209.0-1.0","50","1","2023-11-01 03:22:25","a725c3012b74bf33a1020a98cb69c237","24.232.215.58","Mozilla/5.0 (Windows NT 10.0; Win64; x64) AppleWebKit/537.36 (KHTML, like Gecko) Chrome/118.0.0.0 Safari/537.36","WebKit","Chrome","118.0.0.0","Windows","10.0","null","es-419,es;q=0.9","true","281","tones/440hz_short.mp3","j","","","empty_block","","veintitres","","","","2","30",""
"","","","","","html-keyboard-response","178","392789","0.0-211.0","50","1","2023-11-01 03:22:25","a725c3012b74bf33a1020a98cb69c237","24.232.215.58","Mozilla/5.0 (Windows NT 10.0; Win64; x64) AppleWebKit/537.36 (KHTML, like Gecko) Chrome/118.0.0.0 Safari/537.36","WebKit","Chrome","118.0.0.0","Windows","10.0","null","es-419,es;q=0.9","true","null","<div style=""font-size:100px;"">X</div>","null","","","fixation","","","","","","","",""
"","","","","","audio-keyboard-response","179","393509","0.0-212.0","50","1","2023-11-01 03:22:25","a725c3012b74bf33a1020a98cb69c237","24.232.215.58","Mozilla/5.0 (Windows NT 10.0; Win64; x64) AppleWebKit/537.36 (KHTML, like Gecko) Chrome/118.0.0.0 Safari/537.36","WebKit","Chrome","118.0.0.0","Windows","10.0","null","es-419,es;q=0.9","true","720","tones/880hz_short.mp3","s","","","tone_number_task","1025","cuarenta y tres","tones/880hz_short.mp3","1175","60","2","31",""
"","","","","","html-keyboard-response","180","393818","0.0-213.0-0.0","50","1","2023-11-01 03:22:25","a725c3012b74bf33a1020a98cb69c237","24.232.215.58","Mozilla/5.0 (Windows NT 10.0; Win64; x64) AppleWebKit/537.36 (KHTML, like Gecko) Chrome/118.0.0.0 Safari/537.36","WebKit","Chrome","118.0.0.0","Windows","10.0","null","es-419,es;q=0.9","true","null","","null","","","delay_block","","","","","","2","31",""
"","","","","","html-keyboard-response","181","393972","0.0-213.0-1.0","50","1","2023-11-01 03:22:25","a725c3012b74bf33a1020a98cb69c237","24.232.215.58","Mozilla/5.0 (Windows NT 10.0; Win64; x64) AppleWebKit/537.36 (KHTML, like Gecko) Chrome/118.0.0.0 Safari/537.36","WebKit","Chrome","118.0.0.0","Windows","10.0","null","es-419,es;q=0.9","true","null","<p id=""stimulus"" style=""font-size:60px;"">cuarenta y tres</p>","null","","","tone_number_task_remaining_before_delay","","cuarenta y tres","","455","60","2","31",""
"","","","","","html-keyboard-response","182","394805","0.0-216.0-0.0","50","1","2023-11-01 03:22:25","a725c3012b74bf33a1020a98cb69c237","24.232.215.58","Mozilla/5.0 (Windows NT 10.0; Win64; x64) AppleWebKit/537.36 (KHTML, like Gecko) Chrome/118.0.0.0 Safari/537.36","WebKit","Chrome","118.0.0.0","Windows","10.0","null","es-419,es;q=0.9","true","827","<p id=""stimulus"" style=""font-size:60px;"">cuarenta y tres</p>","j","","","empty_block","","cuarenta y tres","","","","2","31",""
"","","","","","html-keyboard-response","183","397689","0.0-217.0","50","1","2023-11-01 03:22:25","a725c3012b74bf33a1020a98cb69c237","24.232.215.58","Mozilla/5.0 (Windows NT 10.0; Win64; x64) AppleWebKit/537.36 (KHTML, like Gecko) Chrome/118.0.0.0 Safari/537.36","WebKit","Chrome","118.0.0.0","Windows","10.0","null","es-419,es;q=0.9","true","null","<div style=""font-size:100px;"">X</div>","null","","","fixation","","","","","","","",""
"","","","","","audio-keyboard-response","184","397947","0.0-218.0","50","1","2023-11-01 03:22:25","a725c3012b74bf33a1020a98cb69c237","24.232.215.58","Mozilla/5.0 (Windows NT 10.0; Win64; x64) AppleWebKit/537.36 (KHTML, like Gecko) Chrome/118.0.0.0 Safari/537.36","WebKit","Chrome","118.0.0.0","Windows","10.0","null","es-419,es;q=0.9","true","null","tones/880hz_short.mp3","null","","","tone_number_task","102.5","cincuenta y ocho","tones/880hz_short.mp3","252.5","60","2","32",""
"","","","","","html-keyboard-response","185","398295","0.0-221.0-0.0","50","1","2023-11-01 03:22:25","a725c3012b74bf33a1020a98cb69c237","24.232.215.58","Mozilla/5.0 (Windows NT 10.0; Win64; x64) AppleWebKit/537.36 (KHTML, like Gecko) Chrome/118.0.0.0 Safari/537.36","WebKit","Chrome","118.0.0.0","Windows","10.0","null","es-419,es;q=0.9","true","346","tones/880hz_short.mp3","s","","","empty_block","","cincuenta y ocho","","","","2","32",""
"","","","","","html-keyboard-response","186","398591","0.0-221.0-1.0","50","1","2023-11-01 03:22:25","a725c3012b74bf33a1020a98cb69c237","24.232.215.58","Mozilla/5.0 (Windows NT 10.0; Win64; x64) AppleWebKit/537.36 (KHTML, like Gecko) Chrome/118.0.0.0 Safari/537.36","WebKit","Chrome","118.0.0.0","Windows","10.0","null","es-419,es;q=0.9","true","293","tones/880hz_short.mp3","k","","","empty_block","","cincuenta y ocho","","","","2","32",""
"","","","","","html-keyboard-response","187","401472","0.0-223.0","50","1","2023-11-01 03:22:25","a725c3012b74bf33a1020a98cb69c237","24.232.215.58","Mozilla/5.0 (Windows NT 10.0; Win64; x64) AppleWebKit/537.36 (KHTML, like Gecko) Chrome/118.0.0.0 Safari/537.36","WebKit","Chrome","118.0.0.0","Windows","10.0","null","es-419,es;q=0.9","true","null","<div style=""font-size:100px;"">X</div>","null","","","fixation","","","","","","","",""
"","","","","","audio-keyboard-response","188","402530","0.0-224.0","50","1","2023-11-01 03:22:25","a725c3012b74bf33a1020a98cb69c237","24.232.215.58","Mozilla/5.0 (Windows NT 10.0; Win64; x64) AppleWebKit/537.36 (KHTML, like Gecko) Chrome/118.0.0.0 Safari/537.36","WebKit","Chrome","118.0.0.0","Windows","10.0","null","es-419,es;q=0.9","true","1059","tones/440hz_short.mp3","a","","","tone_number_task","1025","cincuenta","tones/440hz_short.mp3","1175","60","2","33",""
"","","","","","html-keyboard-response","189","402650","0.0-226.0-0.0","50","1","2023-11-01 03:22:25","a725c3012b74bf33a1020a98cb69c237","24.232.215.58","Mozilla/5.0 (Windows NT 10.0; Win64; x64) AppleWebKit/537.36 (KHTML, like Gecko) Chrome/118.0.0.0 Safari/537.36","WebKit","Chrome","118.0.0.0","Windows","10.0","null","es-419,es;q=0.9","true","null","<p id=""stimulus"" style=""font-size:60px;"">cincuenta</p>","null","","","tone_number_task_remaining_after_delay","","cincuenta","","","60","2","33",""
"","","","","","html-keyboard-response","190","403801","0.0-228.0-0.0","50","1","2023-11-01 03:22:25","a725c3012b74bf33a1020a98cb69c237","24.232.215.58","Mozilla/5.0 (Windows NT 10.0; Win64; x64) AppleWebKit/537.36 (KHTML, like Gecko) Chrome/118.0.0.0 Safari/537.36","WebKit","Chrome","118.0.0.0","Windows","10.0","null","es-419,es;q=0.9","true","1145","<p id=""stimulus"" style=""font-size:60px;"">cincuenta</p>","k","","","empty_block","","cincuenta","","","","2","33",""
"","","","","","html-keyboard-response","191","406682","0.0-229.0","50","1","2023-11-01 03:22:25","a725c3012b74bf33a1020a98cb69c237","24.232.215.58","Mozilla/5.0 (Windows NT 10.0; Win64; x64) AppleWebKit/537.36 (KHTML, like Gecko) Chrome/118.0.0.0 Safari/537.36","WebKit","Chrome","118.0.0.0","Windows","10.0","null","es-419,es;q=0.9","true","null","<div style=""font-size:100px;"">X</div>","null","","","fixation","","","","","","","",""
"","","","","","audio-keyboard-response","192","406838","0.0-230.0","50","1","2023-11-01 03:22:25","a725c3012b74bf33a1020a98cb69c237","24.232.215.58","Mozilla/5.0 (Windows NT 10.0; Win64; x64) AppleWebKit/537.36 (KHTML, like Gecko) Chrome/118.0.0.0 Safari/537.36","WebKit","Chrome","118.0.0.0","Windows","10.0","null","es-419,es;q=0.9","true","null","tones/440hz_short.mp3","null","","","tone_number_task","0","sesenta y cinco","tones/440hz_short.mp3","150","60","2","34",""
"","","","","","html-keyboard-response","193","407422","0.0-233.0-0.0","50","1","2023-11-01 03:22:25","a725c3012b74bf33a1020a98cb69c237","24.232.215.58","Mozilla/5.0 (Windows NT 10.0; Win64; x64) AppleWebKit/537.36 (KHTML, like Gecko) Chrome/118.0.0.0 Safari/537.36","WebKit","Chrome","118.0.0.0","Windows","10.0","null","es-419,es;q=0.9","true","577","tones/440hz_short.mp3","a","","","empty_block","","sesenta y cinco","","","","2","34",""
"","","","","","html-keyboard-response","194","407865","0.0-233.0-1.0","50","1","2023-11-01 03:22:25","a725c3012b74bf33a1020a98cb69c237","24.232.215.58","Mozilla/5.0 (Windows NT 10.0; Win64; x64) AppleWebKit/537.36 (KHTML, like Gecko) Chrome/118.0.0.0 Safari/537.36","WebKit","Chrome","118.0.0.0","Windows","10.0","null","es-419,es;q=0.9","true","441","tones/440hz_short.mp3","k","","","empty_block","","sesenta y cinco","","","","2","34",""
"","","","","","html-keyboard-response","195","410748","0.0-235.0","50","1","2023-11-01 03:22:25","a725c3012b74bf33a1020a98cb69c237","24.232.215.58","Mozilla/5.0 (Windows NT 10.0; Win64; x64) AppleWebKit/537.36 (KHTML, like Gecko) Chrome/118.0.0.0 Safari/537.36","WebKit","Chrome","118.0.0.0","Windows","10.0","null","es-419,es;q=0.9","true","null","<div style=""font-size:100px;"">X</div>","null","","","fixation","","","","","","","",""
"","","","","","audio-keyboard-response","196","411530","0.0-236.0","50","1","2023-11-01 03:22:25","a725c3012b74bf33a1020a98cb69c237","24.232.215.58","Mozilla/5.0 (Windows NT 10.0; Win64; x64) AppleWebKit/537.36 (KHTML, like Gecko) Chrome/118.0.0.0 Safari/537.36","WebKit","Chrome","118.0.0.0","Windows","10.0","null","es-419,es;q=0.9","true","779","tones/880hz_short.mp3","s","","","tone_number_task","1025","veinticuatro","tones/880hz_short.mp3","1175","60","2","35",""
"","","","","","html-keyboard-response","197","411780","0.0-237.0-0.0","50","1","2023-11-01 03:22:25","a725c3012b74bf33a1020a98cb69c237","24.232.215.58","Mozilla/5.0 (Windows NT 10.0; Win64; x64) AppleWebKit/537.36 (KHTML, like Gecko) Chrome/118.0.0.0 Safari/537.36","WebKit","Chrome","118.0.0.0","Windows","10.0","null","es-419,es;q=0.9","true","null","","null","","","delay_block","","","","","","2","35",""
"","","","","","html-keyboard-response","198","411936","0.0-237.0-1.0","50","1","2023-11-01 03:22:25","a725c3012b74bf33a1020a98cb69c237","24.232.215.58","Mozilla/5.0 (Windows NT 10.0; Win64; x64) AppleWebKit/537.36 (KHTML, like Gecko) Chrome/118.0.0.0 Safari/537.36","WebKit","Chrome","118.0.0.0","Windows","10.0","null","es-419,es;q=0.9","true","null","<p id=""stimulus"" style=""font-size:60px;"">veinticuatro</p>","null","","","tone_number_task_remaining_before_delay","","veinticuatro","","396","60","2","35",""
"","","","","","html-keyboard-response","199","412671","0.0-240.0-0.0","50","1","2023-11-01 03:22:25","a725c3012b74bf33a1020a98cb69c237","24.232.215.58","Mozilla/5.0 (Windows NT 10.0; Win64; x64) AppleWebKit/537.36 (KHTML, like Gecko) Chrome/118.0.0.0 Safari/537.36","WebKit","Chrome","118.0.0.0","Windows","10.0","null","es-419,es;q=0.9","true","729","<p id=""stimulus"" style=""font-size:60px;"">veinticuatro</p>","j","","","empty_block","","veinticuatro","","","","2","35",""
"","","","","","html-keyboard-response","200","415553","0.0-241.0","50","1","2023-11-01 03:22:25","a725c3012b74bf33a1020a98cb69c237","24.232.215.58","Mozilla/5.0 (Windows NT 10.0; Win64; x64) AppleWebKit/537.36 (KHTML, like Gecko) Chrome/118.0.0.0 Safari/537.36","WebKit","Chrome","118.0.0.0","Windows","10.0","null","es-419,es;q=0.9","true","null","<div style=""font-size:100px;"">X</div>","null","","","fixation","","","","","","","",""
"","","","","","audio-keyboard-response","201","415710","0.0-242.0","50","1","2023-11-01 03:22:25","a725c3012b74bf33a1020a98cb69c237","24.232.215.58","Mozilla/5.0 (Windows NT 10.0; Win64; x64) AppleWebKit/537.36 (KHTML, like Gecko) Chrome/118.0.0.0 Safari/537.36","WebKit","Chrome","118.0.0.0","Windows","10.0","null","es-419,es;q=0.9","true","null","tones/880hz_short.mp3","null","","","tone_number_task","0","treinta y tres","tones/880hz_short.mp3","150","60","2","36",""
"","","","","","html-keyboard-response","202","416693","0.0-245.0-0.0","50","1","2023-11-01 03:22:25","a725c3012b74bf33a1020a98cb69c237","24.232.215.58","Mozilla/5.0 (Windows NT 10.0; Win64; x64) AppleWebKit/537.36 (KHTML, like Gecko) Chrome/118.0.0.0 Safari/537.36","WebKit","Chrome","118.0.0.0","Windows","10.0","null","es-419,es;q=0.9","true","980","tones/880hz_short.mp3","s","","","empty_block","","treinta y tres","","","","2","36",""
"","","","","","html-keyboard-response","203","417122","0.0-245.0-1.0","50","1","2023-11-01 03:22:25","a725c3012b74bf33a1020a98cb69c237","24.232.215.58","Mozilla/5.0 (Windows NT 10.0; Win64; x64) AppleWebKit/537.36 (KHTML, like Gecko) Chrome/118.0.0.0 Safari/537.36","WebKit","Chrome","118.0.0.0","Windows","10.0","null","es-419,es;q=0.9","true","427","tones/880hz_short.mp3","j","","","empty_block","","treinta y tres","","","","2","36",""
"","","","","","html-keyboard-response","204","420004","0.0-247.0","50","1","2023-11-01 03:22:25","a725c3012b74bf33a1020a98cb69c237","24.232.215.58","Mozilla/5.0 (Windows NT 10.0; Win64; x64) AppleWebKit/537.36 (KHTML, like Gecko) Chrome/118.0.0.0 Safari/537.36","WebKit","Chrome","118.0.0.0","Windows","10.0","null","es-419,es;q=0.9","true","null","<div style=""font-size:100px;"">X</div>","null","","","fixation","","","","","","","",""
"","","","","","audio-keyboard-response","205","420494","0.0-248.0","50","1","2023-11-01 03:22:25","a725c3012b74bf33a1020a98cb69c237","24.232.215.58","Mozilla/5.0 (Windows NT 10.0; Win64; x64) AppleWebKit/537.36 (KHTML, like Gecko) Chrome/118.0.0.0 Safari/537.36","WebKit","Chrome","118.0.0.0","Windows","10.0","null","es-419,es;q=0.9","true","480","tones/880hz_short.mp3","s","","","tone_number_task","992.5","cincuenta y cinco","tones/880hz_short.mp3","1142.5","60","2","37",""
"","","","","","html-keyboard-response","206","421013","0.0-249.0-0.0","50","1","2023-11-01 03:22:25","a725c3012b74bf33a1020a98cb69c237","24.232.215.58","Mozilla/5.0 (Windows NT 10.0; Win64; x64) AppleWebKit/537.36 (KHTML, like Gecko) Chrome/118.0.0.0 Safari/537.36","WebKit","Chrome","118.0.0.0","Windows","10.0","null","es-419,es;q=0.9","true","null","","null","","","delay_block","","","","","","2","37",""
"","","","","","html-keyboard-response","207","421169","0.0-249.0-1.0","50","1","2023-11-01 03:22:25","a725c3012b74bf33a1020a98cb69c237","24.232.215.58","Mozilla/5.0 (Windows NT 10.0; Win64; x64) AppleWebKit/537.36 (KHTML, like Gecko) Chrome/118.0.0.0 Safari/537.36","WebKit","Chrome","118.0.0.0","Windows","10.0","null","es-419,es;q=0.9","true","null","<p id=""stimulus"" style=""font-size:60px;"">cincuenta y cinco</p>","null","","","tone_number_task_remaining_before_delay","","cincuenta y cinco","","662.5","60","2","37",""
"","","","","","html-keyboard-response","208","421673","0.0-252.0-0.0","50","1","2023-11-01 03:22:25","a725c3012b74bf33a1020a98cb69c237","24.232.215.58","Mozilla/5.0 (Windows NT 10.0; Win64; x64) AppleWebKit/537.36 (KHTML, like Gecko) Chrome/118.0.0.0 Safari/537.36","WebKit","Chrome","118.0.0.0","Windows","10.0","null","es-419,es;q=0.9","true","497","<p id=""stimulus"" style=""font-size:60px;"">cincuenta y cinco</p>","k","","","empty_block","","cincuenta y cinco","","","","2","37",""
"","","","","","html-keyboard-response","209","424555","0.0-253.0","50","1","2023-11-01 03:22:25","a725c3012b74bf33a1020a98cb69c237","24.232.215.58","Mozilla/5.0 (Windows NT 10.0; Win64; x64) AppleWebKit/537.36 (KHTML, like Gecko) Chrome/118.0.0.0 Safari/537.36","WebKit","Chrome","118.0.0.0","Windows","10.0","null","es-419,es;q=0.9","true","null","<div style=""font-size:100px;"">X</div>","null","","","fixation","","","","","","","",""
"","","","","","audio-keyboard-response","210","424711","0.0-254.0","50","1","2023-11-01 03:22:25","a725c3012b74bf33a1020a98cb69c237","24.232.215.58","Mozilla/5.0 (Windows NT 10.0; Win64; x64) AppleWebKit/537.36 (KHTML, like Gecko) Chrome/118.0.0.0 Safari/537.36","WebKit","Chrome","118.0.0.0","Windows","10.0","null","es-419,es;q=0.9","true","null","tones/880hz_short.mp3","null","","","tone_number_task","0","cuarenta y cuatro","tones/880hz_short.mp3","150","60","2","38",""
"","","","","","html-keyboard-response","211","425349","0.0-257.0-0.0","50","1","2023-11-01 03:22:25","a725c3012b74bf33a1020a98cb69c237","24.232.215.58","Mozilla/5.0 (Windows NT 10.0; Win64; x64) AppleWebKit/537.36 (KHTML, like Gecko) Chrome/118.0.0.0 Safari/537.36","WebKit","Chrome","118.0.0.0","Windows","10.0","null","es-419,es;q=0.9","true","631","tones/880hz_short.mp3","s","","","empty_block","","cuarenta y cuatro","","","","2","38",""
"","","","","","html-keyboard-response","212","426128","0.0-257.0-1.0","50","1","2023-11-01 03:22:25","a725c3012b74bf33a1020a98cb69c237","24.232.215.58","Mozilla/5.0 (Windows NT 10.0; Win64; x64) AppleWebKit/537.36 (KHTML, like Gecko) Chrome/118.0.0.0 Safari/537.36","WebKit","Chrome","118.0.0.0","Windows","10.0","null","es-419,es;q=0.9","true","774","tones/880hz_short.mp3","k","","","empty_block","","cuarenta y cuatro","","","","2","38",""
"","","","","","html-keyboard-response","213","429011","0.0-259.0","50","1","2023-11-01 03:22:25","a725c3012b74bf33a1020a98cb69c237","24.232.215.58","Mozilla/5.0 (Windows NT 10.0; Win64; x64) AppleWebKit/537.36 (KHTML, like Gecko) Chrome/118.0.0.0 Safari/537.36","WebKit","Chrome","118.0.0.0","Windows","10.0","null","es-419,es;q=0.9","true","null","<div style=""font-size:100px;"">X</div>","null","","","fixation","","","","","","","",""
"","","","","","audio-keyboard-response","214","429167","0.0-260.0","50","1","2023-11-01 03:22:25","a725c3012b74bf33a1020a98cb69c237","24.232.215.58","Mozilla/5.0 (Windows NT 10.0; Win64; x64) AppleWebKit/537.36 (KHTML, like Gecko) Chrome/118.0.0.0 Safari/537.36","WebKit","Chrome","118.0.0.0","Windows","10.0","null","es-419,es;q=0.9","true","null","tones/880hz_short.mp3","null","","","tone_number_task","0","sesenta y ocho","tones/880hz_short.mp3","150","60","2","39",""
"","","","","","html-keyboard-response","215","430195","0.0-263.0-0.0","50","1","2023-11-01 03:22:25","a725c3012b74bf33a1020a98cb69c237","24.232.215.58","Mozilla/5.0 (Windows NT 10.0; Win64; x64) AppleWebKit/537.36 (KHTML, like Gecko) Chrome/118.0.0.0 Safari/537.36","WebKit","Chrome","118.0.0.0","Windows","10.0","null","es-419,es;q=0.9","true","1023","tones/880hz_short.mp3","s","","","empty_block","","sesenta y ocho","","","","2","39",""
