"success","timeout","failed_images","failed_audio","failed_video","trial_type","trial_index","time_elapsed","internal_node_id","run_id","condition","recorded_at","source_code_version","ip","user_agent","device","browser","browser_version","platform","platform_version","referer","accept_language","check","rt","stimulus","response","question_order","url","task","delay","number","audioFile","trial_duration","font_size","block","round","value"
"true","false","[]","[]","[]","preload","0","876","0.0-0.0","57","1","2023-11-01 12:53:33","a725c3012b74bf33a1020a98cb69c237","146.112.238.193","Mozilla/5.0 (Windows NT 10.0; Win64; x64) AppleWebKit/537.36 (KHTML, like Gecko) Chrome/118.0.0.0 Safari/537.36","WebKit","Chrome","118.0.0.0","Windows","10.0","null","en-US,en;q=0.9,es;q=0.8","true","","","","","","","","","","","","","",""
"true","","","","","fullscreen","1","4362","0.0-1.0","57","1","2023-11-01 12:53:33","a725c3012b74bf33a1020a98cb69c237","146.112.238.193","Mozilla/5.0 (Windows NT 10.0; Win64; x64) AppleWebKit/537.36 (KHTML, like Gecko) Chrome/118.0.0.0 Safari/537.36","WebKit","Chrome","118.0.0.0","Windows","10.0","null","en-US,en;q=0.9,es;q=0.8","true","","","","","","","","","","","","","",""
"","","","","","html-button-response","2","6115","0.0-2.0","57","1","2023-11-01 12:53:33","a725c3012b74bf33a1020a98cb69c237","146.112.238.193","Mozilla/5.0 (Windows NT 10.0; Win64; x64) AppleWebKit/537.36 (KHTML, like Gecko) Chrome/118.0.0.0 Safari/537.36","WebKit","Chrome","118.0.0.0","Windows","10.0","null","en-US,en;q=0.9,es;q=0.8","true","1752","<p style=""font-size:24px; color:red;"">Cosas importantes a tener en cuenta antes de comenzar el experimento:</p>","0","","","","","","","","","","",""
"","","","","","html-button-response","3","11130","0.0-3.0","57","1","2023-11-01 12:53:33","a725c3012b74bf33a1020a98cb69c237","146.112.238.193","Mozilla/5.0 (Windows NT 10.0; Win64; x64) AppleWebKit/537.36 (KHTML, like Gecko) Chrome/118.0.0.0 Safari/537.36","WebKit","Chrome","118.0.0.0","Windows","10.0","null","en-US,en;q=0.9,es;q=0.8","true","5015","<p style=""font-size:24px;"">El experimento dura aproximadamente 15 minutos.</p><p style=""font-size:24px;"">Por favor, no cierres la ventana del navegador durante el experimento.</p><p style=""font-size:24px;"">Si se completa de forma parcial, no se guardará ningún resultado.</p>","0","","","","","","","","","","",""
"","","","","","html-button-response","4","14294","0.0-4.0","57","1","2023-11-01 12:53:33","a725c3012b74bf33a1020a98cb69c237","146.112.238.193","Mozilla/5.0 (Windows NT 10.0; Win64; x64) AppleWebKit/537.36 (KHTML, like Gecko) Chrome/118.0.0.0 Safari/537.36","WebKit","Chrome","118.0.0.0","Windows","10.0","null","en-US,en;q=0.9,es;q=0.8","true","3162","<p style=""font-size:24px;"">El experimento contiene estímulos sonoros.</p>","0","","","","","","","","","","",""
"","","","","","audio-button-response","5","16670","0.0-5.0-0.0","57","1","2023-11-01 12:53:33","a725c3012b74bf33a1020a98cb69c237","146.112.238.193","Mozilla/5.0 (Windows NT 10.0; Win64; x64) AppleWebKit/537.36 (KHTML, like Gecko) Chrome/118.0.0.0 Safari/537.36","WebKit","Chrome","118.0.0.0","Windows","10.0","null","en-US,en;q=0.9,es;q=0.8","true","2301","tones/440hz_short.mp3","1","","","","","","","","","","",""
"","","","","","audio-button-response","6","18084","0.0-6.0-0.0","57","1","2023-11-01 12:53:33","a725c3012b74bf33a1020a98cb69c237","146.112.238.193","Mozilla/5.0 (Windows NT 10.0; Win64; x64) AppleWebKit/537.36 (KHTML, like Gecko) Chrome/118.0.0.0 Safari/537.36","WebKit","Chrome","118.0.0.0","Windows","10.0","null","en-US,en;q=0.9,es;q=0.8","true","1408","tones/880hz_short.mp3","1","","","","","","","","","","",""
"","","","","","survey-html-form","7","23072","0.0-7.0","57","1","2023-11-01 12:53:33","a725c3012b74bf33a1020a98cb69c237","146.112.238.193","Mozilla/5.0 (Windows NT 10.0; Win64; x64) AppleWebKit/537.36 (KHTML, like Gecko) Chrome/118.0.0.0 Safari/537.36","WebKit","Chrome","118.0.0.0","Windows","10.0","null","en-US,en;q=0.9,es;q=0.8","true","4985","","{""response"":""37""}","","","","","","","","","","",""
"","","","","","survey-multi-choice","8","28598","0.0-8.0","57","1","2023-11-01 12:53:33","a725c3012b74bf33a1020a98cb69c237","146.112.238.193","Mozilla/5.0 (Windows NT 10.0; Win64; x64) AppleWebKit/537.36 (KHTML, like Gecko) Chrome/118.0.0.0 Safari/537.36","WebKit","Chrome","118.0.0.0","Windows","10.0","null","en-US,en;q=0.9,es;q=0.8","true","5524","","{""gender"":""Mujer"",""hand"":""Izquierda""}","[0,1]","","","","","","","","","",""
"","","","","","external-html","9","83558","0.0-9.0","57","1","2023-11-01 12:53:33","a725c3012b74bf33a1020a98cb69c237","146.112.238.193","Mozilla/5.0 (Windows NT 10.0; Win64; x64) AppleWebKit/537.36 (KHTML, like Gecko) Chrome/118.0.0.0 Safari/537.36","WebKit","Chrome","118.0.0.0","Windows","10.0","null","en-US,en;q=0.9,es;q=0.8","true","54669","","","","instructions/instructions.html","","","","","","","","",""
"","","","","","external-html","10","127893","0.0-10.0","57","1","2023-11-01 12:53:33","a725c3012b74bf33a1020a98cb69c237","146.112.238.193","Mozilla/5.0 (Windows NT 10.0; Win64; x64) AppleWebKit/537.36 (KHTML, like Gecko) Chrome/118.0.0.0 Safari/537.36","WebKit","Chrome","118.0.0.0","Windows","10.0","null","en-US,en;q=0.9,es;q=0.8","true","44035","","","","instructions/animation.html","","","","","","","","",""
"","","","","","html-keyboard-response","11","130605","0.0-11.0-0.0","57","1","2023-11-01 12:53:33","a725c3012b74bf33a1020a98cb69c237","146.112.238.193","Mozilla/5.0 (Windows NT 10.0; Win64; x64) AppleWebKit/537.36 (KHTML, like Gecko) Chrome/118.0.0.0 Safari/537.36","WebKit","Chrome","118.0.0.0","Windows","10.0","null","en-US,en;q=0.9,es;q=0.8","true","null","<div style=""font-size:100px;"">X</div>","null","","","fixation","","","","","","","",""
"","","","","","audio-keyboard-response","12","131338","0.0-11.0-1.0","57","1","2023-11-01 12:53:33","a725c3012b74bf33a1020a98cb69c237","146.112.238.193","Mozilla/5.0 (Windows NT 10.0; Win64; x64) AppleWebKit/537.36 (KHTML, like Gecko) Chrome/118.0.0.0 Safari/537.36","WebKit","Chrome","118.0.0.0","Windows","10.0","null","en-US,en;q=0.9,es;q=0.8","true","648","tones/440hz_short.mp3","a","","","tone_number_task","1000","49","tones/440hz_short.mp3","1150","100","null","null",""
"","","","","","html-keyboard-response","13","131691","0.0-11.0-2.0-0.0","57","1","2023-11-01 12:53:33","a725c3012b74bf33a1020a98cb69c237","146.112.238.193","Mozilla/5.0 (Windows NT 10.0; Win64; x64) AppleWebKit/537.36 (KHTML, like Gecko) Chrome/118.0.0.0 Safari/537.36","WebKit","Chrome","118.0.0.0","Windows","10.0","null","en-US,en;q=0.9,es;q=0.8","true","null","","null","","","delay_block","","","","","","null","null",""
"","","","","","html-keyboard-response","14","131842","0.0-11.0-2.0-1.0","57","1","2023-11-01 12:53:33","a725c3012b74bf33a1020a98cb69c237","146.112.238.193","Mozilla/5.0 (Windows NT 10.0; Win64; x64) AppleWebKit/537.36 (KHTML, like Gecko) Chrome/118.0.0.0 Safari/537.36","WebKit","Chrome","118.0.0.0","Windows","10.0","null","en-US,en;q=0.9,es;q=0.8","true","null","<p id=""stimulus"" style=""font-size:100px;"">49</p>","null","","","tone_number_task_remaining_before_delay","","49","","502","100","null","null",""
"","","","","","html-keyboard-response","15","132634","0.0-11.0-5.0-0.0","57","1","2023-11-01 12:53:33","a725c3012b74bf33a1020a98cb69c237","146.112.238.193","Mozilla/5.0 (Windows NT 10.0; Win64; x64) AppleWebKit/537.36 (KHTML, like Gecko) Chrome/118.0.0.0 Safari/537.36","WebKit","Chrome","118.0.0.0","Windows","10.0","null","en-US,en;q=0.9,es;q=0.8","true","791","<p id=""stimulus"" style=""font-size:100px;"">49</p>","k","","","empty_block","","49","","","","null","null",""
"","","","","","html-keyboard-response","16","135345","0.0-13.0-0.0","57","1","2023-11-01 12:53:33","a725c3012b74bf33a1020a98cb69c237","146.112.238.193","Mozilla/5.0 (Windows NT 10.0; Win64; x64) AppleWebKit/537.36 (KHTML, like Gecko) Chrome/118.0.0.0 Safari/537.36","WebKit","Chrome","118.0.0.0","Windows","10.0","null","en-US,en;q=0.9,es;q=0.8","true","null","<div style=""font-size:100px;"">X</div>","null","","","fixation","","","","","","","",""
"","","","","","audio-keyboard-response","17","135997","0.0-13.0-1.0","57","1","2023-11-01 12:53:33","a725c3012b74bf33a1020a98cb69c237","146.112.238.193","Mozilla/5.0 (Windows NT 10.0; Win64; x64) AppleWebKit/537.36 (KHTML, like Gecko) Chrome/118.0.0.0 Safari/537.36","WebKit","Chrome","118.0.0.0","Windows","10.0","null","en-US,en;q=0.9,es;q=0.8","true","null","tones/880hz_short.mp3","null","","","tone_number_task","500","35","tones/880hz_short.mp3","650","100","null","null",""
"","","","","","html-keyboard-response","18","136177","0.0-13.0-4.0-0.0","57","1","2023-11-01 12:53:33","a725c3012b74bf33a1020a98cb69c237","146.112.238.193","Mozilla/5.0 (Windows NT 10.0; Win64; x64) AppleWebKit/537.36 (KHTML, like Gecko) Chrome/118.0.0.0 Safari/537.36","WebKit","Chrome","118.0.0.0","Windows","10.0","null","en-US,en;q=0.9,es;q=0.8","true","178","tones/880hz_short.mp3","s","","","empty_block","","35","","","","null","null",""
"","","","","","html-keyboard-response","19","137181","0.0-13.0-4.0-1.0","57","1","2023-11-01 12:53:33","a725c3012b74bf33a1020a98cb69c237","146.112.238.193","Mozilla/5.0 (Windows NT 10.0; Win64; x64) AppleWebKit/537.36 (KHTML, like Gecko) Chrome/118.0.0.0 Safari/537.36","WebKit","Chrome","118.0.0.0","Windows","10.0","null","en-US,en;q=0.9,es;q=0.8","true","1003","tones/880hz_short.mp3","j","","","empty_block","","35","","","","null","null",""
"","","","","","html-keyboard-response","20","139893","0.0-15.0-0.0","57","1","2023-11-01 12:53:33","a725c3012b74bf33a1020a98cb69c237","146.112.238.193","Mozilla/5.0 (Windows NT 10.0; Win64; x64) AppleWebKit/537.36 (KHTML, like Gecko) Chrome/118.0.0.0 Safari/537.36","WebKit","Chrome","118.0.0.0","Windows","10.0","null","en-US,en;q=0.9,es;q=0.8","true","null","<div style=""font-size:100px;"">X</div>","null","","","fixation","","","","","","","",""
"","","","","","audio-keyboard-response","21","140196","0.0-15.0-1.0","57","1","2023-11-01 12:53:33","a725c3012b74bf33a1020a98cb69c237","146.112.238.193","Mozilla/5.0 (Windows NT 10.0; Win64; x64) AppleWebKit/537.36 (KHTML, like Gecko) Chrome/118.0.0.0 Safari/537.36","WebKit","Chrome","118.0.0.0","Windows","10.0","null","en-US,en;q=0.9,es;q=0.8","true","null","tones/440hz_short.mp3","null","","","tone_number_task","150","67","tones/440hz_short.mp3","300","100","null","null",""
"","","","","","html-keyboard-response","22","140568","0.0-15.0-4.0-0.0","57","1","2023-11-01 12:53:33","a725c3012b74bf33a1020a98cb69c237","146.112.238.193","Mozilla/5.0 (Windows NT 10.0; Win64; x64) AppleWebKit/537.36 (KHTML, like Gecko) Chrome/118.0.0.0 Safari/537.36","WebKit","Chrome","118.0.0.0","Windows","10.0","null","en-US,en;q=0.9,es;q=0.8","true","371","tones/440hz_short.mp3","a","","","empty_block","","67","","","","null","null",""
"","","","","","html-keyboard-response","23","141132","0.0-15.0-4.0-1.0","57","1","2023-11-01 12:53:33","a725c3012b74bf33a1020a98cb69c237","146.112.238.193","Mozilla/5.0 (Windows NT 10.0; Win64; x64) AppleWebKit/537.36 (KHTML, like Gecko) Chrome/118.0.0.0 Safari/537.36","WebKit","Chrome","118.0.0.0","Windows","10.0","null","en-US,en;q=0.9,es;q=0.8","true","563","tones/440hz_short.mp3","k","","","empty_block","","67","","","","null","null",""
"","","","","","html-keyboard-response","24","143843","0.0-17.0-0.0","57","1","2023-11-01 12:53:33","a725c3012b74bf33a1020a98cb69c237","146.112.238.193","Mozilla/5.0 (Windows NT 10.0; Win64; x64) AppleWebKit/537.36 (KHTML, like Gecko) Chrome/118.0.0.0 Safari/537.36","WebKit","Chrome","118.0.0.0","Windows","10.0","null","en-US,en;q=0.9,es;q=0.8","true","null","<div style=""font-size:100px;"">X</div>","null","","","fixation","","","","","","","",""
"","","","","","audio-keyboard-response","25","144044","0.0-17.0-1.0","57","1","2023-11-01 12:53:33","a725c3012b74bf33a1020a98cb69c237","146.112.238.193","Mozilla/5.0 (Windows NT 10.0; Win64; x64) AppleWebKit/537.36 (KHTML, like Gecko) Chrome/118.0.0.0 Safari/537.36","WebKit","Chrome","118.0.0.0","Windows","10.0","null","en-US,en;q=0.9,es;q=0.8","true","null","tones/880hz_short.mp3","null","","","tone_number_task","50","56","tones/880hz_short.mp3","200","100","null","null",""
"","","","","","html-keyboard-response","26","144453","0.0-17.0-4.0-0.0","57","1","2023-11-01 12:53:33","a725c3012b74bf33a1020a98cb69c237","146.112.238.193","Mozilla/5.0 (Windows NT 10.0; Win64; x64) AppleWebKit/537.36 (KHTML, like Gecko) Chrome/118.0.0.0 Safari/537.36","WebKit","Chrome","118.0.0.0","Windows","10.0","null","en-US,en;q=0.9,es;q=0.8","true","408","tones/880hz_short.mp3","s","","","empty_block","","56","","","","null","null",""
"","","","","","html-keyboard-response","27","145034","0.0-17.0-4.0-1.0","57","1","2023-11-01 12:53:33","a725c3012b74bf33a1020a98cb69c237","146.112.238.193","Mozilla/5.0 (Windows NT 10.0; Win64; x64) AppleWebKit/537.36 (KHTML, like Gecko) Chrome/118.0.0.0 Safari/537.36","WebKit","Chrome","118.0.0.0","Windows","10.0","null","en-US,en;q=0.9,es;q=0.8","true","580","tones/880hz_short.mp3","k","","","empty_block","","56","","","","null","null",""
"","","","","","html-button-response","28","152810","0.0-19.0","57","1","2023-11-01 12:53:33","a725c3012b74bf33a1020a98cb69c237","146.112.238.193","Mozilla/5.0 (Windows NT 10.0; Win64; x64) AppleWebKit/537.36 (KHTML, like Gecko) Chrome/118.0.0.0 Safari/537.36","WebKit","Chrome","118.0.0.0","Windows","10.0","null","en-US,en;q=0.9,es;q=0.8","true","7775","
  <h1> Muy bien </h1>
  <p> Ahora, en vez de ser presentados en dígitos, los números vendrán escritos en palabras. </p>
  <p> Por ejemplo, en vez de 44 te aparecerá ""cuarenta y cuatro"". </p>
  ","0","","","","","","","","","","",""
"","","","","","html-keyboard-response","29","155522","0.0-20.0-0.0","57","1","2023-11-01 12:53:33","a725c3012b74bf33a1020a98cb69c237","146.112.238.193","Mozilla/5.0 (Windows NT 10.0; Win64; x64) AppleWebKit/537.36 (KHTML, like Gecko) Chrome/118.0.0.0 Safari/537.36","WebKit","Chrome","118.0.0.0","Windows","10.0","null","en-US,en;q=0.9,es;q=0.8","true","null","<div style=""font-size:100px;"">X</div>","null","","","fixation","","","","","","","",""
"","","","","","audio-keyboard-response","30","156084","0.0-20.0-1.0","57","1","2023-11-01 12:53:33","a725c3012b74bf33a1020a98cb69c237","146.112.238.193","Mozilla/5.0 (Windows NT 10.0; Win64; x64) AppleWebKit/537.36 (KHTML, like Gecko) Chrome/118.0.0.0 Safari/537.36","WebKit","Chrome","118.0.0.0","Windows","10.0","null","en-US,en;q=0.9,es;q=0.8","true","560","tones/440hz_short.mp3","a","","","tone_number_task","1000","treinta y dos","tones/440hz_short.mp3","1150","60","null","null",""
"","","","","","html-keyboard-response","31","156526","0.0-20.0-2.0-0.0","57","1","2023-11-01 12:53:33","a725c3012b74bf33a1020a98cb69c237","146.112.238.193","Mozilla/5.0 (Windows NT 10.0; Win64; x64) AppleWebKit/537.36 (KHTML, like Gecko) Chrome/118.0.0.0 Safari/537.36","WebKit","Chrome","118.0.0.0","Windows","10.0","null","en-US,en;q=0.9,es;q=0.8","true","null","","null","","","delay_block","","","","","","null","null",""
"","","","","","html-keyboard-response","32","156679","0.0-20.0-2.0-1.0","57","1","2023-11-01 12:53:33","a725c3012b74bf33a1020a98cb69c237","146.112.238.193","Mozilla/5.0 (Windows NT 10.0; Win64; x64) AppleWebKit/537.36 (KHTML, like Gecko) Chrome/118.0.0.0 Safari/537.36","WebKit","Chrome","118.0.0.0","Windows","10.0","null","en-US,en;q=0.9,es;q=0.8","true","null","<p id=""stimulus"" style=""font-size:60px;"">treinta y dos</p>","null","","","tone_number_task_remaining_before_delay","","treinta y dos","","590","60","null","null",""
"","","","","","html-keyboard-response","33","157206","0.0-20.0-5.0-0.0","57","1","2023-11-01 12:53:33","a725c3012b74bf33a1020a98cb69c237","146.112.238.193","Mozilla/5.0 (Windows NT 10.0; Win64; x64) AppleWebKit/537.36 (KHTML, like Gecko) Chrome/118.0.0.0 Safari/537.36","WebKit","Chrome","118.0.0.0","Windows","10.0","null","en-US,en;q=0.9,es;q=0.8","true","526","<p id=""stimulus"" style=""font-size:60px;"">treinta y dos</p>","j","","","empty_block","","treinta y dos","","","","null","null",""
"","","","","","html-button-response","34","165341","0.0-22.0","57","1","2023-11-01 12:53:33","a725c3012b74bf33a1020a98cb69c237","146.112.238.193","Mozilla/5.0 (Windows NT 10.0; Win64; x64) AppleWebKit/537.36 (KHTML, like Gecko) Chrome/118.0.0.0 Safari/537.36","WebKit","Chrome","118.0.0.0","Windows","10.0","null","en-US,en;q=0.9,es;q=0.8","true","8133","
  <h1> Fin del Entrenamiento </h1>
  <p> ¡Felicitaciones, terminaste el entrenamiento! Ahora vamos a comenzar con el experimento. </p>
  <p> Es importante tener en cuenta que consta de cuatro bloques.</p>
  <p> Podés aprovechar los momentos entre bloques para tomar un breve descanso o tomar agua entre cada uno</p>
  <p> Recordá que tenés que responder lo más rápido que puedas, pero sin equivocarte. </p>
  ","0","","","","","","","","","","",""
"","","","","","external-html","35","175818","0.0-23.0","57","1","2023-11-01 12:53:33","a725c3012b74bf33a1020a98cb69c237","146.112.238.193","Mozilla/5.0 (Windows NT 10.0; Win64; x64) AppleWebKit/537.36 (KHTML, like Gecko) Chrome/118.0.0.0 Safari/537.36","WebKit","Chrome","118.0.0.0","Windows","10.0","null","en-US,en;q=0.9,es;q=0.8","true","10176","","","","instructions/instructions_digits_first.html","","","","","","","","",""
"","","","","","call-function","36","175820","0.0-24.0","57","1","2023-11-01 12:53:33","a725c3012b74bf33a1020a98cb69c237","146.112.238.193","Mozilla/5.0 (Windows NT 10.0; Win64; x64) AppleWebKit/537.36 (KHTML, like Gecko) Chrome/118.0.0.0 Safari/537.36","WebKit","Chrome","118.0.0.0","Windows","10.0","null","en-US,en;q=0.9,es;q=0.8","true","","","","","","","","","","","","","",""
"","","","","","html-keyboard-response","37","178531","0.0-25.0","57","1","2023-11-01 12:53:33","a725c3012b74bf33a1020a98cb69c237","146.112.238.193","Mozilla/5.0 (Windows NT 10.0; Win64; x64) AppleWebKit/537.36 (KHTML, like Gecko) Chrome/118.0.0.0 Safari/537.36","WebKit","Chrome","118.0.0.0","Windows","10.0","null","en-US,en;q=0.9,es;q=0.8","true","null","<div style=""font-size:100px;"">X</div>","null","","","fixation","","","","","","","",""
"","","","","","audio-keyboard-response","38","178785","0.0-26.0","57","1","2023-11-01 12:53:33","a725c3012b74bf33a1020a98cb69c237","146.112.238.193","Mozilla/5.0 (Windows NT 10.0; Win64; x64) AppleWebKit/537.36 (KHTML, like Gecko) Chrome/118.0.0.0 Safari/537.36","WebKit","Chrome","118.0.0.0","Windows","10.0","null","en-US,en;q=0.9,es;q=0.8","true","null","tones/440hz_short.mp3","null","","","tone_number_task","102.5","66","tones/440hz_short.mp3","252.5","100","0","0",""
"","","","","","html-keyboard-response","39","179035","0.0-29.0-0.0","57","1","2023-11-01 12:53:33","a725c3012b74bf33a1020a98cb69c237","146.112.238.193","Mozilla/5.0 (Windows NT 10.0; Win64; x64) AppleWebKit/537.36 (KHTML, like Gecko) Chrome/118.0.0.0 Safari/537.36","WebKit","Chrome","118.0.0.0","Windows","10.0","null","en-US,en;q=0.9,es;q=0.8","true","248","tones/440hz_short.mp3","a","","","empty_block","","66","","","","0","0",""
"","","","","","html-keyboard-response","40","179801","0.0-29.0-1.0","57","1","2023-11-01 12:53:33","a725c3012b74bf33a1020a98cb69c237","146.112.238.193","Mozilla/5.0 (Windows NT 10.0; Win64; x64) AppleWebKit/537.36 (KHTML, like Gecko) Chrome/118.0.0.0 Safari/537.36","WebKit","Chrome","118.0.0.0","Windows","10.0","null","en-US,en;q=0.9,es;q=0.8","true","764","tones/440hz_short.mp3","k","","","empty_block","","66","","","","0","0",""
"","","","","","html-keyboard-response","41","182511","0.0-31.0","57","1","2023-11-01 12:53:33","a725c3012b74bf33a1020a98cb69c237","146.112.238.193","Mozilla/5.0 (Windows NT 10.0; Win64; x64) AppleWebKit/537.36 (KHTML, like Gecko) Chrome/118.0.0.0 Safari/537.36","WebKit","Chrome","118.0.0.0","Windows","10.0","null","en-US,en;q=0.9,es;q=0.8","true","null","<div style=""font-size:100px;"">X</div>","null","","","fixation","","","","","","","",""
"","","","","","audio-keyboard-response","42","182766","0.0-32.0","57","1","2023-11-01 12:53:33","a725c3012b74bf33a1020a98cb69c237","146.112.238.193","Mozilla/5.0 (Windows NT 10.0; Win64; x64) AppleWebKit/537.36 (KHTML, like Gecko) Chrome/118.0.0.0 Safari/537.36","WebKit","Chrome","118.0.0.0","Windows","10.0","null","en-US,en;q=0.9,es;q=0.8","true","null","tones/440hz_short.mp3","null","","","tone_number_task","102.5","37","tones/440hz_short.mp3","252.5","100","0","1",""
"","","","","","html-keyboard-response","43","183135","0.0-35.0-0.0","57","1","2023-11-01 12:53:33","a725c3012b74bf33a1020a98cb69c237","146.112.238.193","Mozilla/5.0 (Windows NT 10.0; Win64; x64) AppleWebKit/537.36 (KHTML, like Gecko) Chrome/118.0.0.0 Safari/537.36","WebKit","Chrome","118.0.0.0","Windows","10.0","null","en-US,en;q=0.9,es;q=0.8","true","367","tones/440hz_short.mp3","a","","","empty_block","","37","","","","0","1",""
"","","","","","html-keyboard-response","44","183536","0.0-35.0-1.0","57","1","2023-11-01 12:53:33","a725c3012b74bf33a1020a98cb69c237","146.112.238.193","Mozilla/5.0 (Windows NT 10.0; Win64; x64) AppleWebKit/537.36 (KHTML, like Gecko) Chrome/118.0.0.0 Safari/537.36","WebKit","Chrome","118.0.0.0","Windows","10.0","null","en-US,en;q=0.9,es;q=0.8","true","400","tones/440hz_short.mp3","j","","","empty_block","","37","","","","0","1",""
"","","","","","html-keyboard-response","45","186247","0.0-37.0","57","1","2023-11-01 12:53:33","a725c3012b74bf33a1020a98cb69c237","146.112.238.193","Mozilla/5.0 (Windows NT 10.0; Win64; x64) AppleWebKit/537.36 (KHTML, like Gecko) Chrome/118.0.0.0 Safari/537.36","WebKit","Chrome","118.0.0.0","Windows","10.0","null","en-US,en;q=0.9,es;q=0.8","true","null","<div style=""font-size:100px;"">X</div>","null","","","fixation","","","","","","","",""
"","","","","","audio-keyboard-response","46","186398","0.0-38.0","57","1","2023-11-01 12:53:33","a725c3012b74bf33a1020a98cb69c237","146.112.238.193","Mozilla/5.0 (Windows NT 10.0; Win64; x64) AppleWebKit/537.36 (KHTML, like Gecko) Chrome/118.0.0.0 Safari/537.36","WebKit","Chrome","118.0.0.0","Windows","10.0","null","en-US,en;q=0.9,es;q=0.8","true","null","tones/440hz_short.mp3","null","","","tone_number_task","0","55","tones/440hz_short.mp3","150","100","0","2",""
"","","","","","html-keyboard-response","47","186919","0.0-41.0-0.0","57","1","2023-11-01 12:53:33","a725c3012b74bf33a1020a98cb69c237","146.112.238.193","Mozilla/5.0 (Windows NT 10.0; Win64; x64) AppleWebKit/537.36 (KHTML, like Gecko) Chrome/118.0.0.0 Safari/537.36","WebKit","Chrome","118.0.0.0","Windows","10.0","null","en-US,en;q=0.9,es;q=0.8","true","520","tones/440hz_short.mp3","a","","","empty_block","","55","","","","0","2",""
"","","","","","html-keyboard-response","48","187500","0.0-41.0-1.0","57","1","2023-11-01 12:53:33","a725c3012b74bf33a1020a98cb69c237","146.112.238.193","Mozilla/5.0 (Windows NT 10.0; Win64; x64) AppleWebKit/537.36 (KHTML, like Gecko) Chrome/118.0.0.0 Safari/537.36","WebKit","Chrome","118.0.0.0","Windows","10.0","null","en-US,en;q=0.9,es;q=0.8","true","580","tones/440hz_short.mp3","k","","","empty_block","","55","","","","0","2",""
"","","","","","html-keyboard-response","49","190211","0.0-43.0","57","1","2023-11-01 12:53:33","a725c3012b74bf33a1020a98cb69c237","146.112.238.193","Mozilla/5.0 (Windows NT 10.0; Win64; x64) AppleWebKit/537.36 (KHTML, like Gecko) Chrome/118.0.0.0 Safari/537.36","WebKit","Chrome","118.0.0.0","Windows","10.0","null","en-US,en;q=0.9,es;q=0.8","true","null","<div style=""font-size:100px;"">X</div>","null","","","fixation","","","","","","","",""
"","","","","","audio-keyboard-response","50","191033","0.0-44.0","57","1","2023-11-01 12:53:33","a725c3012b74bf33a1020a98cb69c237","146.112.238.193","Mozilla/5.0 (Windows NT 10.0; Win64; x64) AppleWebKit/537.36 (KHTML, like Gecko) Chrome/118.0.0.0 Safari/537.36","WebKit","Chrome","118.0.0.0","Windows","10.0","null","en-US,en;q=0.9,es;q=0.8","true","819","tones/440hz_short.mp3","a","","","tone_number_task","1025","27","tones/440hz_short.mp3","1175","100","0","3",""
"","","","","","html-keyboard-response","51","191240","0.0-45.0-0.0","57","1","2023-11-01 12:53:33","a725c3012b74bf33a1020a98cb69c237","146.112.238.193","Mozilla/5.0 (Windows NT 10.0; Win64; x64) AppleWebKit/537.36 (KHTML, like Gecko) Chrome/118.0.0.0 Safari/537.36","WebKit","Chrome","118.0.0.0","Windows","10.0","null","en-US,en;q=0.9,es;q=0.8","true","null","","null","","","delay_block","","","","","","0","3",""
"","","","","","html-keyboard-response","52","191392","0.0-45.0-1.0","57","1","2023-11-01 12:53:33","a725c3012b74bf33a1020a98cb69c237","146.112.238.193","Mozilla/5.0 (Windows NT 10.0; Win64; x64) AppleWebKit/537.36 (KHTML, like Gecko) Chrome/118.0.0.0 Safari/537.36","WebKit","Chrome","118.0.0.0","Windows","10.0","null","en-US,en;q=0.9,es;q=0.8","true","null","<p id=""stimulus"" style=""font-size:100px;"">27</p>","null","","","tone_number_task_remaining_before_delay","","27","","356","100","0","3",""
"","","","","","html-keyboard-response","53","192001","0.0-48.0-0.0","57","1","2023-11-01 12:53:33","a725c3012b74bf33a1020a98cb69c237","146.112.238.193","Mozilla/5.0 (Windows NT 10.0; Win64; x64) AppleWebKit/537.36 (KHTML, like Gecko) Chrome/118.0.0.0 Safari/537.36","WebKit","Chrome","118.0.0.0","Windows","10.0","null","en-US,en;q=0.9,es;q=0.8","true","609","<p id=""stimulus"" style=""font-size:100px;"">27</p>","j","","","empty_block","","27","","","","0","3",""
"","","","","","html-keyboard-response","54","194712","0.0-49.0","57","1","2023-11-01 12:53:33","a725c3012b74bf33a1020a98cb69c237","146.112.238.193","Mozilla/5.0 (Windows NT 10.0; Win64; x64) AppleWebKit/537.36 (KHTML, like Gecko) Chrome/118.0.0.0 Safari/537.36","WebKit","Chrome","118.0.0.0","Windows","10.0","null","en-US,en;q=0.9,es;q=0.8","true","null","<div style=""font-size:100px;"">X</div>","null","","","fixation","","","","","","","",""
"","","","","","audio-keyboard-response","55","194968","0.0-50.0","57","1","2023-11-01 12:53:33","a725c3012b74bf33a1020a98cb69c237","146.112.238.193","Mozilla/5.0 (Windows NT 10.0; Win64; x64) AppleWebKit/537.36 (KHTML, like Gecko) Chrome/118.0.0.0 Safari/537.36","WebKit","Chrome","118.0.0.0","Windows","10.0","null","en-US,en;q=0.9,es;q=0.8","true","null","tones/880hz_short.mp3","null","","","tone_number_task","102.5","43","tones/880hz_short.mp3","252.5","100","0","4",""
"","","","","","html-keyboard-response","56","195319","0.0-53.0-0.0","57","1","2023-11-01 12:53:33","a725c3012b74bf33a1020a98cb69c237","146.112.238.193","Mozilla/5.0 (Windows NT 10.0; Win64; x64) AppleWebKit/537.36 (KHTML, like Gecko) Chrome/118.0.0.0 Safari/537.36","WebKit","Chrome","118.0.0.0","Windows","10.0","null","en-US,en;q=0.9,es;q=0.8","true","347","tones/880hz_short.mp3","s","","","empty_block","","43","","","","0","4",""
"","","","","","html-keyboard-response","57","195837","0.0-53.0-1.0","57","1","2023-11-01 12:53:33","a725c3012b74bf33a1020a98cb69c237","146.112.238.193","Mozilla/5.0 (Windows NT 10.0; Win64; x64) AppleWebKit/537.36 (KHTML, like Gecko) Chrome/118.0.0.0 Safari/537.36","WebKit","Chrome","118.0.0.0","Windows","10.0","null","en-US,en;q=0.9,es;q=0.8","true","517","tones/880hz_short.mp3","j","","","empty_block","","43","","","","0","4",""
"","","","","","html-keyboard-response","58","198548","0.0-55.0","57","1","2023-11-01 12:53:33","a725c3012b74bf33a1020a98cb69c237","146.112.238.193","Mozilla/5.0 (Windows NT 10.0; Win64; x64) AppleWebKit/537.36 (KHTML, like Gecko) Chrome/118.0.0.0 Safari/537.36","WebKit","Chrome","118.0.0.0","Windows","10.0","null","en-US,en;q=0.9,es;q=0.8","true","null","<div style=""font-size:100px;"">X</div>","null","","","fixation","","","","","","","",""
"","","","","","audio-keyboard-response","59","198803","0.0-56.0","57","1","2023-11-01 12:53:33","a725c3012b74bf33a1020a98cb69c237","146.112.238.193","Mozilla/5.0 (Windows NT 10.0; Win64; x64) AppleWebKit/537.36 (KHTML, like Gecko) Chrome/118.0.0.0 Safari/537.36","WebKit","Chrome","118.0.0.0","Windows","10.0","null","en-US,en;q=0.9,es;q=0.8","true","null","tones/440hz_short.mp3","null","","","tone_number_task","102.5","23","tones/440hz_short.mp3","252.5","100","0","5",""
"","","","","","html-keyboard-response","60","199438","0.0-59.0-0.0","57","1","2023-11-01 12:53:33","a725c3012b74bf33a1020a98cb69c237","146.112.238.193","Mozilla/5.0 (Windows NT 10.0; Win64; x64) AppleWebKit/537.36 (KHTML, like Gecko) Chrome/118.0.0.0 Safari/537.36","WebKit","Chrome","118.0.0.0","Windows","10.0","null","en-US,en;q=0.9,es;q=0.8","true","634","tones/440hz_short.mp3","a","","","empty_block","","23","","","","0","5",""
"","","","","","html-keyboard-response","61","199764","0.0-59.0-1.0","57","1","2023-11-01 12:53:33","a725c3012b74bf33a1020a98cb69c237","146.112.238.193","Mozilla/5.0 (Windows NT 10.0; Win64; x64) AppleWebKit/537.36 (KHTML, like Gecko) Chrome/118.0.0.0 Safari/537.36","WebKit","Chrome","118.0.0.0","Windows","10.0","null","en-US,en;q=0.9,es;q=0.8","true","324","tones/440hz_short.mp3","j","","","empty_block","","23","","","","0","5",""
"","","","","","html-keyboard-response","62","202475","0.0-61.0","57","1","2023-11-01 12:53:33","a725c3012b74bf33a1020a98cb69c237","146.112.238.193","Mozilla/5.0 (Windows NT 10.0; Win64; x64) AppleWebKit/537.36 (KHTML, like Gecko) Chrome/118.0.0.0 Safari/537.36","WebKit","Chrome","118.0.0.0","Windows","10.0","null","en-US,en;q=0.9,es;q=0.8","true","null","<div style=""font-size:100px;"">X</div>","null","","","fixation","","","","","","","",""
"","","","","","audio-keyboard-response","63","202626","0.0-62.0","57","1","2023-11-01 12:53:33","a725c3012b74bf33a1020a98cb69c237","146.112.238.193","Mozilla/5.0 (Windows NT 10.0; Win64; x64) AppleWebKit/537.36 (KHTML, like Gecko) Chrome/118.0.0.0 Safari/537.36","WebKit","Chrome","118.0.0.0","Windows","10.0","null","en-US,en;q=0.9,es;q=0.8","true","null","tones/440hz_short.mp3","null","","","tone_number_task","0","67","tones/440hz_short.mp3","150","100","0","6",""
"","","","","","html-keyboard-response","64","203107","0.0-65.0-0.0","57","1","2023-11-01 12:53:33","a725c3012b74bf33a1020a98cb69c237","146.112.238.193","Mozilla/5.0 (Windows NT 10.0; Win64; x64) AppleWebKit/537.36 (KHTML, like Gecko) Chrome/118.0.0.0 Safari/537.36","WebKit","Chrome","118.0.0.0","Windows","10.0","null","en-US,en;q=0.9,es;q=0.8","true","480","tones/440hz_short.mp3","a","","","empty_block","","67","","","","0","6",""
"","","","","","html-keyboard-response","65","203453","0.0-65.0-1.0","57","1","2023-11-01 12:53:33","a725c3012b74bf33a1020a98cb69c237","146.112.238.193","Mozilla/5.0 (Windows NT 10.0; Win64; x64) AppleWebKit/537.36 (KHTML, like Gecko) Chrome/118.0.0.0 Safari/537.36","WebKit","Chrome","118.0.0.0","Windows","10.0","null","en-US,en;q=0.9,es;q=0.8","true","344","tones/440hz_short.mp3","k","","","empty_block","","67","","","","0","6",""
"","","","","","html-keyboard-response","66","206164","0.0-67.0","57","1","2023-11-01 12:53:33","a725c3012b74bf33a1020a98cb69c237","146.112.238.193","Mozilla/5.0 (Windows NT 10.0; Win64; x64) AppleWebKit/537.36 (KHTML, like Gecko) Chrome/118.0.0.0 Safari/537.36","WebKit","Chrome","118.0.0.0","Windows","10.0","null","en-US,en;q=0.9,es;q=0.8","true","null","<div style=""font-size:100px;"">X</div>","null","","","fixation","","","","","","","",""
"","","","","","audio-keyboard-response","67","206782","0.0-68.0","57","1","2023-11-01 12:53:33","a725c3012b74bf33a1020a98cb69c237","146.112.238.193","Mozilla/5.0 (Windows NT 10.0; Win64; x64) AppleWebKit/537.36 (KHTML, like Gecko) Chrome/118.0.0.0 Safari/537.36","WebKit","Chrome","118.0.0.0","Windows","10.0","null","en-US,en;q=0.9,es;q=0.8","true","608","tones/440hz_short.mp3","a","","","tone_number_task","992.5","66","tones/440hz_short.mp3","1142.5","100","0","7",""
"","","","","","html-keyboard-response","68","207167","0.0-69.0-0.0","57","1","2023-11-01 12:53:33","a725c3012b74bf33a1020a98cb69c237","146.112.238.193","Mozilla/5.0 (Windows NT 10.0; Win64; x64) AppleWebKit/537.36 (KHTML, like Gecko) Chrome/118.0.0.0 Safari/537.36","WebKit","Chrome","118.0.0.0","Windows","10.0","null","en-US,en;q=0.9,es;q=0.8","true","null","","null","","","delay_block","","","","","","0","7",""
"","","","","","html-keyboard-response","69","207319","0.0-69.0-1.0","57","1","2023-11-01 12:53:33","a725c3012b74bf33a1020a98cb69c237","146.112.238.193","Mozilla/5.0 (Windows NT 10.0; Win64; x64) AppleWebKit/537.36 (KHTML, like Gecko) Chrome/118.0.0.0 Safari/537.36","WebKit","Chrome","118.0.0.0","Windows","10.0","null","en-US,en;q=0.9,es;q=0.8","true","null","<p id=""stimulus"" style=""font-size:100px;"">66</p>","null","","","tone_number_task_remaining_before_delay","","66","","534.5","100","0","7",""
"","","","","","html-keyboard-response","70","207917","0.0-72.0-0.0","57","1","2023-11-01 12:53:33","a725c3012b74bf33a1020a98cb69c237","146.112.238.193","Mozilla/5.0 (Windows NT 10.0; Win64; x64) AppleWebKit/537.36 (KHTML, like Gecko) Chrome/118.0.0.0 Safari/537.36","WebKit","Chrome","118.0.0.0","Windows","10.0","null","en-US,en;q=0.9,es;q=0.8","true","597","<p id=""stimulus"" style=""font-size:100px;"">66</p>","k","","","empty_block","","66","","","","0","7",""
"","","","","","html-keyboard-response","71","210627","0.0-73.0","57","1","2023-11-01 12:53:33","a725c3012b74bf33a1020a98cb69c237","146.112.238.193","Mozilla/5.0 (Windows NT 10.0; Win64; x64) AppleWebKit/537.36 (KHTML, like Gecko) Chrome/118.0.0.0 Safari/537.36","WebKit","Chrome","118.0.0.0","Windows","10.0","null","en-US,en;q=0.9,es;q=0.8","true","null","<div style=""font-size:100px;"">X</div>","null","","","fixation","","","","","","","",""
"","","","","","audio-keyboard-response","72","211334","0.0-74.0","57","1","2023-11-01 12:53:33","a725c3012b74bf33a1020a98cb69c237","146.112.238.193","Mozilla/5.0 (Windows NT 10.0; Win64; x64) AppleWebKit/537.36 (KHTML, like Gecko) Chrome/118.0.0.0 Safari/537.36","WebKit","Chrome","118.0.0.0","Windows","10.0","null","en-US,en;q=0.9,es;q=0.8","true","709","tones/880hz_short.mp3","s","","","tone_number_task","1025","65","tones/880hz_short.mp3","1175","100","0","8",""
"","","","","","html-keyboard-response","73","211652","0.0-75.0-0.0","57","1","2023-11-01 12:53:33","a725c3012b74bf33a1020a98cb69c237","146.112.238.193","Mozilla/5.0 (Windows NT 10.0; Win64; x64) AppleWebKit/537.36 (KHTML, like Gecko) Chrome/118.0.0.0 Safari/537.36","WebKit","Chrome","118.0.0.0","Windows","10.0","null","en-US,en;q=0.9,es;q=0.8","true","null","","null","","","delay_block","","","","","","0","8",""
"","","","","","html-keyboard-response","74","211804","0.0-75.0-1.0","57","1","2023-11-01 12:53:33","a725c3012b74bf33a1020a98cb69c237","146.112.238.193","Mozilla/5.0 (Windows NT 10.0; Win64; x64) AppleWebKit/537.36 (KHTML, like Gecko) Chrome/118.0.0.0 Safari/537.36","WebKit","Chrome","118.0.0.0","Windows","10.0","null","en-US,en;q=0.9,es;q=0.8","true","null","<p id=""stimulus"" style=""font-size:100px;"">65</p>","null","","","tone_number_task_remaining_before_delay","","65","","466","100","0","8",""
"","","","","","html-keyboard-response","75","212325","0.0-78.0-0.0","57","1","2023-11-01 12:53:33","a725c3012b74bf33a1020a98cb69c237","146.112.238.193","Mozilla/5.0 (Windows NT 10.0; Win64; x64) AppleWebKit/537.36 (KHTML, like Gecko) Chrome/118.0.0.0 Safari/537.36","WebKit","Chrome","118.0.0.0","Windows","10.0","null","en-US,en;q=0.9,es;q=0.8","true","520","<p id=""stimulus"" style=""font-size:100px;"">65</p>","k","","","empty_block","","65","","","","0","8",""
"","","","","","html-keyboard-response","76","215042","0.0-79.0","57","1","2023-11-01 12:53:33","a725c3012b74bf33a1020a98cb69c237","146.112.238.193","Mozilla/5.0 (Windows NT 10.0; Win64; x64) AppleWebKit/537.36 (KHTML, like Gecko) Chrome/118.0.0.0 Safari/537.36","WebKit","Chrome","118.0.0.0","Windows","10.0","null","en-US,en;q=0.9,es;q=0.8","true","null","<div style=""font-size:100px;"">X</div>","null","","","fixation","","","","","","","",""
"","","","","","audio-keyboard-response","77","216089","0.0-80.0","57","1","2023-11-01 12:53:33","a725c3012b74bf33a1020a98cb69c237","146.112.238.193","Mozilla/5.0 (Windows NT 10.0; Win64; x64) AppleWebKit/537.36 (KHTML, like Gecko) Chrome/118.0.0.0 Safari/537.36","WebKit","Chrome","118.0.0.0","Windows","10.0","null","en-US,en;q=0.9,es;q=0.8","true","1040","tones/440hz_short.mp3","a","","","tone_number_task","992.5","52","tones/440hz_short.mp3","1142.5","100","0","9",""
"","","","","","html-keyboard-response","78","216194","0.0-82.0-0.0","57","1","2023-11-01 12:53:33","a725c3012b74bf33a1020a98cb69c237","146.112.238.193","Mozilla/5.0 (Windows NT 10.0; Win64; x64) AppleWebKit/537.36 (KHTML, like Gecko) Chrome/118.0.0.0 Safari/537.36","WebKit","Chrome","118.0.0.0","Windows","10.0","null","en-US,en;q=0.9,es;q=0.8","true","null","<p id=""stimulus"" style=""font-size:100px;"">52</p>","null","","","tone_number_task_remaining_after_delay","","52","","","100","0","9",""
"","","","","","html-keyboard-response","79","216734","0.0-84.0-0.0","57","1","2023-11-01 12:53:33","a725c3012b74bf33a1020a98cb69c237","146.112.238.193","Mozilla/5.0 (Windows NT 10.0; Win64; x64) AppleWebKit/537.36 (KHTML, like Gecko) Chrome/118.0.0.0 Safari/537.36","WebKit","Chrome","118.0.0.0","Windows","10.0","null","en-US,en;q=0.9,es;q=0.8","true","538","<p id=""stimulus"" style=""font-size:100px;"">52</p>","k","","","empty_block","","52","","","","0","9",""
"","","","","","html-keyboard-response","80","219445","0.0-85.0","57","1","2023-11-01 12:53:33","a725c3012b74bf33a1020a98cb69c237","146.112.238.193","Mozilla/5.0 (Windows NT 10.0; Win64; x64) AppleWebKit/537.36 (KHTML, like Gecko) Chrome/118.0.0.0 Safari/537.36","WebKit","Chrome","118.0.0.0","Windows","10.0","null","en-US,en;q=0.9,es;q=0.8","true","null","<div style=""font-size:100px;"">X</div>","null","","","fixation","","","","","","","",""
"","","","","","audio-keyboard-response","81","220011","0.0-86.0","57","1","2023-11-01 12:53:33","a725c3012b74bf33a1020a98cb69c237","146.112.238.193","Mozilla/5.0 (Windows NT 10.0; Win64; x64) AppleWebKit/537.36 (KHTML, like Gecko) Chrome/118.0.0.0 Safari/537.36","WebKit","Chrome","118.0.0.0","Windows","10.0","null","en-US,en;q=0.9,es;q=0.8","true","560","tones/440hz_short.mp3","a","","","tone_number_task","992.5","34","tones/440hz_short.mp3","1142.5","100","0","10",""
"","","","","","html-keyboard-response","82","220445","0.0-87.0-0.0","57","1","2023-11-01 12:53:33","a725c3012b74bf33a1020a98cb69c237","146.112.238.193","Mozilla/5.0 (Windows NT 10.0; Win64; x64) AppleWebKit/537.36 (KHTML, like Gecko) Chrome/118.0.0.0 Safari/537.36","WebKit","Chrome","118.0.0.0","Windows","10.0","null","en-US,en;q=0.9,es;q=0.8","true","null","","null","","","delay_block","","","","","","0","10",""
"","","","","","html-keyboard-response","83","220598","0.0-87.0-1.0","57","1","2023-11-01 12:53:33","a725c3012b74bf33a1020a98cb69c237","146.112.238.193","Mozilla/5.0 (Windows NT 10.0; Win64; x64) AppleWebKit/537.36 (KHTML, like Gecko) Chrome/118.0.0.0 Safari/537.36","WebKit","Chrome","118.0.0.0","Windows","10.0","null","en-US,en;q=0.9,es;q=0.8","true","null","<p id=""stimulus"" style=""font-size:100px;"">34</p>","null","","","tone_number_task_remaining_before_delay","","34","","582.5","100","0","10",""
"","","","","","html-keyboard-response","84","220952","0.0-90.0-0.0","57","1","2023-11-01 12:53:33","a725c3012b74bf33a1020a98cb69c237","146.112.238.193","Mozilla/5.0 (Windows NT 10.0; Win64; x64) AppleWebKit/537.36 (KHTML, like Gecko) Chrome/118.0.0.0 Safari/537.36","WebKit","Chrome","118.0.0.0","Windows","10.0","null","en-US,en;q=0.9,es;q=0.8","true","353","<p id=""stimulus"" style=""font-size:100px;"">34</p>","j","","","empty_block","","34","","","","0","10",""
"","","","","","html-keyboard-response","85","223663","0.0-91.0","57","1","2023-11-01 12:53:33","a725c3012b74bf33a1020a98cb69c237","146.112.238.193","Mozilla/5.0 (Windows NT 10.0; Win64; x64) AppleWebKit/537.36 (KHTML, like Gecko) Chrome/118.0.0.0 Safari/537.36","WebKit","Chrome","118.0.0.0","Windows","10.0","null","en-US,en;q=0.9,es;q=0.8","true","null","<div style=""font-size:100px;"">X</div>","null","","","fixation","","","","","","","",""
"","","","","","audio-keyboard-response","86","223816","0.0-92.0","57","1","2023-11-01 12:53:33","a725c3012b74bf33a1020a98cb69c237","146.112.238.193","Mozilla/5.0 (Windows NT 10.0; Win64; x64) AppleWebKit/537.36 (KHTML, like Gecko) Chrome/118.0.0.0 Safari/537.36","WebKit","Chrome","118.0.0.0","Windows","10.0","null","en-US,en;q=0.9,es;q=0.8","true","null","tones/440hz_short.mp3","null","","","tone_number_task","0","64","tones/440hz_short.mp3","150","100","0","11",""
"","","","","","html-keyboard-response","87","224593","0.0-95.0-0.0","57","1","2023-11-01 12:53:33","a725c3012b74bf33a1020a98cb69c237","146.112.238.193","Mozilla/5.0 (Windows NT 10.0; Win64; x64) AppleWebKit/537.36 (KHTML, like Gecko) Chrome/118.0.0.0 Safari/537.36","WebKit","Chrome","118.0.0.0","Windows","10.0","null","en-US,en;q=0.9,es;q=0.8","true","775","tones/440hz_short.mp3","a","","","empty_block","","64","","","","0","11",""
"","","","","","html-keyboard-response","88","225177","0.0-95.0-1.0","57","1","2023-11-01 12:53:33","a725c3012b74bf33a1020a98cb69c237","146.112.238.193","Mozilla/5.0 (Windows NT 10.0; Win64; x64) AppleWebKit/537.36 (KHTML, like Gecko) Chrome/118.0.0.0 Safari/537.36","WebKit","Chrome","118.0.0.0","Windows","10.0","null","en-US,en;q=0.9,es;q=0.8","true","582","tones/440hz_short.mp3","k","","","empty_block","","64","","","","0","11",""
"","","","","","html-keyboard-response","89","227889","0.0-97.0","57","1","2023-11-01 12:53:33","a725c3012b74bf33a1020a98cb69c237","146.112.238.193","Mozilla/5.0 (Windows NT 10.0; Win64; x64) AppleWebKit/537.36 (KHTML, like Gecko) Chrome/118.0.0.0 Safari/537.36","WebKit","Chrome","118.0.0.0","Windows","10.0","null","en-US,en;q=0.9,es;q=0.8","true","null","<div style=""font-size:100px;"">X</div>","null","","","fixation","","","","","","","",""
"","","","","","audio-keyboard-response","90","228042","0.0-98.0","57","1","2023-11-01 12:53:33","a725c3012b74bf33a1020a98cb69c237","146.112.238.193","Mozilla/5.0 (Windows NT 10.0; Win64; x64) AppleWebKit/537.36 (KHTML, like Gecko) Chrome/118.0.0.0 Safari/537.36","WebKit","Chrome","118.0.0.0","Windows","10.0","null","en-US,en;q=0.9,es;q=0.8","true","null","tones/880hz_short.mp3","null","","","tone_number_task","0","44","tones/880hz_short.mp3","150","100","0","12",""
"","","","","","html-keyboard-response","91","228642","0.0-101.0-0.0","57","1","2023-11-01 12:53:33","a725c3012b74bf33a1020a98cb69c237","146.112.238.193","Mozilla/5.0 (Windows NT 10.0; Win64; x64) AppleWebKit/537.36 (KHTML, like Gecko) Chrome/118.0.0.0 Safari/537.36","WebKit","Chrome","118.0.0.0","Windows","10.0","null","en-US,en;q=0.9,es;q=0.8","true","599","tones/880hz_short.mp3","s","","","empty_block","","44","","","","0","12",""
"","","","","","html-keyboard-response","92","229241","0.0-101.0-1.0","57","1","2023-11-01 12:53:33","a725c3012b74bf33a1020a98cb69c237","146.112.238.193","Mozilla/5.0 (Windows NT 10.0; Win64; x64) AppleWebKit/537.36 (KHTML, like Gecko) Chrome/118.0.0.0 Safari/537.36","WebKit","Chrome","118.0.0.0","Windows","10.0","null","en-US,en;q=0.9,es;q=0.8","true","597","tones/880hz_short.mp3","j","","","empty_block","","44","","","","0","12",""
"","","","","","html-keyboard-response","93","231953","0.0-103.0","57","1","2023-11-01 12:53:33","a725c3012b74bf33a1020a98cb69c237","146.112.238.193","Mozilla/5.0 (Windows NT 10.0; Win64; x64) AppleWebKit/537.36 (KHTML, like Gecko) Chrome/118.0.0.0 Safari/537.36","WebKit","Chrome","118.0.0.0","Windows","10.0","null","en-US,en;q=0.9,es;q=0.8","true","null","<div style=""font-size:100px;"">X</div>","null","","","fixation","","","","","","","",""
"","","","","","audio-keyboard-response","94","232545","0.0-104.0","57","1","2023-11-01 12:53:33","a725c3012b74bf33a1020a98cb69c237","146.112.238.193","Mozilla/5.0 (Windows NT 10.0; Win64; x64) AppleWebKit/537.36 (KHTML, like Gecko) Chrome/118.0.0.0 Safari/537.36","WebKit","Chrome","118.0.0.0","Windows","10.0","null","en-US,en;q=0.9,es;q=0.8","true","589","tones/440hz_short.mp3","a","","","tone_number_task","992.5","68","tones/440hz_short.mp3","1142.5","100","0","13",""
"","","","","","html-keyboard-response","95","232951","0.0-105.0-0.0","57","1","2023-11-01 12:53:33","a725c3012b74bf33a1020a98cb69c237","146.112.238.193","Mozilla/5.0 (Windows NT 10.0; Win64; x64) AppleWebKit/537.36 (KHTML, like Gecko) Chrome/118.0.0.0 Safari/537.36","WebKit","Chrome","118.0.0.0","Windows","10.0","null","en-US,en;q=0.9,es;q=0.8","true","null","","null","","","delay_block","","","","","","0","13",""
"","","","","","html-keyboard-response","96","233104","0.0-105.0-1.0","57","1","2023-11-01 12:53:33","a725c3012b74bf33a1020a98cb69c237","146.112.238.193","Mozilla/5.0 (Windows NT 10.0; Win64; x64) AppleWebKit/537.36 (KHTML, like Gecko) Chrome/118.0.0.0 Safari/537.36","WebKit","Chrome","118.0.0.0","Windows","10.0","null","en-US,en;q=0.9,es;q=0.8","true","null","<p id=""stimulus"" style=""font-size:100px;"">68</p>","null","","","tone_number_task_remaining_before_delay","","68","","553.5","100","0","13",""
"","","","","","html-keyboard-response","97","233412","0.0-108.0-0.0","57","1","2023-11-01 12:53:33","a725c3012b74bf33a1020a98cb69c237","146.112.238.193","Mozilla/5.0 (Windows NT 10.0; Win64; x64) AppleWebKit/537.36 (KHTML, like Gecko) Chrome/118.0.0.0 Safari/537.36","WebKit","Chrome","118.0.0.0","Windows","10.0","null","en-US,en;q=0.9,es;q=0.8","true","307","<p id=""stimulus"" style=""font-size:100px;"">68</p>","k","","","empty_block","","68","","","","0","13",""
"","","","","","html-keyboard-response","98","236124","0.0-109.0","57","1","2023-11-01 12:53:33","a725c3012b74bf33a1020a98cb69c237","146.112.238.193","Mozilla/5.0 (Windows NT 10.0; Win64; x64) AppleWebKit/537.36 (KHTML, like Gecko) Chrome/118.0.0.0 Safari/537.36","WebKit","Chrome","118.0.0.0","Windows","10.0","null","en-US,en;q=0.9,es;q=0.8","true","null","<div style=""font-size:100px;"">X</div>","null","","","fixation","","","","","","","",""
"","","","","","audio-keyboard-response","99","236800","0.0-110.0","57","1","2023-11-01 12:53:33","a725c3012b74bf33a1020a98cb69c237","146.112.238.193","Mozilla/5.0 (Windows NT 10.0; Win64; x64) AppleWebKit/537.36 (KHTML, like Gecko) Chrome/118.0.0.0 Safari/537.36","WebKit","Chrome","118.0.0.0","Windows","10.0","null","en-US,en;q=0.9,es;q=0.8","true","669","tones/440hz_short.mp3","a","","","tone_number_task","992.5","68","tones/440hz_short.mp3","1142.5","100","0","14",""
"","","","","","html-keyboard-response","100","237126","0.0-111.0-0.0","57","1","2023-11-01 12:53:33","a725c3012b74bf33a1020a98cb69c237","146.112.238.193","Mozilla/5.0 (Windows NT 10.0; Win64; x64) AppleWebKit/537.36 (KHTML, like Gecko) Chrome/118.0.0.0 Safari/537.36","WebKit","Chrome","118.0.0.0","Windows","10.0","null","en-US,en;q=0.9,es;q=0.8","true","null","","null","","","delay_block","","","","","","0","14",""
"","","","","","html-keyboard-response","101","237279","0.0-111.0-1.0","57","1","2023-11-01 12:53:33","a725c3012b74bf33a1020a98cb69c237","146.112.238.193","Mozilla/5.0 (Windows NT 10.0; Win64; x64) AppleWebKit/537.36 (KHTML, like Gecko) Chrome/118.0.0.0 Safari/537.36","WebKit","Chrome","118.0.0.0","Windows","10.0","null","en-US,en;q=0.9,es;q=0.8","true","null","<p id=""stimulus"" style=""font-size:100px;"">68</p>","null","","","tone_number_task_remaining_before_delay","","68","","473.5","100","0","14",""
"","","","","","html-keyboard-response","102","237593","0.0-114.0-0.0","57","1","2023-11-01 12:53:33","a725c3012b74bf33a1020a98cb69c237","146.112.238.193","Mozilla/5.0 (Windows NT 10.0; Win64; x64) AppleWebKit/537.36 (KHTML, like Gecko) Chrome/118.0.0.0 Safari/537.36","WebKit","Chrome","118.0.0.0","Windows","10.0","null","en-US,en;q=0.9,es;q=0.8","true","312","<p id=""stimulus"" style=""font-size:100px;"">68</p>","k","","","empty_block","","68","","","","0","14",""
"","","","","","html-keyboard-response","103","240305","0.0-115.0","57","1","2023-11-01 12:53:33","a725c3012b74bf33a1020a98cb69c237","146.112.238.193","Mozilla/5.0 (Windows NT 10.0; Win64; x64) AppleWebKit/537.36 (KHTML, like Gecko) Chrome/118.0.0.0 Safari/537.36","WebKit","Chrome","118.0.0.0","Windows","10.0","null","en-US,en;q=0.9,es;q=0.8","true","null","<div style=""font-size:100px;"">X</div>","null","","","fixation","","","","","","","",""
"","","","","","audio-keyboard-response","104","240459","0.0-116.0","57","1","2023-11-01 12:53:33","a725c3012b74bf33a1020a98cb69c237","146.112.238.193","Mozilla/5.0 (Windows NT 10.0; Win64; x64) AppleWebKit/537.36 (KHTML, like Gecko) Chrome/118.0.0.0 Safari/537.36","WebKit","Chrome","118.0.0.0","Windows","10.0","null","en-US,en;q=0.9,es;q=0.8","true","null","tones/880hz_short.mp3","null","","","tone_number_task","0","55","tones/880hz_short.mp3","150","100","0","15",""
"","","","","","html-keyboard-response","105","240952","0.0-119.0-0.0","57","1","2023-11-01 12:53:33","a725c3012b74bf33a1020a98cb69c237","146.112.238.193","Mozilla/5.0 (Windows NT 10.0; Win64; x64) AppleWebKit/537.36 (KHTML, like Gecko) Chrome/118.0.0.0 Safari/537.36","WebKit","Chrome","118.0.0.0","Windows","10.0","null","en-US,en;q=0.9,es;q=0.8","true","492","tones/880hz_short.mp3","s","","","empty_block","","55","","","","0","15",""
"","","","","","html-keyboard-response","106","241327","0.0-119.0-1.0","57","1","2023-11-01 12:53:33","a725c3012b74bf33a1020a98cb69c237","146.112.238.193","Mozilla/5.0 (Windows NT 10.0; Win64; x64) AppleWebKit/537.36 (KHTML, like Gecko) Chrome/118.0.0.0 Safari/537.36","WebKit","Chrome","118.0.0.0","Windows","10.0","null","en-US,en;q=0.9,es;q=0.8","true","372","tones/880hz_short.mp3","j","","","empty_block","","55","","","","0","15",""
"","","","","","html-keyboard-response","107","244037","0.0-121.0","57","1","2023-11-01 12:53:33","a725c3012b74bf33a1020a98cb69c237","146.112.238.193","Mozilla/5.0 (Windows NT 10.0; Win64; x64) AppleWebKit/537.36 (KHTML, like Gecko) Chrome/118.0.0.0 Safari/537.36","WebKit","Chrome","118.0.0.0","Windows","10.0","null","en-US,en;q=0.9,es;q=0.8","true","null","<div style=""font-size:100px;"">X</div>","null","","","fixation","","","","","","","",""
"","","","","","audio-keyboard-response","108","245117","0.0-122.0","57","1","2023-11-01 12:53:33","a725c3012b74bf33a1020a98cb69c237","146.112.238.193","Mozilla/5.0 (Windows NT 10.0; Win64; x64) AppleWebKit/537.36 (KHTML, like Gecko) Chrome/118.0.0.0 Safari/537.36","WebKit","Chrome","118.0.0.0","Windows","10.0","null","en-US,en;q=0.9,es;q=0.8","true","1080","tones/440hz_short.mp3","a","","","tone_number_task","1025","41","tones/440hz_short.mp3","1175","100","0","16",""
"","","","","","html-keyboard-response","109","245216","0.0-124.0-0.0","57","1","2023-11-01 12:53:33","a725c3012b74bf33a1020a98cb69c237","146.112.238.193","Mozilla/5.0 (Windows NT 10.0; Win64; x64) AppleWebKit/537.36 (KHTML, like Gecko) Chrome/118.0.0.0 Safari/537.36","WebKit","Chrome","118.0.0.0","Windows","10.0","null","en-US,en;q=0.9,es;q=0.8","true","null","<p id=""stimulus"" style=""font-size:100px;"">41</p>","null","","","tone_number_task_remaining_after_delay","","41","","","100","0","16",""
"","","","","","html-keyboard-response","110","245650","0.0-126.0-0.0","57","1","2023-11-01 12:53:33","a725c3012b74bf33a1020a98cb69c237","146.112.238.193","Mozilla/5.0 (Windows NT 10.0; Win64; x64) AppleWebKit/537.36 (KHTML, like Gecko) Chrome/118.0.0.0 Safari/537.36","WebKit","Chrome","118.0.0.0","Windows","10.0","null","en-US,en;q=0.9,es;q=0.8","true","432","<p id=""stimulus"" style=""font-size:100px;"">41</p>","j","","","empty_block","","41","","","","0","16",""
"","","","","","html-keyboard-response","111","248362","0.0-127.0","57","1","2023-11-01 12:53:33","a725c3012b74bf33a1020a98cb69c237","146.112.238.193","Mozilla/5.0 (Windows NT 10.0; Win64; x64) AppleWebKit/537.36 (KHTML, like Gecko) Chrome/118.0.0.0 Safari/537.36","WebKit","Chrome","118.0.0.0","Windows","10.0","null","en-US,en;q=0.9,es;q=0.8","true","null","<div style=""font-size:100px;"">X</div>","null","","","fixation","","","","","","","",""
"","","","","","audio-keyboard-response","112","249478","0.0-128.0","57","1","2023-11-01 12:53:33","a725c3012b74bf33a1020a98cb69c237","146.112.238.193","Mozilla/5.0 (Windows NT 10.0; Win64; x64) AppleWebKit/537.36 (KHTML, like Gecko) Chrome/118.0.0.0 Safari/537.36","WebKit","Chrome","118.0.0.0","Windows","10.0","null","en-US,en;q=0.9,es;q=0.8","true","1109","tones/880hz_short.mp3","s","","","tone_number_task","1025","26","tones/880hz_short.mp3","1175","100","0","17",""
"","","","","","html-keyboard-response","113","249547","0.0-130.0-0.0","57","1","2023-11-01 12:53:33","a725c3012b74bf33a1020a98cb69c237","146.112.238.193","Mozilla/5.0 (Windows NT 10.0; Win64; x64) AppleWebKit/537.36 (KHTML, like Gecko) Chrome/118.0.0.0 Safari/537.36","WebKit","Chrome","118.0.0.0","Windows","10.0","null","en-US,en;q=0.9,es;q=0.8","true","null","<p id=""stimulus"" style=""font-size:100px;"">26</p>","null","","","tone_number_task_remaining_after_delay","","26","","","100","0","17",""
"","","","","","html-keyboard-response","114","250011","0.0-132.0-0.0","57","1","2023-11-01 12:53:33","a725c3012b74bf33a1020a98cb69c237","146.112.238.193","Mozilla/5.0 (Windows NT 10.0; Win64; x64) AppleWebKit/537.36 (KHTML, like Gecko) Chrome/118.0.0.0 Safari/537.36","WebKit","Chrome","118.0.0.0","Windows","10.0","null","en-US,en;q=0.9,es;q=0.8","true","462","<p id=""stimulus"" style=""font-size:100px;"">26</p>","j","","","empty_block","","26","","","","0","17",""
"","","","","","html-keyboard-response","115","252723","0.0-133.0","57","1","2023-11-01 12:53:33","a725c3012b74bf33a1020a98cb69c237","146.112.238.193","Mozilla/5.0 (Windows NT 10.0; Win64; x64) AppleWebKit/537.36 (KHTML, like Gecko) Chrome/118.0.0.0 Safari/537.36","WebKit","Chrome","118.0.0.0","Windows","10.0","null","en-US,en;q=0.9,es;q=0.8","true","null","<div style=""font-size:100px;"">X</div>","null","","","fixation","","","","","","","",""
"","","","","","audio-keyboard-response","116","253711","0.0-134.0","57","1","2023-11-01 12:53:33","a725c3012b74bf33a1020a98cb69c237","146.112.238.193","Mozilla/5.0 (Windows NT 10.0; Win64; x64) AppleWebKit/537.36 (KHTML, like Gecko) Chrome/118.0.0.0 Safari/537.36","WebKit","Chrome","118.0.0.0","Windows","10.0","null","en-US,en;q=0.9,es;q=0.8","true","989","tones/440hz_short.mp3","a","","","tone_number_task","992.5","55","tones/440hz_short.mp3","1142.5","100","0","18",""
"","","","","","html-keyboard-response","117","253717","0.0-135.0-0.0","57","1","2023-11-01 12:53:33","a725c3012b74bf33a1020a98cb69c237","146.112.238.193","Mozilla/5.0 (Windows NT 10.0; Win64; x64) AppleWebKit/537.36 (KHTML, like Gecko) Chrome/118.0.0.0 Safari/537.36","WebKit","Chrome","118.0.0.0","Windows","10.0","null","en-US,en;q=0.9,es;q=0.8","true","null","","null","","","delay_block","","","","","","0","18",""
"","","","","","html-keyboard-response","118","253869","0.0-135.0-1.0","57","1","2023-11-01 12:53:33","a725c3012b74bf33a1020a98cb69c237","146.112.238.193","Mozilla/5.0 (Windows NT 10.0; Win64; x64) AppleWebKit/537.36 (KHTML, like Gecko) Chrome/118.0.0.0 Safari/537.36","WebKit","Chrome","118.0.0.0","Windows","10.0","null","en-US,en;q=0.9,es;q=0.8","true","null","<p id=""stimulus"" style=""font-size:100px;"">55</p>","null","","","tone_number_task_remaining_before_delay","","55","","153.5","100","0","18",""
"","","","","","html-keyboard-response","119","254269","0.0-138.0-0.0","57","1","2023-11-01 12:53:33","a725c3012b74bf33a1020a98cb69c237","146.112.238.193","Mozilla/5.0 (Windows NT 10.0; Win64; x64) AppleWebKit/537.36 (KHTML, like Gecko) Chrome/118.0.0.0 Safari/537.36","WebKit","Chrome","118.0.0.0","Windows","10.0","null","en-US,en;q=0.9,es;q=0.8","true","399","<p id=""stimulus"" style=""font-size:100px;"">55</p>","k","","","empty_block","","55","","","","0","18",""
"","","","","","html-keyboard-response","120","256980","0.0-139.0","57","1","2023-11-01 12:53:33","a725c3012b74bf33a1020a98cb69c237","146.112.238.193","Mozilla/5.0 (Windows NT 10.0; Win64; x64) AppleWebKit/537.36 (KHTML, like Gecko) Chrome/118.0.0.0 Safari/537.36","WebKit","Chrome","118.0.0.0","Windows","10.0","null","en-US,en;q=0.9,es;q=0.8","true","null","<div style=""font-size:100px;"">X</div>","null","","","fixation","","","","","","","",""
"","","","","","audio-keyboard-response","121","257133","0.0-140.0","57","1","2023-11-01 12:53:33","a725c3012b74bf33a1020a98cb69c237","146.112.238.193","Mozilla/5.0 (Windows NT 10.0; Win64; x64) AppleWebKit/537.36 (KHTML, like Gecko) Chrome/118.0.0.0 Safari/537.36","WebKit","Chrome","118.0.0.0","Windows","10.0","null","en-US,en;q=0.9,es;q=0.8","true","null","tones/880hz_short.mp3","null","","","tone_number_task","0","28","tones/880hz_short.mp3","150","100","0","19",""
"","","","","","html-keyboard-response","122","258336","0.0-143.0-0.0","57","1","2023-11-01 12:53:33","a725c3012b74bf33a1020a98cb69c237","146.112.238.193","Mozilla/5.0 (Windows NT 10.0; Win64; x64) AppleWebKit/537.36 (KHTML, like Gecko) Chrome/118.0.0.0 Safari/537.36","WebKit","Chrome","118.0.0.0","Windows","10.0","null","en-US,en;q=0.9,es;q=0.8","true","null","tones/880hz_short.mp3","null","","","empty_block","","28","","","","0","19",""
"","","","","","html-keyboard-response","123","259124","0.0-143.0-1.0","57","1","2023-11-01 12:53:33","a725c3012b74bf33a1020a98cb69c237","146.112.238.193","Mozilla/5.0 (Windows NT 10.0; Win64; x64) AppleWebKit/537.36 (KHTML, like Gecko) Chrome/118.0.0.0 Safari/537.36","WebKit","Chrome","118.0.0.0","Windows","10.0","null","en-US,en;q=0.9,es;q=0.8","true","786","tones/880hz_short.mp3","s","","","empty_block","","28","","","","0","19",""
"","","","","","html-keyboard-response","124","261836","0.0-145.0","57","1","2023-11-01 12:53:33","a725c3012b74bf33a1020a98cb69c237","146.112.238.193","Mozilla/5.0 (Windows NT 10.0; Win64; x64) AppleWebKit/537.36 (KHTML, like Gecko) Chrome/118.0.0.0 Safari/537.36","WebKit","Chrome","118.0.0.0","Windows","10.0","null","en-US,en;q=0.9,es;q=0.8","true","null","<div style=""font-size:100px;"">X</div>","null","","","fixation","","","","","","","",""
"","","","","","audio-keyboard-response","125","262091","0.0-146.0","57","1","2023-11-01 12:53:33","a725c3012b74bf33a1020a98cb69c237","146.112.238.193","Mozilla/5.0 (Windows NT 10.0; Win64; x64) AppleWebKit/537.36 (KHTML, like Gecko) Chrome/118.0.0.0 Safari/537.36","WebKit","Chrome","118.0.0.0","Windows","10.0","null","en-US,en;q=0.9,es;q=0.8","true","null","tones/880hz_short.mp3","null","","","tone_number_task","102.5","54","tones/880hz_short.mp3","252.5","100","0","20",""
"","","","","","html-keyboard-response","126","262675","0.0-149.0-0.0","57","1","2023-11-01 12:53:33","a725c3012b74bf33a1020a98cb69c237","146.112.238.193","Mozilla/5.0 (Windows NT 10.0; Win64; x64) AppleWebKit/537.36 (KHTML, like Gecko) Chrome/118.0.0.0 Safari/537.36","WebKit","Chrome","118.0.0.0","Windows","10.0","null","en-US,en;q=0.9,es;q=0.8","true","583","tones/880hz_short.mp3","s","","","empty_block","","54","","","","0","20",""
"","","","","","html-keyboard-response","127","263642","0.0-149.0-1.0","57","1","2023-11-01 12:53:33","a725c3012b74bf33a1020a98cb69c237","146.112.238.193","Mozilla/5.0 (Windows NT 10.0; Win64; x64) AppleWebKit/537.36 (KHTML, like Gecko) Chrome/118.0.0.0 Safari/537.36","WebKit","Chrome","118.0.0.0","Windows","10.0","null","en-US,en;q=0.9,es;q=0.8","true","965","tones/880hz_short.mp3","k","","","empty_block","","54","","","","0","20",""
"","","","","","html-keyboard-response","128","266353","0.0-151.0","57","1","2023-11-01 12:53:33","a725c3012b74bf33a1020a98cb69c237","146.112.238.193","Mozilla/5.0 (Windows NT 10.0; Win64; x64) AppleWebKit/537.36 (KHTML, like Gecko) Chrome/118.0.0.0 Safari/537.36","WebKit","Chrome","118.0.0.0","Windows","10.0","null","en-US,en;q=0.9,es;q=0.8","true","null","<div style=""font-size:100px;"">X</div>","null","","","fixation","","","","","","","",""
"","","","","","audio-keyboard-response","129","266609","0.0-152.0","57","1","2023-11-01 12:53:33","a725c3012b74bf33a1020a98cb69c237","146.112.238.193","Mozilla/5.0 (Windows NT 10.0; Win64; x64) AppleWebKit/537.36 (KHTML, like Gecko) Chrome/118.0.0.0 Safari/537.36","WebKit","Chrome","118.0.0.0","Windows","10.0","null","en-US,en;q=0.9,es;q=0.8","true","null","tones/880hz_short.mp3","null","","","tone_number_task","102.5","27","tones/880hz_short.mp3","252.5","100","0","21",""
"","","","","","html-keyboard-response","130","266925","0.0-155.0-0.0","57","1","2023-11-01 12:53:33","a725c3012b74bf33a1020a98cb69c237","146.112.238.193","Mozilla/5.0 (Windows NT 10.0; Win64; x64) AppleWebKit/537.36 (KHTML, like Gecko) Chrome/118.0.0.0 Safari/537.36","WebKit","Chrome","118.0.0.0","Windows","10.0","null","en-US,en;q=0.9,es;q=0.8","true","311","tones/880hz_short.mp3","s","","","empty_block","","27","","","","0","21",""
"","","","","","html-keyboard-response","131","267216","0.0-155.0-1.0","57","1","2023-11-01 12:53:33","a725c3012b74bf33a1020a98cb69c237","146.112.238.193","Mozilla/5.0 (Windows NT 10.0; Win64; x64) AppleWebKit/537.36 (KHTML, like Gecko) Chrome/118.0.0.0 Safari/537.36","WebKit","Chrome","118.0.0.0","Windows","10.0","null","en-US,en;q=0.9,es;q=0.8","true","288","tones/880hz_short.mp3","j","","","empty_block","","27","","","","0","21",""
"","","","","","html-keyboard-response","132","269927","0.0-157.0","57","1","2023-11-01 12:53:33","a725c3012b74bf33a1020a98cb69c237","146.112.238.193","Mozilla/5.0 (Windows NT 10.0; Win64; x64) AppleWebKit/537.36 (KHTML, like Gecko) Chrome/118.0.0.0 Safari/537.36","WebKit","Chrome","118.0.0.0","Windows","10.0","null","en-US,en;q=0.9,es;q=0.8","true","null","<div style=""font-size:100px;"">X</div>","null","","","fixation","","","","","","","",""
"","","","","","audio-keyboard-response","133","270183","0.0-158.0","57","1","2023-11-01 12:53:33","a725c3012b74bf33a1020a98cb69c237","146.112.238.193","Mozilla/5.0 (Windows NT 10.0; Win64; x64) AppleWebKit/537.36 (KHTML, like Gecko) Chrome/118.0.0.0 Safari/537.36","WebKit","Chrome","118.0.0.0","Windows","10.0","null","en-US,en;q=0.9,es;q=0.8","true","null","tones/440hz_short.mp3","null","","","tone_number_task","102.5","64","tones/440hz_short.mp3","252.5","100","0","22",""
"","","","","","html-keyboard-response","134","270870","0.0-161.0-0.0","57","1","2023-11-01 12:53:33","a725c3012b74bf33a1020a98cb69c237","146.112.238.193","Mozilla/5.0 (Windows NT 10.0; Win64; x64) AppleWebKit/537.36 (KHTML, like Gecko) Chrome/118.0.0.0 Safari/537.36","WebKit","Chrome","118.0.0.0","Windows","10.0","null","en-US,en;q=0.9,es;q=0.8","true","682","tones/440hz_short.mp3","a","","","empty_block","","64","","","","0","22",""
"","","","","","html-keyboard-response","135","271623","0.0-161.0-1.0","57","1","2023-11-01 12:53:33","a725c3012b74bf33a1020a98cb69c237","146.112.238.193","Mozilla/5.0 (Windows NT 10.0; Win64; x64) AppleWebKit/537.36 (KHTML, like Gecko) Chrome/118.0.0.0 Safari/537.36","WebKit","Chrome","118.0.0.0","Windows","10.0","null","en-US,en;q=0.9,es;q=0.8","true","751","tones/440hz_short.mp3","k","","","empty_block","","64","","","","0","22",""
"","","","","","html-keyboard-response","136","274335","0.0-163.0","57","1","2023-11-01 12:53:33","a725c3012b74bf33a1020a98cb69c237","146.112.238.193","Mozilla/5.0 (Windows NT 10.0; Win64; x64) AppleWebKit/537.36 (KHTML, like Gecko) Chrome/118.0.0.0 Safari/537.36","WebKit","Chrome","118.0.0.0","Windows","10.0","null","en-US,en;q=0.9,es;q=0.8","true","null","<div style=""font-size:100px;"">X</div>","null","","","fixation","","","","","","","",""
"","","","","","audio-keyboard-response","137","275108","0.0-164.0","57","1","2023-11-01 12:53:33","a725c3012b74bf33a1020a98cb69c237","146.112.238.193","Mozilla/5.0 (Windows NT 10.0; Win64; x64) AppleWebKit/537.36 (KHTML, like Gecko) Chrome/118.0.0.0 Safari/537.36","WebKit","Chrome","118.0.0.0","Windows","10.0","null","en-US,en;q=0.9,es;q=0.8","true","771","tones/440hz_short.mp3","a","","","tone_number_task","1025","68","tones/440hz_short.mp3","1175","100","0","23",""
"","","","","","html-keyboard-response","138","275367","0.0-165.0-0.0","57","1","2023-11-01 12:53:33","a725c3012b74bf33a1020a98cb69c237","146.112.238.193","Mozilla/5.0 (Windows NT 10.0; Win64; x64) AppleWebKit/537.36 (KHTML, like Gecko) Chrome/118.0.0.0 Safari/537.36","WebKit","Chrome","118.0.0.0","Windows","10.0","null","en-US,en;q=0.9,es;q=0.8","true","null","","null","","","delay_block","","","","","","0","23",""
"","","","","","html-keyboard-response","139","275521","0.0-165.0-1.0","57","1","2023-11-01 12:53:33","a725c3012b74bf33a1020a98cb69c237","146.112.238.193","Mozilla/5.0 (Windows NT 10.0; Win64; x64) AppleWebKit/537.36 (KHTML, like Gecko) Chrome/118.0.0.0 Safari/537.36","WebKit","Chrome","118.0.0.0","Windows","10.0","null","en-US,en;q=0.9,es;q=0.8","true","null","<p id=""stimulus"" style=""font-size:100px;"">68</p>","null","","","tone_number_task_remaining_before_delay","","68","","404","100","0","23",""
"","","","","","html-keyboard-response","140","275824","0.0-168.0-0.0","57","1","2023-11-01 12:53:33","a725c3012b74bf33a1020a98cb69c237","146.112.238.193","Mozilla/5.0 (Windows NT 10.0; Win64; x64) AppleWebKit/537.36 (KHTML, like Gecko) Chrome/118.0.0.0 Safari/537.36","WebKit","Chrome","118.0.0.0","Windows","10.0","null","en-US,en;q=0.9,es;q=0.8","true","299","<p id=""stimulus"" style=""font-size:100px;"">68</p>","k","","","empty_block","","68","","","","0","23",""
"","","","","","html-keyboard-response","141","278535","0.0-169.0","57","1","2023-11-01 12:53:33","a725c3012b74bf33a1020a98cb69c237","146.112.238.193","Mozilla/5.0 (Windows NT 10.0; Win64; x64) AppleWebKit/537.36 (KHTML, like Gecko) Chrome/118.0.0.0 Safari/537.36","WebKit","Chrome","118.0.0.0","Windows","10.0","null","en-US,en;q=0.9,es;q=0.8","true","null","<div style=""font-size:100px;"">X</div>","null","","","fixation","","","","","","","",""
"","","","","","audio-keyboard-response","142","278792","0.0-170.0","57","1","2023-11-01 12:53:33","a725c3012b74bf33a1020a98cb69c237","146.112.238.193","Mozilla/5.0 (Windows NT 10.0; Win64; x64) AppleWebKit/537.36 (KHTML, like Gecko) Chrome/118.0.0.0 Safari/537.36","WebKit","Chrome","118.0.0.0","Windows","10.0","null","en-US,en;q=0.9,es;q=0.8","true","null","tones/880hz_short.mp3","null","","","tone_number_task","102.5","30","tones/880hz_short.mp3","252.5","100","0","24",""
"","","","","","html-keyboard-response","143","279197","0.0-173.0-0.0","57","1","2023-11-01 12:53:33","a725c3012b74bf33a1020a98cb69c237","146.112.238.193","Mozilla/5.0 (Windows NT 10.0; Win64; x64) AppleWebKit/537.36 (KHTML, like Gecko) Chrome/118.0.0.0 Safari/537.36","WebKit","Chrome","118.0.0.0","Windows","10.0","null","en-US,en;q=0.9,es;q=0.8","true","399","tones/880hz_short.mp3","s","","","empty_block","","30","","","","0","24",""
"","","","","","html-keyboard-response","144","279643","0.0-173.0-1.0","57","1","2023-11-01 12:53:33","a725c3012b74bf33a1020a98cb69c237","146.112.238.193","Mozilla/5.0 (Windows NT 10.0; Win64; x64) AppleWebKit/537.36 (KHTML, like Gecko) Chrome/118.0.0.0 Safari/537.36","WebKit","Chrome","118.0.0.0","Windows","10.0","null","en-US,en;q=0.9,es;q=0.8","true","439","tones/880hz_short.mp3","j","","","empty_block","","30","","","","0","24",""
"","","","","","html-keyboard-response","145","282355","0.0-175.0","57","1","2023-11-01 12:53:33","a725c3012b74bf33a1020a98cb69c237","146.112.238.193","Mozilla/5.0 (Windows NT 10.0; Win64; x64) AppleWebKit/537.36 (KHTML, like Gecko) Chrome/118.0.0.0 Safari/537.36","WebKit","Chrome","118.0.0.0","Windows","10.0","null","en-US,en;q=0.9,es;q=0.8","true","null","<div style=""font-size:100px;"">X</div>","null","","","fixation","","","","","","","",""
"","","","","","audio-keyboard-response","146","282951","0.0-176.0","57","1","2023-11-01 12:53:33","a725c3012b74bf33a1020a98cb69c237","146.112.238.193","Mozilla/5.0 (Windows NT 10.0; Win64; x64) AppleWebKit/537.36 (KHTML, like Gecko) Chrome/118.0.0.0 Safari/537.36","WebKit","Chrome","118.0.0.0","Windows","10.0","null","en-US,en;q=0.9,es;q=0.8","true","589","tones/880hz_short.mp3","s","","","tone_number_task","992.5","46","tones/880hz_short.mp3","1142.5","100","0","25",""
"","","","","","html-keyboard-response","147","283358","0.0-177.0-0.0","57","1","2023-11-01 12:53:33","a725c3012b74bf33a1020a98cb69c237","146.112.238.193","Mozilla/5.0 (Windows NT 10.0; Win64; x64) AppleWebKit/537.36 (KHTML, like Gecko) Chrome/118.0.0.0 Safari/537.36","WebKit","Chrome","118.0.0.0","Windows","10.0","null","en-US,en;q=0.9,es;q=0.8","true","null","","null","","","delay_block","","","","","","0","25",""
"","","","","","html-keyboard-response","148","283521","0.0-177.0-1.0","57","1","2023-11-01 12:53:33","a725c3012b74bf33a1020a98cb69c237","146.112.238.193","Mozilla/5.0 (Windows NT 10.0; Win64; x64) AppleWebKit/537.36 (KHTML, like Gecko) Chrome/118.0.0.0 Safari/537.36","WebKit","Chrome","118.0.0.0","Windows","10.0","null","en-US,en;q=0.9,es;q=0.8","true","null","<p id=""stimulus"" style=""font-size:100px;"">46</p>","null","","","tone_number_task_remaining_before_delay","","46","","553.5","100","0","25",""
"","","","","","html-keyboard-response","149","284192","0.0-180.0-0.0","57","1","2023-11-01 12:53:33","a725c3012b74bf33a1020a98cb69c237","146.112.238.193","Mozilla/5.0 (Windows NT 10.0; Win64; x64) AppleWebKit/537.36 (KHTML, like Gecko) Chrome/118.0.0.0 Safari/537.36","WebKit","Chrome","118.0.0.0","Windows","10.0","null","en-US,en;q=0.9,es;q=0.8","true","667","<p id=""stimulus"" style=""font-size:100px;"">46</p>","k","","","empty_block","","46","","","","0","25",""
"","","","","","html-keyboard-response","150","286909","0.0-181.0","57","1","2023-11-01 12:53:33","a725c3012b74bf33a1020a98cb69c237","146.112.238.193","Mozilla/5.0 (Windows NT 10.0; Win64; x64) AppleWebKit/537.36 (KHTML, like Gecko) Chrome/118.0.0.0 Safari/537.36","WebKit","Chrome","118.0.0.0","Windows","10.0","null","en-US,en;q=0.9,es;q=0.8","true","null","<div style=""font-size:100px;"">X</div>","null","","","fixation","","","","","","","",""
"","","","","","audio-keyboard-response","151","287169","0.0-182.0","57","1","2023-11-01 12:53:33","a725c3012b74bf33a1020a98cb69c237","146.112.238.193","Mozilla/5.0 (Windows NT 10.0; Win64; x64) AppleWebKit/537.36 (KHTML, like Gecko) Chrome/118.0.0.0 Safari/537.36","WebKit","Chrome","118.0.0.0","Windows","10.0","null","en-US,en;q=0.9,es;q=0.8","true","null","tones/880hz_short.mp3","null","","","tone_number_task","102.5","22","tones/880hz_short.mp3","252.5","100","0","26",""
"","","","","","html-keyboard-response","152","287507","0.0-185.0-0.0","57","1","2023-11-01 12:53:33","a725c3012b74bf33a1020a98cb69c237","146.112.238.193","Mozilla/5.0 (Windows NT 10.0; Win64; x64) AppleWebKit/537.36 (KHTML, like Gecko) Chrome/118.0.0.0 Safari/537.36","WebKit","Chrome","118.0.0.0","Windows","10.0","null","en-US,en;q=0.9,es;q=0.8","true","333","tones/880hz_short.mp3","s","","","empty_block","","22","","","","0","26",""
"","","","","","html-keyboard-response","153","287797","0.0-185.0-1.0","57","1","2023-11-01 12:53:33","a725c3012b74bf33a1020a98cb69c237","146.112.238.193","Mozilla/5.0 (Windows NT 10.0; Win64; x64) AppleWebKit/537.36 (KHTML, like Gecko) Chrome/118.0.0.0 Safari/537.36","WebKit","Chrome","118.0.0.0","Windows","10.0","null","en-US,en;q=0.9,es;q=0.8","true","287","tones/880hz_short.mp3","j","","","empty_block","","22","","","","0","26",""
"","","","","","html-keyboard-response","154","290518","0.0-187.0","57","1","2023-11-01 12:53:33","a725c3012b74bf33a1020a98cb69c237","146.112.238.193","Mozilla/5.0 (Windows NT 10.0; Win64; x64) AppleWebKit/537.36 (KHTML, like Gecko) Chrome/118.0.0.0 Safari/537.36","WebKit","Chrome","118.0.0.0","Windows","10.0","null","en-US,en;q=0.9,es;q=0.8","true","null","<div style=""font-size:100px;"">X</div>","null","","","fixation","","","","","","","",""
"","","","","","audio-keyboard-response","155","291665","0.0-188.0","57","1","2023-11-01 12:53:33","a725c3012b74bf33a1020a98cb69c237","146.112.238.193","Mozilla/5.0 (Windows NT 10.0; Win64; x64) AppleWebKit/537.36 (KHTML, like Gecko) Chrome/118.0.0.0 Safari/537.36","WebKit","Chrome","118.0.0.0","Windows","10.0","null","en-US,en;q=0.9,es;q=0.8","true","null","tones/440hz_short.mp3","null","","","tone_number_task","992.5","26","tones/440hz_short.mp3","1142.5","100","0","27",""
"","","","","","html-keyboard-response","156","291701","0.0-191.0-0.0","57","1","2023-11-01 12:53:33","a725c3012b74bf33a1020a98cb69c237","146.112.238.193","Mozilla/5.0 (Windows NT 10.0; Win64; x64) AppleWebKit/537.36 (KHTML, like Gecko) Chrome/118.0.0.0 Safari/537.36","WebKit","Chrome","118.0.0.0","Windows","10.0","null","en-US,en;q=0.9,es;q=0.8","true","31","tones/440hz_short.mp3","a","","","empty_block","","26","","","","0","27",""
"","","","","","html-keyboard-response","157","292146","0.0-191.0-1.0","57","1","2023-11-01 12:53:33","a725c3012b74bf33a1020a98cb69c237","146.112.238.193","Mozilla/5.0 (Windows NT 10.0; Win64; x64) AppleWebKit/537.36 (KHTML, like Gecko) Chrome/118.0.0.0 Safari/537.36","WebKit","Chrome","118.0.0.0","Windows","10.0","null","en-US,en;q=0.9,es;q=0.8","true","443","tones/440hz_short.mp3","j","","","empty_block","","26","","","","0","27",""
"","","","","","html-keyboard-response","158","294860","0.0-193.0","57","1","2023-11-01 12:53:33","a725c3012b74bf33a1020a98cb69c237","146.112.238.193","Mozilla/5.0 (Windows NT 10.0; Win64; x64) AppleWebKit/537.36 (KHTML, like Gecko) Chrome/118.0.0.0 Safari/537.36","WebKit","Chrome","118.0.0.0","Windows","10.0","null","en-US,en;q=0.9,es;q=0.8","true","null","<div style=""font-size:100px;"">X</div>","null","","","fixation","","","","","","","",""
"","","","","","audio-keyboard-response","159","295615","0.0-194.0","57","1","2023-11-01 12:53:33","a725c3012b74bf33a1020a98cb69c237","146.112.238.193","Mozilla/5.0 (Windows NT 10.0; Win64; x64) AppleWebKit/537.36 (KHTML, like Gecko) Chrome/118.0.0.0 Safari/537.36","WebKit","Chrome","118.0.0.0","Windows","10.0","null","en-US,en;q=0.9,es;q=0.8","true","749","tones/880hz_short.mp3","s","","","tone_number_task","1025","32","tones/880hz_short.mp3","1175","100","0","28",""
"","","","","","html-keyboard-response","160","295896","0.0-195.0-0.0","57","1","2023-11-01 12:53:33","a725c3012b74bf33a1020a98cb69c237","146.112.238.193","Mozilla/5.0 (Windows NT 10.0; Win64; x64) AppleWebKit/537.36 (KHTML, like Gecko) Chrome/118.0.0.0 Safari/537.36","WebKit","Chrome","118.0.0.0","Windows","10.0","null","en-US,en;q=0.9,es;q=0.8","true","null","","null","","","delay_block","","","","","","0","28",""
"","","","","","html-keyboard-response","161","296051","0.0-195.0-1.0","57","1","2023-11-01 12:53:33","a725c3012b74bf33a1020a98cb69c237","146.112.238.193","Mozilla/5.0 (Windows NT 10.0; Win64; x64) AppleWebKit/537.36 (KHTML, like Gecko) Chrome/118.0.0.0 Safari/537.36","WebKit","Chrome","118.0.0.0","Windows","10.0","null","en-US,en;q=0.9,es;q=0.8","true","null","<p id=""stimulus"" style=""font-size:100px;"">32</p>","null","","","tone_number_task_remaining_before_delay","","32","","426","100","0","28",""
"","","","","","html-keyboard-response","162","296587","0.0-198.0-0.0","57","1","2023-11-01 12:53:33","a725c3012b74bf33a1020a98cb69c237","146.112.238.193","Mozilla/5.0 (Windows NT 10.0; Win64; x64) AppleWebKit/537.36 (KHTML, like Gecko) Chrome/118.0.0.0 Safari/537.36","WebKit","Chrome","118.0.0.0","Windows","10.0","null","en-US,en;q=0.9,es;q=0.8","true","533","<p id=""stimulus"" style=""font-size:100px;"">32</p>","j","","","empty_block","","32","","","","0","28",""
"","","","","","html-keyboard-response","163","299311","0.0-199.0","57","1","2023-11-01 12:53:33","a725c3012b74bf33a1020a98cb69c237","146.112.238.193","Mozilla/5.0 (Windows NT 10.0; Win64; x64) AppleWebKit/537.36 (KHTML, like Gecko) Chrome/118.0.0.0 Safari/537.36","WebKit","Chrome","118.0.0.0","Windows","10.0","null","en-US,en;q=0.9,es;q=0.8","true","null","<div style=""font-size:100px;"">X</div>","null","","","fixation","","","","","","","",""
"","","","","","audio-keyboard-response","164","300464","0.0-200.0","57","1","2023-11-01 12:53:33","a725c3012b74bf33a1020a98cb69c237","146.112.238.193","Mozilla/5.0 (Windows NT 10.0; Win64; x64) AppleWebKit/537.36 (KHTML, like Gecko) Chrome/118.0.0.0 Safari/537.36","WebKit","Chrome","118.0.0.0","Windows","10.0","null","en-US,en;q=0.9,es;q=0.8","true","null","tones/440hz_short.mp3","null","","","tone_number_task","992.5","49","tones/440hz_short.mp3","1142.5","100","0","29",""
"","","","","","html-keyboard-response","165","300522","0.0-203.0-0.0","57","1","2023-11-01 12:53:33","a725c3012b74bf33a1020a98cb69c237","146.112.238.193","Mozilla/5.0 (Windows NT 10.0; Win64; x64) AppleWebKit/537.36 (KHTML, like Gecko) Chrome/118.0.0.0 Safari/537.36","WebKit","Chrome","118.0.0.0","Windows","10.0","null","en-US,en;q=0.9,es;q=0.8","true","54","tones/440hz_short.mp3","a","","","empty_block","","49","","","","0","29",""
"","","","","","html-keyboard-response","166","301221","0.0-203.0-1.0","57","1","2023-11-01 12:53:33","a725c3012b74bf33a1020a98cb69c237","146.112.238.193","Mozilla/5.0 (Windows NT 10.0; Win64; x64) AppleWebKit/537.36 (KHTML, like Gecko) Chrome/118.0.0.0 Safari/537.36","WebKit","Chrome","118.0.0.0","Windows","10.0","null","en-US,en;q=0.9,es;q=0.8","true","693","tones/440hz_short.mp3","k","","","empty_block","","49","","","","0","29",""
"","","","","","html-keyboard-response","167","303937","0.0-205.0","57","1","2023-11-01 12:53:33","a725c3012b74bf33a1020a98cb69c237","146.112.238.193","Mozilla/5.0 (Windows NT 10.0; Win64; x64) AppleWebKit/537.36 (KHTML, like Gecko) Chrome/118.0.0.0 Safari/537.36","WebKit","Chrome","118.0.0.0","Windows","10.0","null","en-US,en;q=0.9,es;q=0.8","true","null","<div style=""font-size:100px;"">X</div>","null","","","fixation","","","","","","","",""
"","","","","","audio-keyboard-response","168","305083","0.0-206.0","57","1","2023-11-01 12:53:33","a725c3012b74bf33a1020a98cb69c237","146.112.238.193","Mozilla/5.0 (Windows NT 10.0; Win64; x64) AppleWebKit/537.36 (KHTML, like Gecko) Chrome/118.0.0.0 Safari/537.36","WebKit","Chrome","118.0.0.0","Windows","10.0","null","en-US,en;q=0.9,es;q=0.8","true","null","tones/880hz_short.mp3","null","","","tone_number_task","992.5","30","tones/880hz_short.mp3","1142.5","100","0","30",""
"","","","","","html-keyboard-response","169","305512","0.0-209.0-0.0","57","1","2023-11-01 12:53:33","a725c3012b74bf33a1020a98cb69c237","146.112.238.193","Mozilla/5.0 (Windows NT 10.0; Win64; x64) AppleWebKit/537.36 (KHTML, like Gecko) Chrome/118.0.0.0 Safari/537.36","WebKit","Chrome","118.0.0.0","Windows","10.0","null","en-US,en;q=0.9,es;q=0.8","true","426","tones/880hz_short.mp3","s","","","empty_block","","30","","","","0","30",""
"","","","","","html-keyboard-response","170","306538","0.0-209.0-1.0","57","1","2023-11-01 12:53:33","a725c3012b74bf33a1020a98cb69c237","146.112.238.193","Mozilla/5.0 (Windows NT 10.0; Win64; x64) AppleWebKit/537.36 (KHTML, like Gecko) Chrome/118.0.0.0 Safari/537.36","WebKit","Chrome","118.0.0.0","Windows","10.0","null","en-US,en;q=0.9,es;q=0.8","true","1024","tones/880hz_short.mp3","j","","","empty_block","","30","","","","0","30",""
"","","","","","html-keyboard-response","171","309250","0.0-211.0","57","1","2023-11-01 12:53:33","a725c3012b74bf33a1020a98cb69c237","146.112.238.193","Mozilla/5.0 (Windows NT 10.0; Win64; x64) AppleWebKit/537.36 (KHTML, like Gecko) Chrome/118.0.0.0 Safari/537.36","WebKit","Chrome","118.0.0.0","Windows","10.0","null","en-US,en;q=0.9,es;q=0.8","true","null","<div style=""font-size:100px;"">X</div>","null","","","fixation","","","","","","","",""
"","","","","","audio-keyboard-response","172","309406","0.0-212.0","57","1","2023-11-01 12:53:33","a725c3012b74bf33a1020a98cb69c237","146.112.238.193","Mozilla/5.0 (Windows NT 10.0; Win64; x64) AppleWebKit/537.36 (KHTML, like Gecko) Chrome/118.0.0.0 Safari/537.36","WebKit","Chrome","118.0.0.0","Windows","10.0","null","en-US,en;q=0.9,es;q=0.8","true","null","tones/880hz_short.mp3","null","","","tone_number_task","0","31","tones/880hz_short.mp3","150","100","0","31",""
"","","","","","html-keyboard-response","173","310112","0.0-215.0-0.0","57","1","2023-11-01 12:53:33","a725c3012b74bf33a1020a98cb69c237","146.112.238.193","Mozilla/5.0 (Windows NT 10.0; Win64; x64) AppleWebKit/537.36 (KHTML, like Gecko) Chrome/118.0.0.0 Safari/537.36","WebKit","Chrome","118.0.0.0","Windows","10.0","null","en-US,en;q=0.9,es;q=0.8","true","700","tones/880hz_short.mp3","s","","","empty_block","","31","","","","0","31",""
"","","","","","html-keyboard-response","174","310455","0.0-215.0-1.0","57","1","2023-11-01 12:53:33","a725c3012b74bf33a1020a98cb69c237","146.112.238.193","Mozilla/5.0 (Windows NT 10.0; Win64; x64) AppleWebKit/537.36 (KHTML, like Gecko) Chrome/118.0.0.0 Safari/537.36","WebKit","Chrome","118.0.0.0","Windows","10.0","null","en-US,en;q=0.9,es;q=0.8","true","340","tones/880hz_short.mp3","j","","","empty_block","","31","","","","0","31",""
"","","","","","html-keyboard-response","175","313169","0.0-217.0","57","1","2023-11-01 12:53:33","a725c3012b74bf33a1020a98cb69c237","146.112.238.193","Mozilla/5.0 (Windows NT 10.0; Win64; x64) AppleWebKit/537.36 (KHTML, like Gecko) Chrome/118.0.0.0 Safari/537.36","WebKit","Chrome","118.0.0.0","Windows","10.0","null","en-US,en;q=0.9,es;q=0.8","true","null","<div style=""font-size:100px;"">X</div>","null","","","fixation","","","","","","","",""
"","","","","","audio-keyboard-response","176","313875","0.0-218.0","57","1","2023-11-01 12:53:33","a725c3012b74bf33a1020a98cb69c237","146.112.238.193","Mozilla/5.0 (Windows NT 10.0; Win64; x64) AppleWebKit/537.36 (KHTML, like Gecko) Chrome/118.0.0.0 Safari/537.36","WebKit","Chrome","118.0.0.0","Windows","10.0","null","en-US,en;q=0.9,es;q=0.8","true","701","tones/880hz_short.mp3","s","","","tone_number_task","1025","48","tones/880hz_short.mp3","1175","100","0","32",""
"","","","","","html-keyboard-response","177","314209","0.0-219.0-0.0","57","1","2023-11-01 12:53:33","a725c3012b74bf33a1020a98cb69c237","146.112.238.193","Mozilla/5.0 (Windows NT 10.0; Win64; x64) AppleWebKit/537.36 (KHTML, like Gecko) Chrome/118.0.0.0 Safari/537.36","WebKit","Chrome","118.0.0.0","Windows","10.0","null","en-US,en;q=0.9,es;q=0.8","true","null","","null","","","delay_block","","","","","","0","32",""
"","","","","","html-keyboard-response","178","314367","0.0-219.0-1.0","57","1","2023-11-01 12:53:33","a725c3012b74bf33a1020a98cb69c237","146.112.238.193","Mozilla/5.0 (Windows NT 10.0; Win64; x64) AppleWebKit/537.36 (KHTML, like Gecko) Chrome/118.0.0.0 Safari/537.36","WebKit","Chrome","118.0.0.0","Windows","10.0","null","en-US,en;q=0.9,es;q=0.8","true","null","<p id=""stimulus"" style=""font-size:100px;"">48</p>","null","","","tone_number_task_remaining_before_delay","","48","","474","100","0","32",""
"","","","","","html-keyboard-response","179","314768","0.0-222.0-0.0","57","1","2023-11-01 12:53:33","a725c3012b74bf33a1020a98cb69c237","146.112.238.193","Mozilla/5.0 (Windows NT 10.0; Win64; x64) AppleWebKit/537.36 (KHTML, like Gecko) Chrome/118.0.0.0 Safari/537.36","WebKit","Chrome","118.0.0.0","Windows","10.0","null","en-US,en;q=0.9,es;q=0.8","true","392","<p id=""stimulus"" style=""font-size:100px;"">48</p>","k","","","empty_block","","48","","","","0","32",""
"","","","","","html-keyboard-response","180","317481","0.0-223.0","57","1","2023-11-01 12:53:33","a725c3012b74bf33a1020a98cb69c237","146.112.238.193","Mozilla/5.0 (Windows NT 10.0; Win64; x64) AppleWebKit/537.36 (KHTML, like Gecko) Chrome/118.0.0.0 Safari/537.36","WebKit","Chrome","118.0.0.0","Windows","10.0","null","en-US,en;q=0.9,es;q=0.8","true","null","<div style=""font-size:100px;"">X</div>","null","","","fixation","","","","","","","",""
"","","","","","audio-keyboard-response","181","317643","0.0-224.0","57","1","2023-11-01 12:53:33","a725c3012b74bf33a1020a98cb69c237","146.112.238.193","Mozilla/5.0 (Windows NT 10.0; Win64; x64) AppleWebKit/537.36 (KHTML, like Gecko) Chrome/118.0.0.0 Safari/537.36","WebKit","Chrome","118.0.0.0","Windows","10.0","null","en-US,en;q=0.9,es;q=0.8","true","null","tones/880hz_short.mp3","null","","","tone_number_task","0","22","tones/880hz_short.mp3","150","100","0","33",""
"","","","","","html-keyboard-response","182","318144","0.0-227.0-0.0","57","1","2023-11-01 12:53:33","a725c3012b74bf33a1020a98cb69c237","146.112.238.193","Mozilla/5.0 (Windows NT 10.0; Win64; x64) AppleWebKit/537.36 (KHTML, like Gecko) Chrome/118.0.0.0 Safari/537.36","WebKit","Chrome","118.0.0.0","Windows","10.0","null","en-US,en;q=0.9,es;q=0.8","true","498","tones/880hz_short.mp3","s","","","empty_block","","22","","","","0","33",""
"","","","","","html-keyboard-response","183","318491","0.0-227.0-1.0","57","1","2023-11-01 12:53:33","a725c3012b74bf33a1020a98cb69c237","146.112.238.193","Mozilla/5.0 (Windows NT 10.0; Win64; x64) AppleWebKit/537.36 (KHTML, like Gecko) Chrome/118.0.0.0 Safari/537.36","WebKit","Chrome","118.0.0.0","Windows","10.0","null","en-US,en;q=0.9,es;q=0.8","true","346","tones/880hz_short.mp3","j","","","empty_block","","22","","","","0","33",""
"","","","","","html-keyboard-response","184","321205","0.0-229.0","57","1","2023-11-01 12:53:33","a725c3012b74bf33a1020a98cb69c237","146.112.238.193","Mozilla/5.0 (Windows NT 10.0; Win64; x64) AppleWebKit/537.36 (KHTML, like Gecko) Chrome/118.0.0.0 Safari/537.36","WebKit","Chrome","118.0.0.0","Windows","10.0","null","en-US,en;q=0.9,es;q=0.8","true","null","<div style=""font-size:100px;"">X</div>","null","","","fixation","","","","","","","",""
"","","","","","audio-keyboard-response","185","321360","0.0-230.0","57","1","2023-11-01 12:53:33","a725c3012b74bf33a1020a98cb69c237","146.112.238.193","Mozilla/5.0 (Windows NT 10.0; Win64; x64) AppleWebKit/537.36 (KHTML, like Gecko) Chrome/118.0.0.0 Safari/537.36","WebKit","Chrome","118.0.0.0","Windows","10.0","null","en-US,en;q=0.9,es;q=0.8","true","null","tones/440hz_short.mp3","null","","","tone_number_task","0","44","tones/440hz_short.mp3","150","100","0","34",""
"","","","","","html-keyboard-response","186","322295","0.0-233.0-0.0","57","1","2023-11-01 12:53:33","a725c3012b74bf33a1020a98cb69c237","146.112.238.193","Mozilla/5.0 (Windows NT 10.0; Win64; x64) AppleWebKit/537.36 (KHTML, like Gecko) Chrome/118.0.0.0 Safari/537.36","WebKit","Chrome","118.0.0.0","Windows","10.0","null","en-US,en;q=0.9,es;q=0.8","true","933","tones/440hz_short.mp3","a","","","empty_block","","44","","","","0","34",""
"","","","","","html-keyboard-response","187","322919","0.0-233.0-1.0","57","1","2023-11-01 12:53:33","a725c3012b74bf33a1020a98cb69c237","146.112.238.193","Mozilla/5.0 (Windows NT 10.0; Win64; x64) AppleWebKit/537.36 (KHTML, like Gecko) Chrome/118.0.0.0 Safari/537.36","WebKit","Chrome","118.0.0.0","Windows","10.0","null","en-US,en;q=0.9,es;q=0.8","true","621","tones/440hz_short.mp3","j","","","empty_block","","44","","","","0","34",""
"","","","","","html-keyboard-response","188","325631","0.0-235.0","57","1","2023-11-01 12:53:33","a725c3012b74bf33a1020a98cb69c237","146.112.238.193","Mozilla/5.0 (Windows NT 10.0; Win64; x64) AppleWebKit/537.36 (KHTML, like Gecko) Chrome/118.0.0.0 Safari/537.36","WebKit","Chrome","118.0.0.0","Windows","10.0","null","en-US,en;q=0.9,es;q=0.8","true","null","<div style=""font-size:100px;"">X</div>","null","","","fixation","","","","","","","",""
"","","","","","audio-keyboard-response","189","325889","0.0-236.0","57","1","2023-11-01 12:53:33","a725c3012b74bf33a1020a98cb69c237","146.112.238.193","Mozilla/5.0 (Windows NT 10.0; Win64; x64) AppleWebKit/537.36 (KHTML, like Gecko) Chrome/118.0.0.0 Safari/537.36","WebKit","Chrome","118.0.0.0","Windows","10.0","null","en-US,en;q=0.9,es;q=0.8","true","null","tones/880hz_short.mp3","null","","","tone_number_task","102.5","39","tones/880hz_short.mp3","252.5","100","0","35",""
"","","","","","html-keyboard-response","190","326860","0.0-239.0-0.0","57","1","2023-11-01 12:53:33","a725c3012b74bf33a1020a98cb69c237","146.112.238.193","Mozilla/5.0 (Windows NT 10.0; Win64; x64) AppleWebKit/537.36 (KHTML, like Gecko) Chrome/118.0.0.0 Safari/537.36","WebKit","Chrome","118.0.0.0","Windows","10.0","null","en-US,en;q=0.9,es;q=0.8","true","968","tones/880hz_short.mp3","s","","","empty_block","","39","","","","0","35",""
"","","","","","html-keyboard-response","191","327164","0.0-239.0-1.0","57","1","2023-11-01 12:53:33","a725c3012b74bf33a1020a98cb69c237","146.112.238.193","Mozilla/5.0 (Windows NT 10.0; Win64; x64) AppleWebKit/537.36 (KHTML, like Gecko) Chrome/118.0.0.0 Safari/537.36","WebKit","Chrome","118.0.0.0","Windows","10.0","null","en-US,en;q=0.9,es;q=0.8","true","301","tones/880hz_short.mp3","j","","","empty_block","","39","","","","0","35",""
"","","","","","html-keyboard-response","192","329877","0.0-241.0","57","1","2023-11-01 12:53:33","a725c3012b74bf33a1020a98cb69c237","146.112.238.193","Mozilla/5.0 (Windows NT 10.0; Win64; x64) AppleWebKit/537.36 (KHTML, like Gecko) Chrome/118.0.0.0 Safari/537.36","WebKit","Chrome","118.0.0.0","Windows","10.0","null","en-US,en;q=0.9,es;q=0.8","true","null","<div style=""font-size:100px;"">X</div>","null","","","fixation","","","","","","","",""
"","","","","","audio-keyboard-response","193","331067","0.0-242.0","57","1","2023-11-01 12:53:33","a725c3012b74bf33a1020a98cb69c237","146.112.238.193","Mozilla/5.0 (Windows NT 10.0; Win64; x64) AppleWebKit/537.36 (KHTML, like Gecko) Chrome/118.0.0.0 Safari/537.36","WebKit","Chrome","118.0.0.0","Windows","10.0","null","en-US,en;q=0.9,es;q=0.8","true","null","tones/880hz_short.mp3","null","","","tone_number_task","1025","62","tones/880hz_short.mp3","1175","100","0","36",""
"","","","","","html-keyboard-response","194","331126","0.0-245.0-0.0","57","1","2023-11-01 12:53:33","a725c3012b74bf33a1020a98cb69c237","146.112.238.193","Mozilla/5.0 (Windows NT 10.0; Win64; x64) AppleWebKit/537.36 (KHTML, like Gecko) Chrome/118.0.0.0 Safari/537.36","WebKit","Chrome","118.0.0.0","Windows","10.0","null","en-US,en;q=0.9,es;q=0.8","true","55","tones/880hz_short.mp3","s","","","empty_block","","62","","","","0","36",""
"","","","","","html-keyboard-response","195","331629","0.0-245.0-1.0","57","1","2023-11-01 12:53:33","a725c3012b74bf33a1020a98cb69c237","146.112.238.193","Mozilla/5.0 (Windows NT 10.0; Win64; x64) AppleWebKit/537.36 (KHTML, like Gecko) Chrome/118.0.0.0 Safari/537.36","WebKit","Chrome","118.0.0.0","Windows","10.0","null","en-US,en;q=0.9,es;q=0.8","true","497","tones/880hz_short.mp3","k","","","empty_block","","62","","","","0","36",""
"","","","","","html-keyboard-response","196","334344","0.0-247.0","57","1","2023-11-01 12:53:33","a725c3012b74bf33a1020a98cb69c237","146.112.238.193","Mozilla/5.0 (Windows NT 10.0; Win64; x64) AppleWebKit/537.36 (KHTML, like Gecko) Chrome/118.0.0.0 Safari/537.36","WebKit","Chrome","118.0.0.0","Windows","10.0","null","en-US,en;q=0.9,es;q=0.8","true","null","<div style=""font-size:100px;"">X</div>","null","","","fixation","","","","","","","",""
"","","","","","audio-keyboard-response","197","334500","0.0-248.0","57","1","2023-11-01 12:53:33","a725c3012b74bf33a1020a98cb69c237","146.112.238.193","Mozilla/5.0 (Windows NT 10.0; Win64; x64) AppleWebKit/537.36 (KHTML, like Gecko) Chrome/118.0.0.0 Safari/537.36","WebKit","Chrome","118.0.0.0","Windows","10.0","null","en-US,en;q=0.9,es;q=0.8","true","null","tones/880hz_short.mp3","null","","","tone_number_task","0","56","tones/880hz_short.mp3","150","100","0","37",""
"","","","","","html-keyboard-response","198","334872","0.0-251.0-0.0","57","1","2023-11-01 12:53:33","a725c3012b74bf33a1020a98cb69c237","146.112.238.193","Mozilla/5.0 (Windows NT 10.0; Win64; x64) AppleWebKit/537.36 (KHTML, like Gecko) Chrome/118.0.0.0 Safari/537.36","WebKit","Chrome","118.0.0.0","Windows","10.0","null","en-US,en;q=0.9,es;q=0.8","true","366","tones/880hz_short.mp3","s","","","empty_block","","56","","","","0","37",""
"","","","","","html-keyboard-response","199","335202","0.0-251.0-1.0","57","1","2023-11-01 12:53:33","a725c3012b74bf33a1020a98cb69c237","146.112.238.193","Mozilla/5.0 (Windows NT 10.0; Win64; x64) AppleWebKit/537.36 (KHTML, like Gecko) Chrome/118.0.0.0 Safari/537.36","WebKit","Chrome","118.0.0.0","Windows","10.0","null","en-US,en;q=0.9,es;q=0.8","true","326","tones/880hz_short.mp3","k","","","empty_block","","56","","","","0","37",""
"","","","","","html-keyboard-response","200","337915","0.0-253.0","57","1","2023-11-01 12:53:33","a725c3012b74bf33a1020a98cb69c237","146.112.238.193","Mozilla/5.0 (Windows NT 10.0; Win64; x64) AppleWebKit/537.36 (KHTML, like Gecko) Chrome/118.0.0.0 Safari/537.36","WebKit","Chrome","118.0.0.0","Windows","10.0","null","en-US,en;q=0.9,es;q=0.8","true","null","<div style=""font-size:100px;"">X</div>","null","","","fixation","","","","","","","",""
"","","","","","audio-keyboard-response","201","338429","0.0-254.0","57","1","2023-11-01 12:53:33","a725c3012b74bf33a1020a98cb69c237","146.112.238.193","Mozilla/5.0 (Windows NT 10.0; Win64; x64) AppleWebKit/537.36 (KHTML, like Gecko) Chrome/118.0.0.0 Safari/537.36","WebKit","Chrome","118.0.0.0","Windows","10.0","null","en-US,en;q=0.9,es;q=0.8","true","520","tones/880hz_short.mp3","s","","","tone_number_task","1025","35","tones/880hz_short.mp3","1175","100","0","38",""
"","","","","","html-keyboard-response","202","338937","0.0-255.0-0.0","57","1","2023-11-01 12:53:33","a725c3012b74bf33a1020a98cb69c237","146.112.238.193","Mozilla/5.0 (Windows NT 10.0; Win64; x64) AppleWebKit/537.36 (KHTML, like Gecko) Chrome/118.0.0.0 Safari/537.36","WebKit","Chrome","118.0.0.0","Windows","10.0","null","en-US,en;q=0.9,es;q=0.8","true","null","","null","","","delay_block","","","","","","0","38",""
"","","","","","html-keyboard-response","203","339093","0.0-255.0-1.0","57","1","2023-11-01 12:53:33","a725c3012b74bf33a1020a98cb69c237","146.112.238.193","Mozilla/5.0 (Windows NT 10.0; Win64; x64) AppleWebKit/537.36 (KHTML, like Gecko) Chrome/118.0.0.0 Safari/537.36","WebKit","Chrome","118.0.0.0","Windows","10.0","null","en-US,en;q=0.9,es;q=0.8","true","null","<p id=""stimulus"" style=""font-size:100px;"">35</p>","null","","","tone_number_task_remaining_before_delay","","35","","655","100","0","38",""
"","","","","","html-keyboard-response","204","339429","0.0-258.0-0.0","57","1","2023-11-01 12:53:33","a725c3012b74bf33a1020a98cb69c237","146.112.238.193","Mozilla/5.0 (Windows NT 10.0; Win64; x64) AppleWebKit/537.36 (KHTML, like Gecko) Chrome/118.0.0.0 Safari/537.36","WebKit","Chrome","118.0.0.0","Windows","10.0","null","en-US,en;q=0.9,es;q=0.8","true","332","<p id=""stimulus"" style=""font-size:100px;"">35</p>","j","","","empty_block","","35","","","","0","38",""
"","","","","","html-keyboard-response","205","342141","0.0-259.0","57","1","2023-11-01 12:53:33","a725c3012b74bf33a1020a98cb69c237","146.112.238.193","Mozilla/5.0 (Windows NT 10.0; Win64; x64) AppleWebKit/537.36 (KHTML, like Gecko) Chrome/118.0.0.0 Safari/537.36","WebKit","Chrome","118.0.0.0","Windows","10.0","null","en-US,en;q=0.9,es;q=0.8","true","null","<div style=""font-size:100px;"">X</div>","null","","","fixation","","","","","","","",""
"","","","","","audio-keyboard-response","206","342996","0.0-260.0","57","1","2023-11-01 12:53:33","a725c3012b74bf33a1020a98cb69c237","146.112.238.193","Mozilla/5.0 (Windows NT 10.0; Win64; x64) AppleWebKit/537.36 (KHTML, like Gecko) Chrome/118.0.0.0 Safari/537.36","WebKit","Chrome","118.0.0.0","Windows","10.0","null","en-US,en;q=0.9,es;q=0.8","true","851","tones/880hz_short.mp3","s","","","tone_number_task","1025","66","tones/880hz_short.mp3","1175","100","0","39",""
"","","","","","html-keyboard-response","207","343174","0.0-261.0-0.0","57","1","2023-11-01 12:53:33","a725c3012b74bf33a1020a98cb69c237","146.112.238.193","Mozilla/5.0 (Windows NT 10.0; Win64; x64) AppleWebKit/537.36 (KHTML, like Gecko) Chrome/118.0.0.0 Safari/537.36","WebKit","Chrome","118.0.0.0","Windows","10.0","null","en-US,en;q=0.9,es;q=0.8","true","null","","null","","","delay_block","","","","","","0","39",""
"","","","","","html-keyboard-response","208","343330","0.0-261.0-1.0","57","1","2023-11-01 12:53:33","a725c3012b74bf33a1020a98cb69c237","146.112.238.193","Mozilla/5.0 (Windows NT 10.0; Win64; x64) AppleWebKit/537.36 (KHTML, like Gecko) Chrome/118.0.0.0 Safari/537.36","WebKit","Chrome","118.0.0.0","Windows","10.0","null","en-US,en;q=0.9,es;q=0.8","true","null","<p id=""stimulus"" style=""font-size:100px;"">66</p>","null","","","tone_number_task_remaining_before_delay","","66","","324","100","0","39",""
"","","","","","html-keyboard-response","209","343681","0.0-264.0-0.0","57","1","2023-11-01 12:53:33","a725c3012b74bf33a1020a98cb69c237","146.112.238.193","Mozilla/5.0 (Windows NT 10.0; Win64; x64) AppleWebKit/537.36 (KHTML, like Gecko) Chrome/118.0.0.0 Safari/537.36","WebKit","Chrome","118.0.0.0","Windows","10.0","null","en-US,en;q=0.9,es;q=0.8","true","346","<p id=""stimulus"" style=""font-size:100px;"">66</p>","k","","","empty_block","","66","","","","0","39",""
"","","","","","call-function","210","343684","0.0-265.0","57","1","2023-11-01 12:53:33","a725c3012b74bf33a1020a98cb69c237","146.112.238.193","Mozilla/5.0 (Windows NT 10.0; Win64; x64) AppleWebKit/537.36 (KHTML, like Gecko) Chrome/118.0.0.0 Safari/537.36","WebKit","Chrome","118.0.0.0","Windows","10.0","null","en-US,en;q=0.9,es;q=0.8","true","","","","","","","","","","","","","",""
"","","","","","external-html","211","357050","0.0-266.0","57","1","2023-11-01 12:53:33","a725c3012b74bf33a1020a98cb69c237","146.112.238.193","Mozilla/5.0 (Windows NT 10.0; Win64; x64) AppleWebKit/537.36 (KHTML, like Gecko) Chrome/118.0.0.0 Safari/537.36","WebKit","Chrome","118.0.0.0","Windows","10.0","null","en-US,en;q=0.9,es;q=0.8","true","13061","","","","instructions/instructions_digits_last.html","","","","","","","","",""
"","","","","","call-function","212","357054","0.0-267.0","57","1","2023-11-01 12:53:33","a725c3012b74bf33a1020a98cb69c237","146.112.238.193","Mozilla/5.0 (Windows NT 10.0; Win64; x64) AppleWebKit/537.36 (KHTML, like Gecko) Chrome/118.0.0.0 Safari/537.36","WebKit","Chrome","118.0.0.0","Windows","10.0","null","en-US,en;q=0.9,es;q=0.8","true","","","","","","","","","","","","","",""
"","","","","","html-keyboard-response","213","359766","0.0-268.0","57","1","2023-11-01 12:53:33","a725c3012b74bf33a1020a98cb69c237","146.112.238.193","Mozilla/5.0 (Windows NT 10.0; Win64; x64) AppleWebKit/537.36 (KHTML, like Gecko) Chrome/118.0.0.0 Safari/537.36","WebKit","Chrome","118.0.0.0","Windows","10.0","null","en-US,en;q=0.9,es;q=0.8","true","null","<div style=""font-size:100px;"">X</div>","null","","","fixation","","","","","","","",""
"","","","","","audio-keyboard-response","214","360023","0.0-269.0","57","1","2023-11-01 12:53:33","a725c3012b74bf33a1020a98cb69c237","146.112.238.193","Mozilla/5.0 (Windows NT 10.0; Win64; x64) AppleWebKit/537.36 (KHTML, like Gecko) Chrome/118.0.0.0 Safari/537.36","WebKit","Chrome","118.0.0.0","Windows","10.0","null","en-US,en;q=0.9,es;q=0.8","true","null","tones/880hz_short.mp3","null","","","tone_number_task","102.5","49","tones/880hz_short.mp3","252.5","100","1","0",""
"","","","","","html-keyboard-response","215","360767","0.0-272.0-0.0","57","1","2023-11-01 12:53:33","a725c3012b74bf33a1020a98cb69c237","146.112.238.193","Mozilla/5.0 (Windows NT 10.0; Win64; x64) AppleWebKit/537.36 (KHTML, like Gecko) Chrome/118.0.0.0 Safari/537.36","WebKit","Chrome","118.0.0.0","Windows","10.0","null","en-US,en;q=0.9,es;q=0.8","true","737","tones/880hz_short.mp3","s","","","empty_block","","49","","","","1","0",""
