"success","timeout","failed_images","failed_audio","failed_video","trial_type","trial_index","time_elapsed","internal_node_id","run_id","condition","recorded_at","source_code_version","ip","user_agent","device","browser","browser_version","platform","platform_version","referer","accept_language","check","rt","stimulus","response","question_order","url","task","delay","number","audioFile","trial_duration","font_size","block","round","value"
"true","false","[]","[]","[]","preload","0","11","0.0-0.0","15","1","2023-10-29 18:27:31","a725c3012b74bf33a1020a98cb69c237","186.158.228.113","Mozilla/5.0 (Windows NT 10.0; Win64; x64) AppleWebKit/537.36 (KHTML, like Gecko) Chrome/118.0.0.0 Safari/537.36 Edg/118.0.2088.76","WebKit","Edge","118.0.2088.76","Windows","10.0","null","es,es-ES;q=0.9,en;q=0.8,en-GB;q=0.7,en-US;q=0.6","true","","","","","","","","","","","","","",""
"true","","","","","fullscreen","1","3759","0.0-1.0","15","1","2023-10-29 18:27:31","a725c3012b74bf33a1020a98cb69c237","186.158.228.113","Mozilla/5.0 (Windows NT 10.0; Win64; x64) AppleWebKit/537.36 (KHTML, like Gecko) Chrome/118.0.0.0 Safari/537.36 Edg/118.0.2088.76","WebKit","Edge","118.0.2088.76","Windows","10.0","null","es,es-ES;q=0.9,en;q=0.8,en-GB;q=0.7,en-US;q=0.6","true","","","","","","","","","","","","","",""
"","","","","","html-button-response","2","859909","0.0-2.0","15","1","2023-10-29 18:27:31","a725c3012b74bf33a1020a98cb69c237","186.158.228.113","Mozilla/5.0 (Windows NT 10.0; Win64; x64) AppleWebKit/537.36 (KHTML, like Gecko) Chrome/118.0.0.0 Safari/537.36 Edg/118.0.2088.76","WebKit","Edge","118.0.2088.76","Windows","10.0","null","es,es-ES;q=0.9,en;q=0.8,en-GB;q=0.7,en-US;q=0.6","true","856147","<p style=""font-size:24px; color:red;"">Cosas importantes a tener en cuenta antes de comenzar el experimento:</p>","0","","","","","","","","","","",""
"","","","","","html-button-response","3","866972","0.0-3.0","15","1","2023-10-29 18:27:31","a725c3012b74bf33a1020a98cb69c237","186.158.228.113","Mozilla/5.0 (Windows NT 10.0; Win64; x64) AppleWebKit/537.36 (KHTML, like Gecko) Chrome/118.0.0.0 Safari/537.36 Edg/118.0.2088.76","WebKit","Edge","118.0.2088.76","Windows","10.0","null","es,es-ES;q=0.9,en;q=0.8,en-GB;q=0.7,en-US;q=0.6","true","7060","<p style=""font-size:24px;"">El experimento dura aproximadamente 15 minutos.</p><p style=""font-size:24px;"">Por favor, no cierres la ventana del navegador durante el experimento.</p><p style=""font-size:24px;"">Si se completa de forma parcial, no se guardará ningún resultado.</p>","0","","","","","","","","","","",""
"","","","","","html-button-response","4","869436","0.0-4.0","15","1","2023-10-29 18:27:31","a725c3012b74bf33a1020a98cb69c237","186.158.228.113","Mozilla/5.0 (Windows NT 10.0; Win64; x64) AppleWebKit/537.36 (KHTML, like Gecko) Chrome/118.0.0.0 Safari/537.36 Edg/118.0.2088.76","WebKit","Edge","118.0.2088.76","Windows","10.0","null","es,es-ES;q=0.9,en;q=0.8,en-GB;q=0.7,en-US;q=0.6","true","2462","<p style=""font-size:24px;"">El experimento contiene estímulos sonoros.</p>","0","","","","","","","","","","",""
"","","","","","audio-button-response","5","872348","0.0-5.0-0.0","15","1","2023-10-29 18:27:31","a725c3012b74bf33a1020a98cb69c237","186.158.228.113","Mozilla/5.0 (Windows NT 10.0; Win64; x64) AppleWebKit/537.36 (KHTML, like Gecko) Chrome/118.0.0.0 Safari/537.36 Edg/118.0.2088.76","WebKit","Edge","118.0.2088.76","Windows","10.0","null","es,es-ES;q=0.9,en;q=0.8,en-GB;q=0.7,en-US;q=0.6","true","2720","tones/440hz_short.mp3","1","","","","","","","","","","",""
"","","","","","audio-button-response","6","874949","0.0-6.0-0.0","15","1","2023-10-29 18:27:31","a725c3012b74bf33a1020a98cb69c237","186.158.228.113","Mozilla/5.0 (Windows NT 10.0; Win64; x64) AppleWebKit/537.36 (KHTML, like Gecko) Chrome/118.0.0.0 Safari/537.36 Edg/118.0.2088.76","WebKit","Edge","118.0.2088.76","Windows","10.0","null","es,es-ES;q=0.9,en;q=0.8,en-GB;q=0.7,en-US;q=0.6","true","2600","tones/880hz_short.mp3","1","","","","","","","","","","",""
"","","","","","survey-html-form","7","877469","0.0-7.0","15","1","2023-10-29 18:27:31","a725c3012b74bf33a1020a98cb69c237","186.158.228.113","Mozilla/5.0 (Windows NT 10.0; Win64; x64) AppleWebKit/537.36 (KHTML, like Gecko) Chrome/118.0.0.0 Safari/537.36 Edg/118.0.2088.76","WebKit","Edge","118.0.2088.76","Windows","10.0","null","es,es-ES;q=0.9,en;q=0.8,en-GB;q=0.7,en-US;q=0.6","true","2511","","{""response"":""22""}","","","","","","","","","","",""
"","","","","","survey-multi-choice","8","882494","0.0-8.0","15","1","2023-10-29 18:27:31","a725c3012b74bf33a1020a98cb69c237","186.158.228.113","Mozilla/5.0 (Windows NT 10.0; Win64; x64) AppleWebKit/537.36 (KHTML, like Gecko) Chrome/118.0.0.0 Safari/537.36 Edg/118.0.2088.76","WebKit","Edge","118.0.2088.76","Windows","10.0","null","es,es-ES;q=0.9,en;q=0.8,en-GB;q=0.7,en-US;q=0.6","true","5019","","{""gender"":""Hombre"",""hand"":""Izquierda""}","[0,1]","","","","","","","","","",""
"","","","","","external-html","9","899262","0.0-9.0","15","1","2023-10-29 18:27:31","a725c3012b74bf33a1020a98cb69c237","186.158.228.113","Mozilla/5.0 (Windows NT 10.0; Win64; x64) AppleWebKit/537.36 (KHTML, like Gecko) Chrome/118.0.0.0 Safari/537.36 Edg/118.0.2088.76","WebKit","Edge","118.0.2088.76","Windows","10.0","null","es,es-ES;q=0.9,en;q=0.8,en-GB;q=0.7,en-US;q=0.6","true","16361","","","","instructions/instructions.html","","","","","","","","",""
"","","","","","external-html","10","921621","0.0-10.0","15","1","2023-10-29 18:27:31","a725c3012b74bf33a1020a98cb69c237","186.158.228.113","Mozilla/5.0 (Windows NT 10.0; Win64; x64) AppleWebKit/537.36 (KHTML, like Gecko) Chrome/118.0.0.0 Safari/537.36 Edg/118.0.2088.76","WebKit","Edge","118.0.2088.76","Windows","10.0","null","es,es-ES;q=0.9,en;q=0.8,en-GB;q=0.7,en-US;q=0.6","true","22020","","","","instructions/animation.html","","","","","","","","",""
"","","","","","html-keyboard-response","11","924571","0.0-11.0-0.0","15","1","2023-10-29 18:27:31","a725c3012b74bf33a1020a98cb69c237","186.158.228.113","Mozilla/5.0 (Windows NT 10.0; Win64; x64) AppleWebKit/537.36 (KHTML, like Gecko) Chrome/118.0.0.0 Safari/537.36 Edg/118.0.2088.76","WebKit","Edge","118.0.2088.76","Windows","10.0","null","es,es-ES;q=0.9,en;q=0.8,en-GB;q=0.7,en-US;q=0.6","true","null","<div style=""font-size:100px;"">X</div>","null","","","fixation","","","","","","","",""
"","","","","","audio-keyboard-response","12","925741","0.0-11.0-1.0","15","1","2023-10-29 18:27:31","a725c3012b74bf33a1020a98cb69c237","186.158.228.113","Mozilla/5.0 (Windows NT 10.0; Win64; x64) AppleWebKit/537.36 (KHTML, like Gecko) Chrome/118.0.0.0 Safari/537.36 Edg/118.0.2088.76","WebKit","Edge","118.0.2088.76","Windows","10.0","null","es,es-ES;q=0.9,en;q=0.8,en-GB;q=0.7,en-US;q=0.6","true","null","tones/880hz_short.mp3","null","","","tone_number_task","1000","27","tones/880hz_short.mp3","1150","100","null","null",""
"","","","","","html-keyboard-response","13","926449","0.0-11.0-4.0-0.0","15","1","2023-10-29 18:27:31","a725c3012b74bf33a1020a98cb69c237","186.158.228.113","Mozilla/5.0 (Windows NT 10.0; Win64; x64) AppleWebKit/537.36 (KHTML, like Gecko) Chrome/118.0.0.0 Safari/537.36 Edg/118.0.2088.76","WebKit","Edge","118.0.2088.76","Windows","10.0","null","es,es-ES;q=0.9,en;q=0.8,en-GB;q=0.7,en-US;q=0.6","true","705","tones/880hz_short.mp3","s","","","empty_block","","27","","","","null","null",""
"","","","","","html-keyboard-response","14","927694","0.0-11.0-4.0-1.0","15","1","2023-10-29 18:27:31","a725c3012b74bf33a1020a98cb69c237","186.158.228.113","Mozilla/5.0 (Windows NT 10.0; Win64; x64) AppleWebKit/537.36 (KHTML, like Gecko) Chrome/118.0.0.0 Safari/537.36 Edg/118.0.2088.76","WebKit","Edge","118.0.2088.76","Windows","10.0","null","es,es-ES;q=0.9,en;q=0.8,en-GB;q=0.7,en-US;q=0.6","true","1243","tones/880hz_short.mp3","j","","","empty_block","","27","","","","null","null",""
"","","","","","html-keyboard-response","15","930641","0.0-13.0-0.0","15","1","2023-10-29 18:27:31","a725c3012b74bf33a1020a98cb69c237","186.158.228.113","Mozilla/5.0 (Windows NT 10.0; Win64; x64) AppleWebKit/537.36 (KHTML, like Gecko) Chrome/118.0.0.0 Safari/537.36 Edg/118.0.2088.76","WebKit","Edge","118.0.2088.76","Windows","10.0","null","es,es-ES;q=0.9,en;q=0.8,en-GB;q=0.7,en-US;q=0.6","true","null","<div style=""font-size:100px;"">X</div>","null","","","fixation","","","","","","","",""
"","","","","","audio-keyboard-response","16","931300","0.0-13.0-1.0","15","1","2023-10-29 18:27:31","a725c3012b74bf33a1020a98cb69c237","186.158.228.113","Mozilla/5.0 (Windows NT 10.0; Win64; x64) AppleWebKit/537.36 (KHTML, like Gecko) Chrome/118.0.0.0 Safari/537.36 Edg/118.0.2088.76","WebKit","Edge","118.0.2088.76","Windows","10.0","null","es,es-ES;q=0.9,en;q=0.8,en-GB;q=0.7,en-US;q=0.6","true","null","tones/440hz_short.mp3","null","","","tone_number_task","500","67","tones/440hz_short.mp3","650","100","null","null",""
"","","","","","html-keyboard-response","17","932230","0.0-13.0-4.0-0.0","15","1","2023-10-29 18:27:31","a725c3012b74bf33a1020a98cb69c237","186.158.228.113","Mozilla/5.0 (Windows NT 10.0; Win64; x64) AppleWebKit/537.36 (KHTML, like Gecko) Chrome/118.0.0.0 Safari/537.36 Edg/118.0.2088.76","WebKit","Edge","118.0.2088.76","Windows","10.0","null","es,es-ES;q=0.9,en;q=0.8,en-GB;q=0.7,en-US;q=0.6","true","928","tones/440hz_short.mp3","a","","","empty_block","","67","","","","null","null",""
"","","","","","html-keyboard-response","18","932640","0.0-13.0-4.0-1.0","15","1","2023-10-29 18:27:31","a725c3012b74bf33a1020a98cb69c237","186.158.228.113","Mozilla/5.0 (Windows NT 10.0; Win64; x64) AppleWebKit/537.36 (KHTML, like Gecko) Chrome/118.0.0.0 Safari/537.36 Edg/118.0.2088.76","WebKit","Edge","118.0.2088.76","Windows","10.0","null","es,es-ES;q=0.9,en;q=0.8,en-GB;q=0.7,en-US;q=0.6","true","407","tones/440hz_short.mp3","k","","","empty_block","","67","","","","null","null",""
"","","","","","html-keyboard-response","19","935591","0.0-15.0-0.0","15","1","2023-10-29 18:27:31","a725c3012b74bf33a1020a98cb69c237","186.158.228.113","Mozilla/5.0 (Windows NT 10.0; Win64; x64) AppleWebKit/537.36 (KHTML, like Gecko) Chrome/118.0.0.0 Safari/537.36 Edg/118.0.2088.76","WebKit","Edge","118.0.2088.76","Windows","10.0","null","es,es-ES;q=0.9,en;q=0.8,en-GB;q=0.7,en-US;q=0.6","true","null","<div style=""font-size:100px;"">X</div>","null","","","fixation","","","","","","","",""
"","","","","","audio-keyboard-response","20","935911","0.0-15.0-1.0","15","1","2023-10-29 18:27:31","a725c3012b74bf33a1020a98cb69c237","186.158.228.113","Mozilla/5.0 (Windows NT 10.0; Win64; x64) AppleWebKit/537.36 (KHTML, like Gecko) Chrome/118.0.0.0 Safari/537.36 Edg/118.0.2088.76","WebKit","Edge","118.0.2088.76","Windows","10.0","null","es,es-ES;q=0.9,en;q=0.8,en-GB;q=0.7,en-US;q=0.6","true","null","tones/440hz_short.mp3","null","","","tone_number_task","150","64","tones/440hz_short.mp3","300","100","null","null",""
"","","","","","html-keyboard-response","21","937596","0.0-15.0-4.0-0.0","15","1","2023-10-29 18:27:31","a725c3012b74bf33a1020a98cb69c237","186.158.228.113","Mozilla/5.0 (Windows NT 10.0; Win64; x64) AppleWebKit/537.36 (KHTML, like Gecko) Chrome/118.0.0.0 Safari/537.36 Edg/118.0.2088.76","WebKit","Edge","118.0.2088.76","Windows","10.0","null","es,es-ES;q=0.9,en;q=0.8,en-GB;q=0.7,en-US;q=0.6","true","1683","tones/440hz_short.mp3","a","","","empty_block","","64","","","","null","null",""
"","","","","","html-keyboard-response","22","937779","0.0-15.0-4.0-1.0","15","1","2023-10-29 18:27:31","a725c3012b74bf33a1020a98cb69c237","186.158.228.113","Mozilla/5.0 (Windows NT 10.0; Win64; x64) AppleWebKit/537.36 (KHTML, like Gecko) Chrome/118.0.0.0 Safari/537.36 Edg/118.0.2088.76","WebKit","Edge","118.0.2088.76","Windows","10.0","null","es,es-ES;q=0.9,en;q=0.8,en-GB;q=0.7,en-US;q=0.6","true","182","tones/440hz_short.mp3","k","","","empty_block","","64","","","","null","null",""
"","","","","","html-keyboard-response","23","940731","0.0-17.0-0.0","15","1","2023-10-29 18:27:31","a725c3012b74bf33a1020a98cb69c237","186.158.228.113","Mozilla/5.0 (Windows NT 10.0; Win64; x64) AppleWebKit/537.36 (KHTML, like Gecko) Chrome/118.0.0.0 Safari/537.36 Edg/118.0.2088.76","WebKit","Edge","118.0.2088.76","Windows","10.0","null","es,es-ES;q=0.9,en;q=0.8,en-GB;q=0.7,en-US;q=0.6","true","null","<div style=""font-size:100px;"">X</div>","null","","","fixation","","","","","","","",""
"","","","","","audio-keyboard-response","24","940941","0.0-17.0-1.0","15","1","2023-10-29 18:27:31","a725c3012b74bf33a1020a98cb69c237","186.158.228.113","Mozilla/5.0 (Windows NT 10.0; Win64; x64) AppleWebKit/537.36 (KHTML, like Gecko) Chrome/118.0.0.0 Safari/537.36 Edg/118.0.2088.76","WebKit","Edge","118.0.2088.76","Windows","10.0","null","es,es-ES;q=0.9,en;q=0.8,en-GB;q=0.7,en-US;q=0.6","true","null","tones/880hz_short.mp3","null","","","tone_number_task","50","40","tones/880hz_short.mp3","200","100","null","null",""
"","","","","","html-keyboard-response","25","941874","0.0-17.0-4.0-0.0","15","1","2023-10-29 18:27:31","a725c3012b74bf33a1020a98cb69c237","186.158.228.113","Mozilla/5.0 (Windows NT 10.0; Win64; x64) AppleWebKit/537.36 (KHTML, like Gecko) Chrome/118.0.0.0 Safari/537.36 Edg/118.0.2088.76","WebKit","Edge","118.0.2088.76","Windows","10.0","null","es,es-ES;q=0.9,en;q=0.8,en-GB;q=0.7,en-US;q=0.6","true","931","tones/880hz_short.mp3","s","","","empty_block","","40","","","","null","null",""
"","","","","","html-keyboard-response","26","942123","0.0-17.0-4.0-1.0","15","1","2023-10-29 18:27:31","a725c3012b74bf33a1020a98cb69c237","186.158.228.113","Mozilla/5.0 (Windows NT 10.0; Win64; x64) AppleWebKit/537.36 (KHTML, like Gecko) Chrome/118.0.0.0 Safari/537.36 Edg/118.0.2088.76","WebKit","Edge","118.0.2088.76","Windows","10.0","null","es,es-ES;q=0.9,en;q=0.8,en-GB;q=0.7,en-US;q=0.6","true","247","tones/880hz_short.mp3","j","","","empty_block","","40","","","","null","null",""
"","","","","","html-button-response","27","948069","0.0-19.0","15","1","2023-10-29 18:27:31","a725c3012b74bf33a1020a98cb69c237","186.158.228.113","Mozilla/5.0 (Windows NT 10.0; Win64; x64) AppleWebKit/537.36 (KHTML, like Gecko) Chrome/118.0.0.0 Safari/537.36 Edg/118.0.2088.76","WebKit","Edge","118.0.2088.76","Windows","10.0","null","es,es-ES;q=0.9,en;q=0.8,en-GB;q=0.7,en-US;q=0.6","true","5943","
  <h1> Muy bien </h1>
  <p> Ahora, en vez de ser presentados en dígitos, los números vendrán escritos en palabras. </p>
  <p> Por ejemplo, en vez de 44 te aparecerá ""cuarenta y cuatro"". </p>
  ","0","","","","","","","","","","",""
"","","","","","html-keyboard-response","28","951021","0.0-20.0-0.0","15","1","2023-10-29 18:27:31","a725c3012b74bf33a1020a98cb69c237","186.158.228.113","Mozilla/5.0 (Windows NT 10.0; Win64; x64) AppleWebKit/537.36 (KHTML, like Gecko) Chrome/118.0.0.0 Safari/537.36 Edg/118.0.2088.76","WebKit","Edge","118.0.2088.76","Windows","10.0","null","es,es-ES;q=0.9,en;q=0.8,en-GB;q=0.7,en-US;q=0.6","true","null","<div style=""font-size:100px;"">X</div>","null","","","fixation","","","","","","","",""
"","","","","","audio-keyboard-response","29","951870","0.0-20.0-1.0","15","1","2023-10-29 18:27:31","a725c3012b74bf33a1020a98cb69c237","186.158.228.113","Mozilla/5.0 (Windows NT 10.0; Win64; x64) AppleWebKit/537.36 (KHTML, like Gecko) Chrome/118.0.0.0 Safari/537.36 Edg/118.0.2088.76","WebKit","Edge","118.0.2088.76","Windows","10.0","null","es,es-ES;q=0.9,en;q=0.8,en-GB;q=0.7,en-US;q=0.6","true","840","tones/880hz_short.mp3","s","","","tone_number_task","1000","sesenta","tones/880hz_short.mp3","1150","60","null","null",""
"","","","","","html-keyboard-response","30","952041","0.0-20.0-2.0-0.0","15","1","2023-10-29 18:27:31","a725c3012b74bf33a1020a98cb69c237","186.158.228.113","Mozilla/5.0 (Windows NT 10.0; Win64; x64) AppleWebKit/537.36 (KHTML, like Gecko) Chrome/118.0.0.0 Safari/537.36 Edg/118.0.2088.76","WebKit","Edge","118.0.2088.76","Windows","10.0","null","es,es-ES;q=0.9,en;q=0.8,en-GB;q=0.7,en-US;q=0.6","true","null","","null","","","delay_block","","","","","","null","null",""
"","","","","","html-keyboard-response","31","952211","0.0-20.0-2.0-1.0","15","1","2023-10-29 18:27:31","a725c3012b74bf33a1020a98cb69c237","186.158.228.113","Mozilla/5.0 (Windows NT 10.0; Win64; x64) AppleWebKit/537.36 (KHTML, like Gecko) Chrome/118.0.0.0 Safari/537.36 Edg/118.0.2088.76","WebKit","Edge","118.0.2088.76","Windows","10.0","null","es,es-ES;q=0.9,en;q=0.8,en-GB;q=0.7,en-US;q=0.6","true","null","<p id=""stimulus"" style=""font-size:60px;"">sesenta</p>","null","","","tone_number_task_remaining_before_delay","","sesenta","","310","60","null","null",""
"","","","","","html-keyboard-response","32","953196","0.0-20.0-5.0-0.0","15","1","2023-10-29 18:27:31","a725c3012b74bf33a1020a98cb69c237","186.158.228.113","Mozilla/5.0 (Windows NT 10.0; Win64; x64) AppleWebKit/537.36 (KHTML, like Gecko) Chrome/118.0.0.0 Safari/537.36 Edg/118.0.2088.76","WebKit","Edge","118.0.2088.76","Windows","10.0","null","es,es-ES;q=0.9,en;q=0.8,en-GB;q=0.7,en-US;q=0.6","true","982","<p id=""stimulus"" style=""font-size:60px;"">sesenta</p>","k","","","empty_block","","sesenta","","","","null","null",""
"","","","","","html-button-response","33","956581","0.0-22.0","15","1","2023-10-29 18:27:31","a725c3012b74bf33a1020a98cb69c237","186.158.228.113","Mozilla/5.0 (Windows NT 10.0; Win64; x64) AppleWebKit/537.36 (KHTML, like Gecko) Chrome/118.0.0.0 Safari/537.36 Edg/118.0.2088.76","WebKit","Edge","118.0.2088.76","Windows","10.0","null","es,es-ES;q=0.9,en;q=0.8,en-GB;q=0.7,en-US;q=0.6","true","3382","
  <h1> Fin del Entrenamiento </h1>
  <p> ¡Felicitaciones, terminaste el entrenamiento! Ahora vamos a comenzar con el experimento. </p>
  <p> Es importante tener en cuenta que consta de cuatro bloques.</p>
  <p> Podés aprovechar los momentos entre bloques para tomar un breve descanso o tomar agua entre cada uno</p>
  <p> Recordá que tenés que responder lo más rápido que puedas, pero sin equivocarte. </p>
  ","0","","","","","","","","","","",""
"","","","","","external-html","34","965486","0.0-23.0","15","1","2023-10-29 18:27:31","a725c3012b74bf33a1020a98cb69c237","186.158.228.113","Mozilla/5.0 (Windows NT 10.0; Win64; x64) AppleWebKit/537.36 (KHTML, like Gecko) Chrome/118.0.0.0 Safari/537.36 Edg/118.0.2088.76","WebKit","Edge","118.0.2088.76","Windows","10.0","null","es,es-ES;q=0.9,en;q=0.8,en-GB;q=0.7,en-US;q=0.6","true","8473","","","","instructions/instructions_digits_first.html","","","","","","","","",""
"","","","","","call-function","35","965494","0.0-24.0","15","1","2023-10-29 18:27:31","a725c3012b74bf33a1020a98cb69c237","186.158.228.113","Mozilla/5.0 (Windows NT 10.0; Win64; x64) AppleWebKit/537.36 (KHTML, like Gecko) Chrome/118.0.0.0 Safari/537.36 Edg/118.0.2088.76","WebKit","Edge","118.0.2088.76","Windows","10.0","null","es,es-ES;q=0.9,en;q=0.8,en-GB;q=0.7,en-US;q=0.6","true","","","","","","","","","","","","","",""
"","","","","","html-keyboard-response","36","968442","0.0-25.0","15","1","2023-10-29 18:27:31","a725c3012b74bf33a1020a98cb69c237","186.158.228.113","Mozilla/5.0 (Windows NT 10.0; Win64; x64) AppleWebKit/537.36 (KHTML, like Gecko) Chrome/118.0.0.0 Safari/537.36 Edg/118.0.2088.76","WebKit","Edge","118.0.2088.76","Windows","10.0","null","es,es-ES;q=0.9,en;q=0.8,en-GB;q=0.7,en-US;q=0.6","true","null","<div style=""font-size:100px;"">X</div>","null","","","fixation","","","","","","","",""
"","","","","","audio-keyboard-response","37","968596","0.0-26.0","15","1","2023-10-29 18:27:31","a725c3012b74bf33a1020a98cb69c237","186.158.228.113","Mozilla/5.0 (Windows NT 10.0; Win64; x64) AppleWebKit/537.36 (KHTML, like Gecko) Chrome/118.0.0.0 Safari/537.36 Edg/118.0.2088.76","WebKit","Edge","118.0.2088.76","Windows","10.0","null","es,es-ES;q=0.9,en;q=0.8,en-GB;q=0.7,en-US;q=0.6","true","null","tones/440hz_short.mp3","null","","","tone_number_task","0","62","tones/440hz_short.mp3","150","100","0","0",""
"","","","","","html-keyboard-response","38","968960","0.0-29.0-0.0","15","1","2023-10-29 18:27:31","a725c3012b74bf33a1020a98cb69c237","186.158.228.113","Mozilla/5.0 (Windows NT 10.0; Win64; x64) AppleWebKit/537.36 (KHTML, like Gecko) Chrome/118.0.0.0 Safari/537.36 Edg/118.0.2088.76","WebKit","Edge","118.0.2088.76","Windows","10.0","null","es,es-ES;q=0.9,en;q=0.8,en-GB;q=0.7,en-US;q=0.6","true","361","tones/440hz_short.mp3","a","","","empty_block","","62","","","","0","0",""
"","","","","","html-keyboard-response","39","969319","0.0-29.0-1.0","15","1","2023-10-29 18:27:31","a725c3012b74bf33a1020a98cb69c237","186.158.228.113","Mozilla/5.0 (Windows NT 10.0; Win64; x64) AppleWebKit/537.36 (KHTML, like Gecko) Chrome/118.0.0.0 Safari/537.36 Edg/118.0.2088.76","WebKit","Edge","118.0.2088.76","Windows","10.0","null","es,es-ES;q=0.9,en;q=0.8,en-GB;q=0.7,en-US;q=0.6","true","356","tones/440hz_short.mp3","k","","","empty_block","","62","","","","0","0",""
"","","","","","html-keyboard-response","40","972271","0.0-31.0","15","1","2023-10-29 18:27:31","a725c3012b74bf33a1020a98cb69c237","186.158.228.113","Mozilla/5.0 (Windows NT 10.0; Win64; x64) AppleWebKit/537.36 (KHTML, like Gecko) Chrome/118.0.0.0 Safari/537.36 Edg/118.0.2088.76","WebKit","Edge","118.0.2088.76","Windows","10.0","null","es,es-ES;q=0.9,en;q=0.8,en-GB;q=0.7,en-US;q=0.6","true","null","<div style=""font-size:100px;"">X</div>","null","","","fixation","","","","","","","",""
"","","","","","audio-keyboard-response","41","972531","0.0-32.0","15","1","2023-10-29 18:27:31","a725c3012b74bf33a1020a98cb69c237","186.158.228.113","Mozilla/5.0 (Windows NT 10.0; Win64; x64) AppleWebKit/537.36 (KHTML, like Gecko) Chrome/118.0.0.0 Safari/537.36 Edg/118.0.2088.76","WebKit","Edge","118.0.2088.76","Windows","10.0","null","es,es-ES;q=0.9,en;q=0.8,en-GB;q=0.7,en-US;q=0.6","true","null","tones/880hz_short.mp3","null","","","tone_number_task","102.5","59","tones/880hz_short.mp3","252.5","100","0","1",""
"","","","","","html-keyboard-response","42","973199","0.0-35.0-0.0","15","1","2023-10-29 18:27:31","a725c3012b74bf33a1020a98cb69c237","186.158.228.113","Mozilla/5.0 (Windows NT 10.0; Win64; x64) AppleWebKit/537.36 (KHTML, like Gecko) Chrome/118.0.0.0 Safari/537.36 Edg/118.0.2088.76","WebKit","Edge","118.0.2088.76","Windows","10.0","null","es,es-ES;q=0.9,en;q=0.8,en-GB;q=0.7,en-US;q=0.6","true","665","tones/880hz_short.mp3","s","","","empty_block","","59","","","","0","1",""
"","","","","","html-keyboard-response","43","973334","0.0-35.0-1.0","15","1","2023-10-29 18:27:31","a725c3012b74bf33a1020a98cb69c237","186.158.228.113","Mozilla/5.0 (Windows NT 10.0; Win64; x64) AppleWebKit/537.36 (KHTML, like Gecko) Chrome/118.0.0.0 Safari/537.36 Edg/118.0.2088.76","WebKit","Edge","118.0.2088.76","Windows","10.0","null","es,es-ES;q=0.9,en;q=0.8,en-GB;q=0.7,en-US;q=0.6","true","133","tones/880hz_short.mp3","k","","","empty_block","","59","","","","0","1",""
"","","","","","html-keyboard-response","44","976281","0.0-37.0","15","1","2023-10-29 18:27:31","a725c3012b74bf33a1020a98cb69c237","186.158.228.113","Mozilla/5.0 (Windows NT 10.0; Win64; x64) AppleWebKit/537.36 (KHTML, like Gecko) Chrome/118.0.0.0 Safari/537.36 Edg/118.0.2088.76","WebKit","Edge","118.0.2088.76","Windows","10.0","null","es,es-ES;q=0.9,en;q=0.8,en-GB;q=0.7,en-US;q=0.6","true","null","<div style=""font-size:100px;"">X</div>","null","","","fixation","","","","","","","",""
"","","","","","audio-keyboard-response","45","976541","0.0-38.0","15","1","2023-10-29 18:27:31","a725c3012b74bf33a1020a98cb69c237","186.158.228.113","Mozilla/5.0 (Windows NT 10.0; Win64; x64) AppleWebKit/537.36 (KHTML, like Gecko) Chrome/118.0.0.0 Safari/537.36 Edg/118.0.2088.76","WebKit","Edge","118.0.2088.76","Windows","10.0","null","es,es-ES;q=0.9,en;q=0.8,en-GB;q=0.7,en-US;q=0.6","true","null","tones/440hz_short.mp3","null","","","tone_number_task","102.5","40","tones/440hz_short.mp3","252.5","100","0","2",""
"","","","","","html-keyboard-response","46","977171","0.0-41.0-0.0","15","1","2023-10-29 18:27:31","a725c3012b74bf33a1020a98cb69c237","186.158.228.113","Mozilla/5.0 (Windows NT 10.0; Win64; x64) AppleWebKit/537.36 (KHTML, like Gecko) Chrome/118.0.0.0 Safari/537.36 Edg/118.0.2088.76","WebKit","Edge","118.0.2088.76","Windows","10.0","null","es,es-ES;q=0.9,en;q=0.8,en-GB;q=0.7,en-US;q=0.6","true","628","tones/440hz_short.mp3","a","","","empty_block","","40","","","","0","2",""
"","","","","","html-keyboard-response","47","977348","0.0-41.0-1.0","15","1","2023-10-29 18:27:31","a725c3012b74bf33a1020a98cb69c237","186.158.228.113","Mozilla/5.0 (Windows NT 10.0; Win64; x64) AppleWebKit/537.36 (KHTML, like Gecko) Chrome/118.0.0.0 Safari/537.36 Edg/118.0.2088.76","WebKit","Edge","118.0.2088.76","Windows","10.0","null","es,es-ES;q=0.9,en;q=0.8,en-GB;q=0.7,en-US;q=0.6","true","174","tones/440hz_short.mp3","j","","","empty_block","","40","","","","0","2",""
"","","","","","html-keyboard-response","48","980302","0.0-43.0","15","1","2023-10-29 18:27:31","a725c3012b74bf33a1020a98cb69c237","186.158.228.113","Mozilla/5.0 (Windows NT 10.0; Win64; x64) AppleWebKit/537.36 (KHTML, like Gecko) Chrome/118.0.0.0 Safari/537.36 Edg/118.0.2088.76","WebKit","Edge","118.0.2088.76","Windows","10.0","null","es,es-ES;q=0.9,en;q=0.8,en-GB;q=0.7,en-US;q=0.6","true","null","<div style=""font-size:100px;"">X</div>","null","","","fixation","","","","","","","",""
"","","","","","audio-keyboard-response","49","980461","0.0-44.0","15","1","2023-10-29 18:27:31","a725c3012b74bf33a1020a98cb69c237","186.158.228.113","Mozilla/5.0 (Windows NT 10.0; Win64; x64) AppleWebKit/537.36 (KHTML, like Gecko) Chrome/118.0.0.0 Safari/537.36 Edg/118.0.2088.76","WebKit","Edge","118.0.2088.76","Windows","10.0","null","es,es-ES;q=0.9,en;q=0.8,en-GB;q=0.7,en-US;q=0.6","true","null","tones/880hz_short.mp3","null","","","tone_number_task","0","50","tones/880hz_short.mp3","150","100","0","3",""
"","","","","","html-keyboard-response","50","981341","0.0-47.0-0.0","15","1","2023-10-29 18:27:31","a725c3012b74bf33a1020a98cb69c237","186.158.228.113","Mozilla/5.0 (Windows NT 10.0; Win64; x64) AppleWebKit/537.36 (KHTML, like Gecko) Chrome/118.0.0.0 Safari/537.36 Edg/118.0.2088.76","WebKit","Edge","118.0.2088.76","Windows","10.0","null","es,es-ES;q=0.9,en;q=0.8,en-GB;q=0.7,en-US;q=0.6","true","877","tones/880hz_short.mp3","s","","","empty_block","","50","","","","0","3",""
"","","","","","html-keyboard-response","51","981792","0.0-47.0-1.0","15","1","2023-10-29 18:27:31","a725c3012b74bf33a1020a98cb69c237","186.158.228.113","Mozilla/5.0 (Windows NT 10.0; Win64; x64) AppleWebKit/537.36 (KHTML, like Gecko) Chrome/118.0.0.0 Safari/537.36 Edg/118.0.2088.76","WebKit","Edge","118.0.2088.76","Windows","10.0","null","es,es-ES;q=0.9,en;q=0.8,en-GB;q=0.7,en-US;q=0.6","true","448","tones/880hz_short.mp3","k","","","empty_block","","50","","","","0","3",""
"","","","","","html-keyboard-response","52","984742","0.0-49.0","15","1","2023-10-29 18:27:31","a725c3012b74bf33a1020a98cb69c237","186.158.228.113","Mozilla/5.0 (Windows NT 10.0; Win64; x64) AppleWebKit/537.36 (KHTML, like Gecko) Chrome/118.0.0.0 Safari/537.36 Edg/118.0.2088.76","WebKit","Edge","118.0.2088.76","Windows","10.0","null","es,es-ES;q=0.9,en;q=0.8,en-GB;q=0.7,en-US;q=0.6","true","null","<div style=""font-size:100px;"">X</div>","null","","","fixation","","","","","","","",""
"","","","","","audio-keyboard-response","53","984901","0.0-50.0","15","1","2023-10-29 18:27:31","a725c3012b74bf33a1020a98cb69c237","186.158.228.113","Mozilla/5.0 (Windows NT 10.0; Win64; x64) AppleWebKit/537.36 (KHTML, like Gecko) Chrome/118.0.0.0 Safari/537.36 Edg/118.0.2088.76","WebKit","Edge","118.0.2088.76","Windows","10.0","null","es,es-ES;q=0.9,en;q=0.8,en-GB;q=0.7,en-US;q=0.6","true","null","tones/880hz_short.mp3","null","","","tone_number_task","0","54","tones/880hz_short.mp3","150","100","0","4",""
"","","","","","html-keyboard-response","54","985756","0.0-53.0-0.0","15","1","2023-10-29 18:27:31","a725c3012b74bf33a1020a98cb69c237","186.158.228.113","Mozilla/5.0 (Windows NT 10.0; Win64; x64) AppleWebKit/537.36 (KHTML, like Gecko) Chrome/118.0.0.0 Safari/537.36 Edg/118.0.2088.76","WebKit","Edge","118.0.2088.76","Windows","10.0","null","es,es-ES;q=0.9,en;q=0.8,en-GB;q=0.7,en-US;q=0.6","true","851","tones/880hz_short.mp3","s","","","empty_block","","54","","","","0","4",""
"","","","","","html-keyboard-response","55","985882","0.0-53.0-1.0","15","1","2023-10-29 18:27:31","a725c3012b74bf33a1020a98cb69c237","186.158.228.113","Mozilla/5.0 (Windows NT 10.0; Win64; x64) AppleWebKit/537.36 (KHTML, like Gecko) Chrome/118.0.0.0 Safari/537.36 Edg/118.0.2088.76","WebKit","Edge","118.0.2088.76","Windows","10.0","null","es,es-ES;q=0.9,en;q=0.8,en-GB;q=0.7,en-US;q=0.6","true","122","tones/880hz_short.mp3","k","","","empty_block","","54","","","","0","4",""
"","","","","","html-keyboard-response","56","988832","0.0-55.0","15","1","2023-10-29 18:27:31","a725c3012b74bf33a1020a98cb69c237","186.158.228.113","Mozilla/5.0 (Windows NT 10.0; Win64; x64) AppleWebKit/537.36 (KHTML, like Gecko) Chrome/118.0.0.0 Safari/537.36 Edg/118.0.2088.76","WebKit","Edge","118.0.2088.76","Windows","10.0","null","es,es-ES;q=0.9,en;q=0.8,en-GB;q=0.7,en-US;q=0.6","true","null","<div style=""font-size:100px;"">X</div>","null","","","fixation","","","","","","","",""
"","","","","","audio-keyboard-response","57","989091","0.0-56.0","15","1","2023-10-29 18:27:31","a725c3012b74bf33a1020a98cb69c237","186.158.228.113","Mozilla/5.0 (Windows NT 10.0; Win64; x64) AppleWebKit/537.36 (KHTML, like Gecko) Chrome/118.0.0.0 Safari/537.36 Edg/118.0.2088.76","WebKit","Edge","118.0.2088.76","Windows","10.0","null","es,es-ES;q=0.9,en;q=0.8,en-GB;q=0.7,en-US;q=0.6","true","null","tones/880hz_short.mp3","null","","","tone_number_task","102.5","25","tones/880hz_short.mp3","252.5","100","0","5",""
"","","","","","html-keyboard-response","58","990301","0.0-59.0-0.0","15","1","2023-10-29 18:27:31","a725c3012b74bf33a1020a98cb69c237","186.158.228.113","Mozilla/5.0 (Windows NT 10.0; Win64; x64) AppleWebKit/537.36 (KHTML, like Gecko) Chrome/118.0.0.0 Safari/537.36 Edg/118.0.2088.76","WebKit","Edge","118.0.2088.76","Windows","10.0","null","es,es-ES;q=0.9,en;q=0.8,en-GB;q=0.7,en-US;q=0.6","true","null","tones/880hz_short.mp3","null","","","empty_block","","25","","","","0","5",""
"","","","","","html-keyboard-response","59","990811","0.0-59.0-1.0","15","1","2023-10-29 18:27:31","a725c3012b74bf33a1020a98cb69c237","186.158.228.113","Mozilla/5.0 (Windows NT 10.0; Win64; x64) AppleWebKit/537.36 (KHTML, like Gecko) Chrome/118.0.0.0 Safari/537.36 Edg/118.0.2088.76","WebKit","Edge","118.0.2088.76","Windows","10.0","null","es,es-ES;q=0.9,en;q=0.8,en-GB;q=0.7,en-US;q=0.6","true","507","tones/880hz_short.mp3","s","","","empty_block","","25","","","","0","5",""
"","","","","","html-keyboard-response","60","993762","0.0-61.0","15","1","2023-10-29 18:27:31","a725c3012b74bf33a1020a98cb69c237","186.158.228.113","Mozilla/5.0 (Windows NT 10.0; Win64; x64) AppleWebKit/537.36 (KHTML, like Gecko) Chrome/118.0.0.0 Safari/537.36 Edg/118.0.2088.76","WebKit","Edge","118.0.2088.76","Windows","10.0","null","es,es-ES;q=0.9,en;q=0.8,en-GB;q=0.7,en-US;q=0.6","true","null","<div style=""font-size:100px;"">X</div>","null","","","fixation","","","","","","","",""
"","","","","","audio-keyboard-response","61","994911","0.0-62.0","15","1","2023-10-29 18:27:31","a725c3012b74bf33a1020a98cb69c237","186.158.228.113","Mozilla/5.0 (Windows NT 10.0; Win64; x64) AppleWebKit/537.36 (KHTML, like Gecko) Chrome/118.0.0.0 Safari/537.36 Edg/118.0.2088.76","WebKit","Edge","118.0.2088.76","Windows","10.0","null","es,es-ES;q=0.9,en;q=0.8,en-GB;q=0.7,en-US;q=0.6","true","null","tones/880hz_short.mp3","null","","","tone_number_task","992.5","39","tones/880hz_short.mp3","1142.5","100","0","6",""
"","","","","","html-keyboard-response","62","995058","0.0-65.0-0.0","15","1","2023-10-29 18:27:31","a725c3012b74bf33a1020a98cb69c237","186.158.228.113","Mozilla/5.0 (Windows NT 10.0; Win64; x64) AppleWebKit/537.36 (KHTML, like Gecko) Chrome/118.0.0.0 Safari/537.36 Edg/118.0.2088.76","WebKit","Edge","118.0.2088.76","Windows","10.0","null","es,es-ES;q=0.9,en;q=0.8,en-GB;q=0.7,en-US;q=0.6","true","143","tones/880hz_short.mp3","s","","","empty_block","","39","","","","0","6",""
"","","","","","html-keyboard-response","63","995397","0.0-65.0-1.0","15","1","2023-10-29 18:27:31","a725c3012b74bf33a1020a98cb69c237","186.158.228.113","Mozilla/5.0 (Windows NT 10.0; Win64; x64) AppleWebKit/537.36 (KHTML, like Gecko) Chrome/118.0.0.0 Safari/537.36 Edg/118.0.2088.76","WebKit","Edge","118.0.2088.76","Windows","10.0","null","es,es-ES;q=0.9,en;q=0.8,en-GB;q=0.7,en-US;q=0.6","true","335","tones/880hz_short.mp3","j","","","empty_block","","39","","","","0","6",""
"","","","","","html-keyboard-response","64","998342","0.0-67.0","15","1","2023-10-29 18:27:31","a725c3012b74bf33a1020a98cb69c237","186.158.228.113","Mozilla/5.0 (Windows NT 10.0; Win64; x64) AppleWebKit/537.36 (KHTML, like Gecko) Chrome/118.0.0.0 Safari/537.36 Edg/118.0.2088.76","WebKit","Edge","118.0.2088.76","Windows","10.0","null","es,es-ES;q=0.9,en;q=0.8,en-GB;q=0.7,en-US;q=0.6","true","null","<div style=""font-size:100px;"">X</div>","null","","","fixation","","","","","","","",""
"","","","","","audio-keyboard-response","65","998602","0.0-68.0","15","1","2023-10-29 18:27:31","a725c3012b74bf33a1020a98cb69c237","186.158.228.113","Mozilla/5.0 (Windows NT 10.0; Win64; x64) AppleWebKit/537.36 (KHTML, like Gecko) Chrome/118.0.0.0 Safari/537.36 Edg/118.0.2088.76","WebKit","Edge","118.0.2088.76","Windows","10.0","null","es,es-ES;q=0.9,en;q=0.8,en-GB;q=0.7,en-US;q=0.6","true","null","tones/880hz_short.mp3","null","","","tone_number_task","102.5","64","tones/880hz_short.mp3","252.5","100","0","7",""
"","","","","","html-keyboard-response","66","999225","0.0-71.0-0.0","15","1","2023-10-29 18:27:31","a725c3012b74bf33a1020a98cb69c237","186.158.228.113","Mozilla/5.0 (Windows NT 10.0; Win64; x64) AppleWebKit/537.36 (KHTML, like Gecko) Chrome/118.0.0.0 Safari/537.36 Edg/118.0.2088.76","WebKit","Edge","118.0.2088.76","Windows","10.0","null","es,es-ES;q=0.9,en;q=0.8,en-GB;q=0.7,en-US;q=0.6","true","619","tones/880hz_short.mp3","s","","","empty_block","","64","","","","0","7",""
"","","","","","html-keyboard-response","67","999384","0.0-71.0-1.0","15","1","2023-10-29 18:27:31","a725c3012b74bf33a1020a98cb69c237","186.158.228.113","Mozilla/5.0 (Windows NT 10.0; Win64; x64) AppleWebKit/537.36 (KHTML, like Gecko) Chrome/118.0.0.0 Safari/537.36 Edg/118.0.2088.76","WebKit","Edge","118.0.2088.76","Windows","10.0","null","es,es-ES;q=0.9,en;q=0.8,en-GB;q=0.7,en-US;q=0.6","true","156","tones/880hz_short.mp3","k","","","empty_block","","64","","","","0","7",""
"","","","","","html-keyboard-response","68","1002331","0.0-73.0","15","1","2023-10-29 18:27:31","a725c3012b74bf33a1020a98cb69c237","186.158.228.113","Mozilla/5.0 (Windows NT 10.0; Win64; x64) AppleWebKit/537.36 (KHTML, like Gecko) Chrome/118.0.0.0 Safari/537.36 Edg/118.0.2088.76","WebKit","Edge","118.0.2088.76","Windows","10.0","null","es,es-ES;q=0.9,en;q=0.8,en-GB;q=0.7,en-US;q=0.6","true","null","<div style=""font-size:100px;"">X</div>","null","","","fixation","","","","","","","",""
"","","","","","audio-keyboard-response","69","1003248","0.0-74.0","15","1","2023-10-29 18:27:31","a725c3012b74bf33a1020a98cb69c237","186.158.228.113","Mozilla/5.0 (Windows NT 10.0; Win64; x64) AppleWebKit/537.36 (KHTML, like Gecko) Chrome/118.0.0.0 Safari/537.36 Edg/118.0.2088.76","WebKit","Edge","118.0.2088.76","Windows","10.0","null","es,es-ES;q=0.9,en;q=0.8,en-GB;q=0.7,en-US;q=0.6","true","909","tones/880hz_short.mp3","s","","","tone_number_task","992.5","65","tones/880hz_short.mp3","1142.5","100","0","8",""
"","","","","","html-keyboard-response","70","1003342","0.0-75.0-0.0","15","1","2023-10-29 18:27:31","a725c3012b74bf33a1020a98cb69c237","186.158.228.113","Mozilla/5.0 (Windows NT 10.0; Win64; x64) AppleWebKit/537.36 (KHTML, like Gecko) Chrome/118.0.0.0 Safari/537.36 Edg/118.0.2088.76","WebKit","Edge","118.0.2088.76","Windows","10.0","null","es,es-ES;q=0.9,en;q=0.8,en-GB;q=0.7,en-US;q=0.6","true","null","","null","","","delay_block","","","","","","0","8",""
"","","","","","html-keyboard-response","71","1003502","0.0-75.0-1.0","15","1","2023-10-29 18:27:31","a725c3012b74bf33a1020a98cb69c237","186.158.228.113","Mozilla/5.0 (Windows NT 10.0; Win64; x64) AppleWebKit/537.36 (KHTML, like Gecko) Chrome/118.0.0.0 Safari/537.36 Edg/118.0.2088.76","WebKit","Edge","118.0.2088.76","Windows","10.0","null","es,es-ES;q=0.9,en;q=0.8,en-GB;q=0.7,en-US;q=0.6","true","null","<p id=""stimulus"" style=""font-size:100px;"">65</p>","null","","","tone_number_task_remaining_before_delay","","65","","233.5","100","0","8",""
"","","","","","html-keyboard-response","72","1003840","0.0-78.0-0.0","15","1","2023-10-29 18:27:31","a725c3012b74bf33a1020a98cb69c237","186.158.228.113","Mozilla/5.0 (Windows NT 10.0; Win64; x64) AppleWebKit/537.36 (KHTML, like Gecko) Chrome/118.0.0.0 Safari/537.36 Edg/118.0.2088.76","WebKit","Edge","118.0.2088.76","Windows","10.0","null","es,es-ES;q=0.9,en;q=0.8,en-GB;q=0.7,en-US;q=0.6","true","335","<p id=""stimulus"" style=""font-size:100px;"">65</p>","k","","","empty_block","","65","","","","0","8",""
"","","","","","html-keyboard-response","73","1006791","0.0-79.0","15","1","2023-10-29 18:27:31","a725c3012b74bf33a1020a98cb69c237","186.158.228.113","Mozilla/5.0 (Windows NT 10.0; Win64; x64) AppleWebKit/537.36 (KHTML, like Gecko) Chrome/118.0.0.0 Safari/537.36 Edg/118.0.2088.76","WebKit","Edge","118.0.2088.76","Windows","10.0","null","es,es-ES;q=0.9,en;q=0.8,en-GB;q=0.7,en-US;q=0.6","true","null","<div style=""font-size:100px;"">X</div>","null","","","fixation","","","","","","","",""
"","","","","","audio-keyboard-response","74","1007971","0.0-80.0","15","1","2023-10-29 18:27:31","a725c3012b74bf33a1020a98cb69c237","186.158.228.113","Mozilla/5.0 (Windows NT 10.0; Win64; x64) AppleWebKit/537.36 (KHTML, like Gecko) Chrome/118.0.0.0 Safari/537.36 Edg/118.0.2088.76","WebKit","Edge","118.0.2088.76","Windows","10.0","null","es,es-ES;q=0.9,en;q=0.8,en-GB;q=0.7,en-US;q=0.6","true","null","tones/880hz_short.mp3","null","","","tone_number_task","1025","43","tones/880hz_short.mp3","1175","100","0","9",""
"","","","","","html-keyboard-response","75","1008293","0.0-83.0-0.0","15","1","2023-10-29 18:27:31","a725c3012b74bf33a1020a98cb69c237","186.158.228.113","Mozilla/5.0 (Windows NT 10.0; Win64; x64) AppleWebKit/537.36 (KHTML, like Gecko) Chrome/118.0.0.0 Safari/537.36 Edg/118.0.2088.76","WebKit","Edge","118.0.2088.76","Windows","10.0","null","es,es-ES;q=0.9,en;q=0.8,en-GB;q=0.7,en-US;q=0.6","true","317","tones/880hz_short.mp3","s","","","empty_block","","43","","","","0","9",""
"","","","","","html-keyboard-response","76","1008628","0.0-83.0-1.0","15","1","2023-10-29 18:27:31","a725c3012b74bf33a1020a98cb69c237","186.158.228.113","Mozilla/5.0 (Windows NT 10.0; Win64; x64) AppleWebKit/537.36 (KHTML, like Gecko) Chrome/118.0.0.0 Safari/537.36 Edg/118.0.2088.76","WebKit","Edge","118.0.2088.76","Windows","10.0","null","es,es-ES;q=0.9,en;q=0.8,en-GB;q=0.7,en-US;q=0.6","true","331","tones/880hz_short.mp3","j","","","empty_block","","43","","","","0","9",""
"","","","","","html-keyboard-response","77","1011581","0.0-85.0","15","1","2023-10-29 18:27:31","a725c3012b74bf33a1020a98cb69c237","186.158.228.113","Mozilla/5.0 (Windows NT 10.0; Win64; x64) AppleWebKit/537.36 (KHTML, like Gecko) Chrome/118.0.0.0 Safari/537.36 Edg/118.0.2088.76","WebKit","Edge","118.0.2088.76","Windows","10.0","null","es,es-ES;q=0.9,en;q=0.8,en-GB;q=0.7,en-US;q=0.6","true","null","<div style=""font-size:100px;"">X</div>","null","","","fixation","","","","","","","",""
"","","","","","audio-keyboard-response","78","1012731","0.0-86.0","15","1","2023-10-29 18:27:31","a725c3012b74bf33a1020a98cb69c237","186.158.228.113","Mozilla/5.0 (Windows NT 10.0; Win64; x64) AppleWebKit/537.36 (KHTML, like Gecko) Chrome/118.0.0.0 Safari/537.36 Edg/118.0.2088.76","WebKit","Edge","118.0.2088.76","Windows","10.0","null","es,es-ES;q=0.9,en;q=0.8,en-GB;q=0.7,en-US;q=0.6","true","null","tones/440hz_short.mp3","null","","","tone_number_task","992.5","68","tones/440hz_short.mp3","1142.5","100","0","10",""
"","","","","","html-keyboard-response","79","1013181","0.0-89.0-0.0","15","1","2023-10-29 18:27:31","a725c3012b74bf33a1020a98cb69c237","186.158.228.113","Mozilla/5.0 (Windows NT 10.0; Win64; x64) AppleWebKit/537.36 (KHTML, like Gecko) Chrome/118.0.0.0 Safari/537.36 Edg/118.0.2088.76","WebKit","Edge","118.0.2088.76","Windows","10.0","null","es,es-ES;q=0.9,en;q=0.8,en-GB;q=0.7,en-US;q=0.6","true","445","tones/440hz_short.mp3","a","","","empty_block","","68","","","","0","10",""
"","","","","","html-keyboard-response","80","1013378","0.0-89.0-1.0","15","1","2023-10-29 18:27:31","a725c3012b74bf33a1020a98cb69c237","186.158.228.113","Mozilla/5.0 (Windows NT 10.0; Win64; x64) AppleWebKit/537.36 (KHTML, like Gecko) Chrome/118.0.0.0 Safari/537.36 Edg/118.0.2088.76","WebKit","Edge","118.0.2088.76","Windows","10.0","null","es,es-ES;q=0.9,en;q=0.8,en-GB;q=0.7,en-US;q=0.6","true","192","tones/440hz_short.mp3","k","","","empty_block","","68","","","","0","10",""
"","","","","","html-keyboard-response","81","1016332","0.0-91.0","15","1","2023-10-29 18:27:31","a725c3012b74bf33a1020a98cb69c237","186.158.228.113","Mozilla/5.0 (Windows NT 10.0; Win64; x64) AppleWebKit/537.36 (KHTML, like Gecko) Chrome/118.0.0.0 Safari/537.36 Edg/118.0.2088.76","WebKit","Edge","118.0.2088.76","Windows","10.0","null","es,es-ES;q=0.9,en;q=0.8,en-GB;q=0.7,en-US;q=0.6","true","null","<div style=""font-size:100px;"">X</div>","null","","","fixation","","","","","","","",""
"","","","","","audio-keyboard-response","82","1016492","0.0-92.0","15","1","2023-10-29 18:27:31","a725c3012b74bf33a1020a98cb69c237","186.158.228.113","Mozilla/5.0 (Windows NT 10.0; Win64; x64) AppleWebKit/537.36 (KHTML, like Gecko) Chrome/118.0.0.0 Safari/537.36 Edg/118.0.2088.76","WebKit","Edge","118.0.2088.76","Windows","10.0","null","es,es-ES;q=0.9,en;q=0.8,en-GB;q=0.7,en-US;q=0.6","true","null","tones/880hz_short.mp3","null","","","tone_number_task","0","53","tones/880hz_short.mp3","150","100","0","11",""
"","","","","","html-keyboard-response","83","1017690","0.0-95.0-0.0","15","1","2023-10-29 18:27:31","a725c3012b74bf33a1020a98cb69c237","186.158.228.113","Mozilla/5.0 (Windows NT 10.0; Win64; x64) AppleWebKit/537.36 (KHTML, like Gecko) Chrome/118.0.0.0 Safari/537.36 Edg/118.0.2088.76","WebKit","Edge","118.0.2088.76","Windows","10.0","null","es,es-ES;q=0.9,en;q=0.8,en-GB;q=0.7,en-US;q=0.6","true","1194","tones/880hz_short.mp3","s","","","empty_block","","53","","","","0","11",""
"","","","","","html-keyboard-response","84","1017801","0.0-95.0-1.0","15","1","2023-10-29 18:27:31","a725c3012b74bf33a1020a98cb69c237","186.158.228.113","Mozilla/5.0 (Windows NT 10.0; Win64; x64) AppleWebKit/537.36 (KHTML, like Gecko) Chrome/118.0.0.0 Safari/537.36 Edg/118.0.2088.76","WebKit","Edge","118.0.2088.76","Windows","10.0","null","es,es-ES;q=0.9,en;q=0.8,en-GB;q=0.7,en-US;q=0.6","true","106","tones/880hz_short.mp3","k","","","empty_block","","53","","","","0","11",""
"","","","","","html-keyboard-response","85","1020752","0.0-97.0","15","1","2023-10-29 18:27:31","a725c3012b74bf33a1020a98cb69c237","186.158.228.113","Mozilla/5.0 (Windows NT 10.0; Win64; x64) AppleWebKit/537.36 (KHTML, like Gecko) Chrome/118.0.0.0 Safari/537.36 Edg/118.0.2088.76","WebKit","Edge","118.0.2088.76","Windows","10.0","null","es,es-ES;q=0.9,en;q=0.8,en-GB;q=0.7,en-US;q=0.6","true","null","<div style=""font-size:100px;"">X</div>","null","","","fixation","","","","","","","",""
"","","","","","audio-keyboard-response","86","1021896","0.0-98.0","15","1","2023-10-29 18:27:31","a725c3012b74bf33a1020a98cb69c237","186.158.228.113","Mozilla/5.0 (Windows NT 10.0; Win64; x64) AppleWebKit/537.36 (KHTML, like Gecko) Chrome/118.0.0.0 Safari/537.36 Edg/118.0.2088.76","WebKit","Edge","118.0.2088.76","Windows","10.0","null","es,es-ES;q=0.9,en;q=0.8,en-GB;q=0.7,en-US;q=0.6","true","1141","tones/440hz_short.mp3","a","","","tone_number_task","1025","29","tones/440hz_short.mp3","1175","100","0","12",""
"","","","","","html-keyboard-response","87","1021941","0.0-100.0-0.0","15","1","2023-10-29 18:27:31","a725c3012b74bf33a1020a98cb69c237","186.158.228.113","Mozilla/5.0 (Windows NT 10.0; Win64; x64) AppleWebKit/537.36 (KHTML, like Gecko) Chrome/118.0.0.0 Safari/537.36 Edg/118.0.2088.76","WebKit","Edge","118.0.2088.76","Windows","10.0","null","es,es-ES;q=0.9,en;q=0.8,en-GB;q=0.7,en-US;q=0.6","true","null","<p id=""stimulus"" style=""font-size:100px;"">29</p>","null","","","tone_number_task_remaining_after_delay","","29","","","100","0","12",""
"","","","","","html-keyboard-response","88","1022286","0.0-102.0-0.0","15","1","2023-10-29 18:27:31","a725c3012b74bf33a1020a98cb69c237","186.158.228.113","Mozilla/5.0 (Windows NT 10.0; Win64; x64) AppleWebKit/537.36 (KHTML, like Gecko) Chrome/118.0.0.0 Safari/537.36 Edg/118.0.2088.76","WebKit","Edge","118.0.2088.76","Windows","10.0","null","es,es-ES;q=0.9,en;q=0.8,en-GB;q=0.7,en-US;q=0.6","true","340","<p id=""stimulus"" style=""font-size:100px;"">29</p>","j","","","empty_block","","29","","","","0","12",""
"","","","","","html-keyboard-response","89","1025232","0.0-103.0","15","1","2023-10-29 18:27:31","a725c3012b74bf33a1020a98cb69c237","186.158.228.113","Mozilla/5.0 (Windows NT 10.0; Win64; x64) AppleWebKit/537.36 (KHTML, like Gecko) Chrome/118.0.0.0 Safari/537.36 Edg/118.0.2088.76","WebKit","Edge","118.0.2088.76","Windows","10.0","null","es,es-ES;q=0.9,en;q=0.8,en-GB;q=0.7,en-US;q=0.6","true","null","<div style=""font-size:100px;"">X</div>","null","","","fixation","","","","","","","",""
"","","","","","audio-keyboard-response","90","1026381","0.0-104.0","15","1","2023-10-29 18:27:31","a725c3012b74bf33a1020a98cb69c237","186.158.228.113","Mozilla/5.0 (Windows NT 10.0; Win64; x64) AppleWebKit/537.36 (KHTML, like Gecko) Chrome/118.0.0.0 Safari/537.36 Edg/118.0.2088.76","WebKit","Edge","118.0.2088.76","Windows","10.0","null","es,es-ES;q=0.9,en;q=0.8,en-GB;q=0.7,en-US;q=0.6","true","null","tones/440hz_short.mp3","null","","","tone_number_task","992.5","31","tones/440hz_short.mp3","1142.5","100","0","13",""
"","","","","","html-keyboard-response","91","1027035","0.0-107.0-0.0","15","1","2023-10-29 18:27:31","a725c3012b74bf33a1020a98cb69c237","186.158.228.113","Mozilla/5.0 (Windows NT 10.0; Win64; x64) AppleWebKit/537.36 (KHTML, like Gecko) Chrome/118.0.0.0 Safari/537.36 Edg/118.0.2088.76","WebKit","Edge","118.0.2088.76","Windows","10.0","null","es,es-ES;q=0.9,en;q=0.8,en-GB;q=0.7,en-US;q=0.6","true","648","tones/440hz_short.mp3","a","","","empty_block","","31","","","","0","13",""
"","","","","","html-keyboard-response","92","1027145","0.0-107.0-1.0","15","1","2023-10-29 18:27:31","a725c3012b74bf33a1020a98cb69c237","186.158.228.113","Mozilla/5.0 (Windows NT 10.0; Win64; x64) AppleWebKit/537.36 (KHTML, like Gecko) Chrome/118.0.0.0 Safari/537.36 Edg/118.0.2088.76","WebKit","Edge","118.0.2088.76","Windows","10.0","null","es,es-ES;q=0.9,en;q=0.8,en-GB;q=0.7,en-US;q=0.6","true","107","tones/440hz_short.mp3","j","","","empty_block","","31","","","","0","13",""
"","","","","","html-keyboard-response","93","1030091","0.0-109.0","15","1","2023-10-29 18:27:31","a725c3012b74bf33a1020a98cb69c237","186.158.228.113","Mozilla/5.0 (Windows NT 10.0; Win64; x64) AppleWebKit/537.36 (KHTML, like Gecko) Chrome/118.0.0.0 Safari/537.36 Edg/118.0.2088.76","WebKit","Edge","118.0.2088.76","Windows","10.0","null","es,es-ES;q=0.9,en;q=0.8,en-GB;q=0.7,en-US;q=0.6","true","null","<div style=""font-size:100px;"">X</div>","null","","","fixation","","","","","","","",""
"","","","","","audio-keyboard-response","94","1030774","0.0-110.0","15","1","2023-10-29 18:27:31","a725c3012b74bf33a1020a98cb69c237","186.158.228.113","Mozilla/5.0 (Windows NT 10.0; Win64; x64) AppleWebKit/537.36 (KHTML, like Gecko) Chrome/118.0.0.0 Safari/537.36 Edg/118.0.2088.76","WebKit","Edge","118.0.2088.76","Windows","10.0","null","es,es-ES;q=0.9,en;q=0.8,en-GB;q=0.7,en-US;q=0.6","true","680","tones/880hz_short.mp3","s","","","tone_number_task","992.5","53","tones/880hz_short.mp3","1142.5","100","0","14",""
"","","","","","html-keyboard-response","95","1031092","0.0-111.0-0.0","15","1","2023-10-29 18:27:31","a725c3012b74bf33a1020a98cb69c237","186.158.228.113","Mozilla/5.0 (Windows NT 10.0; Win64; x64) AppleWebKit/537.36 (KHTML, like Gecko) Chrome/118.0.0.0 Safari/537.36 Edg/118.0.2088.76","WebKit","Edge","118.0.2088.76","Windows","10.0","null","es,es-ES;q=0.9,en;q=0.8,en-GB;q=0.7,en-US;q=0.6","true","null","","null","","","delay_block","","","","","","0","14",""
"","","","","","html-keyboard-response","96","1031251","0.0-111.0-1.0","15","1","2023-10-29 18:27:31","a725c3012b74bf33a1020a98cb69c237","186.158.228.113","Mozilla/5.0 (Windows NT 10.0; Win64; x64) AppleWebKit/537.36 (KHTML, like Gecko) Chrome/118.0.0.0 Safari/537.36 Edg/118.0.2088.76","WebKit","Edge","118.0.2088.76","Windows","10.0","null","es,es-ES;q=0.9,en;q=0.8,en-GB;q=0.7,en-US;q=0.6","true","null","<p id=""stimulus"" style=""font-size:100px;"">53</p>","null","","","tone_number_task_remaining_before_delay","","53","","462.5","100","0","14",""
"","","","","","html-keyboard-response","97","1031650","0.0-114.0-0.0","15","1","2023-10-29 18:27:31","a725c3012b74bf33a1020a98cb69c237","186.158.228.113","Mozilla/5.0 (Windows NT 10.0; Win64; x64) AppleWebKit/537.36 (KHTML, like Gecko) Chrome/118.0.0.0 Safari/537.36 Edg/118.0.2088.76","WebKit","Edge","118.0.2088.76","Windows","10.0","null","es,es-ES;q=0.9,en;q=0.8,en-GB;q=0.7,en-US;q=0.6","true","394","<p id=""stimulus"" style=""font-size:100px;"">53</p>","k","","","empty_block","","53","","","","0","14",""
"","","","","","html-keyboard-response","98","1034602","0.0-115.0","15","1","2023-10-29 18:27:31","a725c3012b74bf33a1020a98cb69c237","186.158.228.113","Mozilla/5.0 (Windows NT 10.0; Win64; x64) AppleWebKit/537.36 (KHTML, like Gecko) Chrome/118.0.0.0 Safari/537.36 Edg/118.0.2088.76","WebKit","Edge","118.0.2088.76","Windows","10.0","null","es,es-ES;q=0.9,en;q=0.8,en-GB;q=0.7,en-US;q=0.6","true","null","<div style=""font-size:100px;"">X</div>","null","","","fixation","","","","","","","",""
"","","","","","audio-keyboard-response","99","1035628","0.0-116.0","15","1","2023-10-29 18:27:31","a725c3012b74bf33a1020a98cb69c237","186.158.228.113","Mozilla/5.0 (Windows NT 10.0; Win64; x64) AppleWebKit/537.36 (KHTML, like Gecko) Chrome/118.0.0.0 Safari/537.36 Edg/118.0.2088.76","WebKit","Edge","118.0.2088.76","Windows","10.0","null","es,es-ES;q=0.9,en;q=0.8,en-GB;q=0.7,en-US;q=0.6","true","1019","tones/880hz_short.mp3","s","","","tone_number_task","992.5","31","tones/880hz_short.mp3","1142.5","100","0","15",""
"","","","","","html-keyboard-response","100","1035772","0.0-118.0-0.0","15","1","2023-10-29 18:27:31","a725c3012b74bf33a1020a98cb69c237","186.158.228.113","Mozilla/5.0 (Windows NT 10.0; Win64; x64) AppleWebKit/537.36 (KHTML, like Gecko) Chrome/118.0.0.0 Safari/537.36 Edg/118.0.2088.76","WebKit","Edge","118.0.2088.76","Windows","10.0","null","es,es-ES;q=0.9,en;q=0.8,en-GB;q=0.7,en-US;q=0.6","true","null","<p id=""stimulus"" style=""font-size:100px;"">31</p>","null","","","tone_number_task_remaining_after_delay","","31","","","100","0","15",""
"","","","","","html-keyboard-response","101","1036028","0.0-120.0-0.0","15","1","2023-10-29 18:27:31","a725c3012b74bf33a1020a98cb69c237","186.158.228.113","Mozilla/5.0 (Windows NT 10.0; Win64; x64) AppleWebKit/537.36 (KHTML, like Gecko) Chrome/118.0.0.0 Safari/537.36 Edg/118.0.2088.76","WebKit","Edge","118.0.2088.76","Windows","10.0","null","es,es-ES;q=0.9,en;q=0.8,en-GB;q=0.7,en-US;q=0.6","true","251","<p id=""stimulus"" style=""font-size:100px;"">31</p>","j","","","empty_block","","31","","","","0","15",""
"","","","","","html-keyboard-response","102","1038982","0.0-121.0","15","1","2023-10-29 18:27:31","a725c3012b74bf33a1020a98cb69c237","186.158.228.113","Mozilla/5.0 (Windows NT 10.0; Win64; x64) AppleWebKit/537.36 (KHTML, like Gecko) Chrome/118.0.0.0 Safari/537.36 Edg/118.0.2088.76","WebKit","Edge","118.0.2088.76","Windows","10.0","null","es,es-ES;q=0.9,en;q=0.8,en-GB;q=0.7,en-US;q=0.6","true","null","<div style=""font-size:100px;"">X</div>","null","","","fixation","","","","","","","",""
"","","","","","audio-keyboard-response","103","1039699","0.0-122.0","15","1","2023-10-29 18:27:31","a725c3012b74bf33a1020a98cb69c237","186.158.228.113","Mozilla/5.0 (Windows NT 10.0; Win64; x64) AppleWebKit/537.36 (KHTML, like Gecko) Chrome/118.0.0.0 Safari/537.36 Edg/118.0.2088.76","WebKit","Edge","118.0.2088.76","Windows","10.0","null","es,es-ES;q=0.9,en;q=0.8,en-GB;q=0.7,en-US;q=0.6","true","712","tones/880hz_short.mp3","s","","","tone_number_task","1025","56","tones/880hz_short.mp3","1175","100","0","16",""
"","","","","","html-keyboard-response","104","1040022","0.0-123.0-0.0","15","1","2023-10-29 18:27:31","a725c3012b74bf33a1020a98cb69c237","186.158.228.113","Mozilla/5.0 (Windows NT 10.0; Win64; x64) AppleWebKit/537.36 (KHTML, like Gecko) Chrome/118.0.0.0 Safari/537.36 Edg/118.0.2088.76","WebKit","Edge","118.0.2088.76","Windows","10.0","null","es,es-ES;q=0.9,en;q=0.8,en-GB;q=0.7,en-US;q=0.6","true","null","","null","","","delay_block","","","","","","0","16",""
"","","","","","html-keyboard-response","105","1040182","0.0-123.0-1.0","15","1","2023-10-29 18:27:31","a725c3012b74bf33a1020a98cb69c237","186.158.228.113","Mozilla/5.0 (Windows NT 10.0; Win64; x64) AppleWebKit/537.36 (KHTML, like Gecko) Chrome/118.0.0.0 Safari/537.36 Edg/118.0.2088.76","WebKit","Edge","118.0.2088.76","Windows","10.0","null","es,es-ES;q=0.9,en;q=0.8,en-GB;q=0.7,en-US;q=0.6","true","null","<p id=""stimulus"" style=""font-size:100px;"">56</p>","null","","","tone_number_task_remaining_before_delay","","56","","463","100","0","16",""
"","","","","","html-keyboard-response","106","1040433","0.0-126.0-0.0","15","1","2023-10-29 18:27:31","a725c3012b74bf33a1020a98cb69c237","186.158.228.113","Mozilla/5.0 (Windows NT 10.0; Win64; x64) AppleWebKit/537.36 (KHTML, like Gecko) Chrome/118.0.0.0 Safari/537.36 Edg/118.0.2088.76","WebKit","Edge","118.0.2088.76","Windows","10.0","null","es,es-ES;q=0.9,en;q=0.8,en-GB;q=0.7,en-US;q=0.6","true","247","<p id=""stimulus"" style=""font-size:100px;"">56</p>","k","","","empty_block","","56","","","","0","16",""
"","","","","","html-keyboard-response","107","1043382","0.0-127.0","15","1","2023-10-29 18:27:31","a725c3012b74bf33a1020a98cb69c237","186.158.228.113","Mozilla/5.0 (Windows NT 10.0; Win64; x64) AppleWebKit/537.36 (KHTML, like Gecko) Chrome/118.0.0.0 Safari/537.36 Edg/118.0.2088.76","WebKit","Edge","118.0.2088.76","Windows","10.0","null","es,es-ES;q=0.9,en;q=0.8,en-GB;q=0.7,en-US;q=0.6","true","null","<div style=""font-size:100px;"">X</div>","null","","","fixation","","","","","","","",""
"","","","","","audio-keyboard-response","108","1043543","0.0-128.0","15","1","2023-10-29 18:27:31","a725c3012b74bf33a1020a98cb69c237","186.158.228.113","Mozilla/5.0 (Windows NT 10.0; Win64; x64) AppleWebKit/537.36 (KHTML, like Gecko) Chrome/118.0.0.0 Safari/537.36 Edg/118.0.2088.76","WebKit","Edge","118.0.2088.76","Windows","10.0","null","es,es-ES;q=0.9,en;q=0.8,en-GB;q=0.7,en-US;q=0.6","true","null","tones/880hz_short.mp3","null","","","tone_number_task","0","61","tones/880hz_short.mp3","150","100","0","17",""
"","","","","","html-keyboard-response","109","1044062","0.0-131.0-0.0","15","1","2023-10-29 18:27:31","a725c3012b74bf33a1020a98cb69c237","186.158.228.113","Mozilla/5.0 (Windows NT 10.0; Win64; x64) AppleWebKit/537.36 (KHTML, like Gecko) Chrome/118.0.0.0 Safari/537.36 Edg/118.0.2088.76","WebKit","Edge","118.0.2088.76","Windows","10.0","null","es,es-ES;q=0.9,en;q=0.8,en-GB;q=0.7,en-US;q=0.6","true","514","tones/880hz_short.mp3","s","","","empty_block","","61","","","","0","17",""
"","","","","","html-keyboard-response","110","1044192","0.0-131.0-1.0","15","1","2023-10-29 18:27:31","a725c3012b74bf33a1020a98cb69c237","186.158.228.113","Mozilla/5.0 (Windows NT 10.0; Win64; x64) AppleWebKit/537.36 (KHTML, like Gecko) Chrome/118.0.0.0 Safari/537.36 Edg/118.0.2088.76","WebKit","Edge","118.0.2088.76","Windows","10.0","null","es,es-ES;q=0.9,en;q=0.8,en-GB;q=0.7,en-US;q=0.6","true","125","tones/880hz_short.mp3","k","","","empty_block","","61","","","","0","17",""
"","","","","","html-keyboard-response","111","1047142","0.0-133.0","15","1","2023-10-29 18:27:31","a725c3012b74bf33a1020a98cb69c237","186.158.228.113","Mozilla/5.0 (Windows NT 10.0; Win64; x64) AppleWebKit/537.36 (KHTML, like Gecko) Chrome/118.0.0.0 Safari/537.36 Edg/118.0.2088.76","WebKit","Edge","118.0.2088.76","Windows","10.0","null","es,es-ES;q=0.9,en;q=0.8,en-GB;q=0.7,en-US;q=0.6","true","null","<div style=""font-size:100px;"">X</div>","null","","","fixation","","","","","","","",""
"","","","","","audio-keyboard-response","112","1047988","0.0-134.0","15","1","2023-10-29 18:27:31","a725c3012b74bf33a1020a98cb69c237","186.158.228.113","Mozilla/5.0 (Windows NT 10.0; Win64; x64) AppleWebKit/537.36 (KHTML, like Gecko) Chrome/118.0.0.0 Safari/537.36 Edg/118.0.2088.76","WebKit","Edge","118.0.2088.76","Windows","10.0","null","es,es-ES;q=0.9,en;q=0.8,en-GB;q=0.7,en-US;q=0.6","true","840","tones/440hz_short.mp3","a","","","tone_number_task","1025","30","tones/440hz_short.mp3","1175","100","0","18",""
"","","","","","html-keyboard-response","113","1048192","0.0-135.0-0.0","15","1","2023-10-29 18:27:31","a725c3012b74bf33a1020a98cb69c237","186.158.228.113","Mozilla/5.0 (Windows NT 10.0; Win64; x64) AppleWebKit/537.36 (KHTML, like Gecko) Chrome/118.0.0.0 Safari/537.36 Edg/118.0.2088.76","WebKit","Edge","118.0.2088.76","Windows","10.0","null","es,es-ES;q=0.9,en;q=0.8,en-GB;q=0.7,en-US;q=0.6","true","null","","null","","","delay_block","","","","","","0","18",""
"","","","","","html-keyboard-response","114","1048352","0.0-135.0-1.0","15","1","2023-10-29 18:27:31","a725c3012b74bf33a1020a98cb69c237","186.158.228.113","Mozilla/5.0 (Windows NT 10.0; Win64; x64) AppleWebKit/537.36 (KHTML, like Gecko) Chrome/118.0.0.0 Safari/537.36 Edg/118.0.2088.76","WebKit","Edge","118.0.2088.76","Windows","10.0","null","es,es-ES;q=0.9,en;q=0.8,en-GB;q=0.7,en-US;q=0.6","true","null","<p id=""stimulus"" style=""font-size:100px;"">30</p>","null","","","tone_number_task_remaining_before_delay","","30","","335","100","0","18",""
"","","","","","html-keyboard-response","115","1048626","0.0-138.0-0.0","15","1","2023-10-29 18:27:31","a725c3012b74bf33a1020a98cb69c237","186.158.228.113","Mozilla/5.0 (Windows NT 10.0; Win64; x64) AppleWebKit/537.36 (KHTML, like Gecko) Chrome/118.0.0.0 Safari/537.36 Edg/118.0.2088.76","WebKit","Edge","118.0.2088.76","Windows","10.0","null","es,es-ES;q=0.9,en;q=0.8,en-GB;q=0.7,en-US;q=0.6","true","268","<p id=""stimulus"" style=""font-size:100px;"">30</p>","j","","","empty_block","","30","","","","0","18",""
"","","","","","html-keyboard-response","116","1051572","0.0-139.0","15","1","2023-10-29 18:27:31","a725c3012b74bf33a1020a98cb69c237","186.158.228.113","Mozilla/5.0 (Windows NT 10.0; Win64; x64) AppleWebKit/537.36 (KHTML, like Gecko) Chrome/118.0.0.0 Safari/537.36 Edg/118.0.2088.76","WebKit","Edge","118.0.2088.76","Windows","10.0","null","es,es-ES;q=0.9,en;q=0.8,en-GB;q=0.7,en-US;q=0.6","true","null","<div style=""font-size:100px;"">X</div>","null","","","fixation","","","","","","","",""
"","","","","","audio-keyboard-response","117","1051832","0.0-140.0","15","1","2023-10-29 18:27:31","a725c3012b74bf33a1020a98cb69c237","186.158.228.113","Mozilla/5.0 (Windows NT 10.0; Win64; x64) AppleWebKit/537.36 (KHTML, like Gecko) Chrome/118.0.0.0 Safari/537.36 Edg/118.0.2088.76","WebKit","Edge","118.0.2088.76","Windows","10.0","null","es,es-ES;q=0.9,en;q=0.8,en-GB;q=0.7,en-US;q=0.6","true","null","tones/440hz_short.mp3","null","","","tone_number_task","102.5","37","tones/440hz_short.mp3","252.5","100","0","19",""
"","","","","","html-keyboard-response","118","1052403","0.0-143.0-0.0","15","1","2023-10-29 18:27:31","a725c3012b74bf33a1020a98cb69c237","186.158.228.113","Mozilla/5.0 (Windows NT 10.0; Win64; x64) AppleWebKit/537.36 (KHTML, like Gecko) Chrome/118.0.0.0 Safari/537.36 Edg/118.0.2088.76","WebKit","Edge","118.0.2088.76","Windows","10.0","null","es,es-ES;q=0.9,en;q=0.8,en-GB;q=0.7,en-US;q=0.6","true","566","tones/440hz_short.mp3","a","","","empty_block","","37","","","","0","19",""
"","","","","","html-keyboard-response","119","1052812","0.0-143.0-1.0","15","1","2023-10-29 18:27:31","a725c3012b74bf33a1020a98cb69c237","186.158.228.113","Mozilla/5.0 (Windows NT 10.0; Win64; x64) AppleWebKit/537.36 (KHTML, like Gecko) Chrome/118.0.0.0 Safari/537.36 Edg/118.0.2088.76","WebKit","Edge","118.0.2088.76","Windows","10.0","null","es,es-ES;q=0.9,en;q=0.8,en-GB;q=0.7,en-US;q=0.6","true","404","tones/440hz_short.mp3","j","","","empty_block","","37","","","","0","19",""
"","","","","","html-keyboard-response","120","1055762","0.0-145.0","15","1","2023-10-29 18:27:31","a725c3012b74bf33a1020a98cb69c237","186.158.228.113","Mozilla/5.0 (Windows NT 10.0; Win64; x64) AppleWebKit/537.36 (KHTML, like Gecko) Chrome/118.0.0.0 Safari/537.36 Edg/118.0.2088.76","WebKit","Edge","118.0.2088.76","Windows","10.0","null","es,es-ES;q=0.9,en;q=0.8,en-GB;q=0.7,en-US;q=0.6","true","null","<div style=""font-size:100px;"">X</div>","null","","","fixation","","","","","","","",""
"","","","","","audio-keyboard-response","121","1056022","0.0-146.0","15","1","2023-10-29 18:27:31","a725c3012b74bf33a1020a98cb69c237","186.158.228.113","Mozilla/5.0 (Windows NT 10.0; Win64; x64) AppleWebKit/537.36 (KHTML, like Gecko) Chrome/118.0.0.0 Safari/537.36 Edg/118.0.2088.76","WebKit","Edge","118.0.2088.76","Windows","10.0","null","es,es-ES;q=0.9,en;q=0.8,en-GB;q=0.7,en-US;q=0.6","true","null","tones/440hz_short.mp3","null","","","tone_number_task","102.5","49","tones/440hz_short.mp3","252.5","100","0","20",""
"","","","","","html-keyboard-response","122","1056568","0.0-149.0-0.0","15","1","2023-10-29 18:27:31","a725c3012b74bf33a1020a98cb69c237","186.158.228.113","Mozilla/5.0 (Windows NT 10.0; Win64; x64) AppleWebKit/537.36 (KHTML, like Gecko) Chrome/118.0.0.0 Safari/537.36 Edg/118.0.2088.76","WebKit","Edge","118.0.2088.76","Windows","10.0","null","es,es-ES;q=0.9,en;q=0.8,en-GB;q=0.7,en-US;q=0.6","true","540","tones/440hz_short.mp3","a","","","empty_block","","49","","","","0","20",""
"","","","","","html-keyboard-response","123","1056750","0.0-149.0-1.0","15","1","2023-10-29 18:27:31","a725c3012b74bf33a1020a98cb69c237","186.158.228.113","Mozilla/5.0 (Windows NT 10.0; Win64; x64) AppleWebKit/537.36 (KHTML, like Gecko) Chrome/118.0.0.0 Safari/537.36 Edg/118.0.2088.76","WebKit","Edge","118.0.2088.76","Windows","10.0","null","es,es-ES;q=0.9,en;q=0.8,en-GB;q=0.7,en-US;q=0.6","true","175","tones/440hz_short.mp3","k","","","empty_block","","49","","","","0","20",""
"","","","","","html-keyboard-response","124","1059701","0.0-151.0","15","1","2023-10-29 18:27:31","a725c3012b74bf33a1020a98cb69c237","186.158.228.113","Mozilla/5.0 (Windows NT 10.0; Win64; x64) AppleWebKit/537.36 (KHTML, like Gecko) Chrome/118.0.0.0 Safari/537.36 Edg/118.0.2088.76","WebKit","Edge","118.0.2088.76","Windows","10.0","null","es,es-ES;q=0.9,en;q=0.8,en-GB;q=0.7,en-US;q=0.6","true","null","<div style=""font-size:100px;"">X</div>","null","","","fixation","","","","","","","",""
"","","","","","audio-keyboard-response","125","1059962","0.0-152.0","15","1","2023-10-29 18:27:31","a725c3012b74bf33a1020a98cb69c237","186.158.228.113","Mozilla/5.0 (Windows NT 10.0; Win64; x64) AppleWebKit/537.36 (KHTML, like Gecko) Chrome/118.0.0.0 Safari/537.36 Edg/118.0.2088.76","WebKit","Edge","118.0.2088.76","Windows","10.0","null","es,es-ES;q=0.9,en;q=0.8,en-GB;q=0.7,en-US;q=0.6","true","null","tones/880hz_short.mp3","null","","","tone_number_task","102.5","47","tones/880hz_short.mp3","252.5","100","0","21",""
"","","","","","html-keyboard-response","126","1060472","0.0-155.0-0.0","15","1","2023-10-29 18:27:31","a725c3012b74bf33a1020a98cb69c237","186.158.228.113","Mozilla/5.0 (Windows NT 10.0; Win64; x64) AppleWebKit/537.36 (KHTML, like Gecko) Chrome/118.0.0.0 Safari/537.36 Edg/118.0.2088.76","WebKit","Edge","118.0.2088.76","Windows","10.0","null","es,es-ES;q=0.9,en;q=0.8,en-GB;q=0.7,en-US;q=0.6","true","504","tones/880hz_short.mp3","s","","","empty_block","","47","","","","0","21",""
"","","","","","html-keyboard-response","127","1060744","0.0-155.0-1.0","15","1","2023-10-29 18:27:31","a725c3012b74bf33a1020a98cb69c237","186.158.228.113","Mozilla/5.0 (Windows NT 10.0; Win64; x64) AppleWebKit/537.36 (KHTML, like Gecko) Chrome/118.0.0.0 Safari/537.36 Edg/118.0.2088.76","WebKit","Edge","118.0.2088.76","Windows","10.0","null","es,es-ES;q=0.9,en;q=0.8,en-GB;q=0.7,en-US;q=0.6","true","267","tones/880hz_short.mp3","k","","","empty_block","","47","","","","0","21",""
"","","","","","html-keyboard-response","128","1063692","0.0-157.0","15","1","2023-10-29 18:27:31","a725c3012b74bf33a1020a98cb69c237","186.158.228.113","Mozilla/5.0 (Windows NT 10.0; Win64; x64) AppleWebKit/537.36 (KHTML, like Gecko) Chrome/118.0.0.0 Safari/537.36 Edg/118.0.2088.76","WebKit","Edge","118.0.2088.76","Windows","10.0","null","es,es-ES;q=0.9,en;q=0.8,en-GB;q=0.7,en-US;q=0.6","true","null","<div style=""font-size:100px;"">X</div>","null","","","fixation","","","","","","","",""
"","","","","","audio-keyboard-response","129","1064842","0.0-158.0","15","1","2023-10-29 18:27:31","a725c3012b74bf33a1020a98cb69c237","186.158.228.113","Mozilla/5.0 (Windows NT 10.0; Win64; x64) AppleWebKit/537.36 (KHTML, like Gecko) Chrome/118.0.0.0 Safari/537.36 Edg/118.0.2088.76","WebKit","Edge","118.0.2088.76","Windows","10.0","null","es,es-ES;q=0.9,en;q=0.8,en-GB;q=0.7,en-US;q=0.6","true","null","tones/440hz_short.mp3","null","","","tone_number_task","992.5","36","tones/440hz_short.mp3","1142.5","100","0","22",""
"","","","","","html-keyboard-response","130","1065067","0.0-161.0-0.0","15","1","2023-10-29 18:27:31","a725c3012b74bf33a1020a98cb69c237","186.158.228.113","Mozilla/5.0 (Windows NT 10.0; Win64; x64) AppleWebKit/537.36 (KHTML, like Gecko) Chrome/118.0.0.0 Safari/537.36 Edg/118.0.2088.76","WebKit","Edge","118.0.2088.76","Windows","10.0","null","es,es-ES;q=0.9,en;q=0.8,en-GB;q=0.7,en-US;q=0.6","true","219","tones/440hz_short.mp3","a","","","empty_block","","36","","","","0","22",""
"","","","","","html-keyboard-response","131","1065219","0.0-161.0-1.0","15","1","2023-10-29 18:27:31","a725c3012b74bf33a1020a98cb69c237","186.158.228.113","Mozilla/5.0 (Windows NT 10.0; Win64; x64) AppleWebKit/537.36 (KHTML, like Gecko) Chrome/118.0.0.0 Safari/537.36 Edg/118.0.2088.76","WebKit","Edge","118.0.2088.76","Windows","10.0","null","es,es-ES;q=0.9,en;q=0.8,en-GB;q=0.7,en-US;q=0.6","true","146","tones/440hz_short.mp3","j","","","empty_block","","36","","","","0","22",""
"","","","","","html-keyboard-response","132","1068172","0.0-163.0","15","1","2023-10-29 18:27:31","a725c3012b74bf33a1020a98cb69c237","186.158.228.113","Mozilla/5.0 (Windows NT 10.0; Win64; x64) AppleWebKit/537.36 (KHTML, like Gecko) Chrome/118.0.0.0 Safari/537.36 Edg/118.0.2088.76","WebKit","Edge","118.0.2088.76","Windows","10.0","null","es,es-ES;q=0.9,en;q=0.8,en-GB;q=0.7,en-US;q=0.6","true","null","<div style=""font-size:100px;"">X</div>","null","","","fixation","","","","","","","",""
"","","","","","audio-keyboard-response","133","1068929","0.0-164.0","15","1","2023-10-29 18:27:31","a725c3012b74bf33a1020a98cb69c237","186.158.228.113","Mozilla/5.0 (Windows NT 10.0; Win64; x64) AppleWebKit/537.36 (KHTML, like Gecko) Chrome/118.0.0.0 Safari/537.36 Edg/118.0.2088.76","WebKit","Edge","118.0.2088.76","Windows","10.0","null","es,es-ES;q=0.9,en;q=0.8,en-GB;q=0.7,en-US;q=0.6","true","749","tones/440hz_short.mp3","a","","","tone_number_task","1025","61","tones/440hz_short.mp3","1175","100","0","23",""
"","","","","","html-keyboard-response","134","1069222","0.0-165.0-0.0","15","1","2023-10-29 18:27:31","a725c3012b74bf33a1020a98cb69c237","186.158.228.113","Mozilla/5.0 (Windows NT 10.0; Win64; x64) AppleWebKit/537.36 (KHTML, like Gecko) Chrome/118.0.0.0 Safari/537.36 Edg/118.0.2088.76","WebKit","Edge","118.0.2088.76","Windows","10.0","null","es,es-ES;q=0.9,en;q=0.8,en-GB;q=0.7,en-US;q=0.6","true","null","","null","","","delay_block","","","","","","0","23",""
"","","","","","html-keyboard-response","135","1069382","0.0-165.0-1.0","15","1","2023-10-29 18:27:31","a725c3012b74bf33a1020a98cb69c237","186.158.228.113","Mozilla/5.0 (Windows NT 10.0; Win64; x64) AppleWebKit/537.36 (KHTML, like Gecko) Chrome/118.0.0.0 Safari/537.36 Edg/118.0.2088.76","WebKit","Edge","118.0.2088.76","Windows","10.0","null","es,es-ES;q=0.9,en;q=0.8,en-GB;q=0.7,en-US;q=0.6","true","null","<p id=""stimulus"" style=""font-size:100px;"">61</p>","null","","","tone_number_task_remaining_before_delay","","61","","426","100","0","23",""
"","","","","","html-keyboard-response","136","1069764","0.0-168.0-0.0","15","1","2023-10-29 18:27:31","a725c3012b74bf33a1020a98cb69c237","186.158.228.113","Mozilla/5.0 (Windows NT 10.0; Win64; x64) AppleWebKit/537.36 (KHTML, like Gecko) Chrome/118.0.0.0 Safari/537.36 Edg/118.0.2088.76","WebKit","Edge","118.0.2088.76","Windows","10.0","null","es,es-ES;q=0.9,en;q=0.8,en-GB;q=0.7,en-US;q=0.6","true","375","<p id=""stimulus"" style=""font-size:100px;"">61</p>","k","","","empty_block","","61","","","","0","23",""
"","","","","","html-keyboard-response","137","1072712","0.0-169.0","15","1","2023-10-29 18:27:31","a725c3012b74bf33a1020a98cb69c237","186.158.228.113","Mozilla/5.0 (Windows NT 10.0; Win64; x64) AppleWebKit/537.36 (KHTML, like Gecko) Chrome/118.0.0.0 Safari/537.36 Edg/118.0.2088.76","WebKit","Edge","118.0.2088.76","Windows","10.0","null","es,es-ES;q=0.9,en;q=0.8,en-GB;q=0.7,en-US;q=0.6","true","null","<div style=""font-size:100px;"">X</div>","null","","","fixation","","","","","","","",""
"","","","","","audio-keyboard-response","138","1073902","0.0-170.0","15","1","2023-10-29 18:27:31","a725c3012b74bf33a1020a98cb69c237","186.158.228.113","Mozilla/5.0 (Windows NT 10.0; Win64; x64) AppleWebKit/537.36 (KHTML, like Gecko) Chrome/118.0.0.0 Safari/537.36 Edg/118.0.2088.76","WebKit","Edge","118.0.2088.76","Windows","10.0","null","es,es-ES;q=0.9,en;q=0.8,en-GB;q=0.7,en-US;q=0.6","true","null","tones/880hz_short.mp3","null","","","tone_number_task","1025","42","tones/880hz_short.mp3","1175","100","0","24",""
"","","","","","html-keyboard-response","139","1074107","0.0-173.0-0.0","15","1","2023-10-29 18:27:31","a725c3012b74bf33a1020a98cb69c237","186.158.228.113","Mozilla/5.0 (Windows NT 10.0; Win64; x64) AppleWebKit/537.36 (KHTML, like Gecko) Chrome/118.0.0.0 Safari/537.36 Edg/118.0.2088.76","WebKit","Edge","118.0.2088.76","Windows","10.0","null","es,es-ES;q=0.9,en;q=0.8,en-GB;q=0.7,en-US;q=0.6","true","199","tones/880hz_short.mp3","s","","","empty_block","","42","","","","0","24",""
"","","","","","html-keyboard-response","140","1074548","0.0-173.0-1.0","15","1","2023-10-29 18:27:31","a725c3012b74bf33a1020a98cb69c237","186.158.228.113","Mozilla/5.0 (Windows NT 10.0; Win64; x64) AppleWebKit/537.36 (KHTML, like Gecko) Chrome/118.0.0.0 Safari/537.36 Edg/118.0.2088.76","WebKit","Edge","118.0.2088.76","Windows","10.0","null","es,es-ES;q=0.9,en;q=0.8,en-GB;q=0.7,en-US;q=0.6","true","435","tones/880hz_short.mp3","j","","","empty_block","","42","","","","0","24",""
"","","","","","html-keyboard-response","141","1077502","0.0-175.0","15","1","2023-10-29 18:27:31","a725c3012b74bf33a1020a98cb69c237","186.158.228.113","Mozilla/5.0 (Windows NT 10.0; Win64; x64) AppleWebKit/537.36 (KHTML, like Gecko) Chrome/118.0.0.0 Safari/537.36 Edg/118.0.2088.76","WebKit","Edge","118.0.2088.76","Windows","10.0","null","es,es-ES;q=0.9,en;q=0.8,en-GB;q=0.7,en-US;q=0.6","true","null","<div style=""font-size:100px;"">X</div>","null","","","fixation","","","","","","","",""
"","","","","","audio-keyboard-response","142","1077662","0.0-176.0","15","1","2023-10-29 18:27:31","a725c3012b74bf33a1020a98cb69c237","186.158.228.113","Mozilla/5.0 (Windows NT 10.0; Win64; x64) AppleWebKit/537.36 (KHTML, like Gecko) Chrome/118.0.0.0 Safari/537.36 Edg/118.0.2088.76","WebKit","Edge","118.0.2088.76","Windows","10.0","null","es,es-ES;q=0.9,en;q=0.8,en-GB;q=0.7,en-US;q=0.6","true","null","tones/440hz_short.mp3","null","","","tone_number_task","0","57","tones/440hz_short.mp3","150","100","0","25",""
"","","","","","html-keyboard-response","143","1078705","0.0-179.0-0.0","15","1","2023-10-29 18:27:31","a725c3012b74bf33a1020a98cb69c237","186.158.228.113","Mozilla/5.0 (Windows NT 10.0; Win64; x64) AppleWebKit/537.36 (KHTML, like Gecko) Chrome/118.0.0.0 Safari/537.36 Edg/118.0.2088.76","WebKit","Edge","118.0.2088.76","Windows","10.0","null","es,es-ES;q=0.9,en;q=0.8,en-GB;q=0.7,en-US;q=0.6","true","1038","tones/440hz_short.mp3","a","","","empty_block","","57","","","","0","25",""
"","","","","","html-keyboard-response","144","1078916","0.0-179.0-1.0","15","1","2023-10-29 18:27:31","a725c3012b74bf33a1020a98cb69c237","186.158.228.113","Mozilla/5.0 (Windows NT 10.0; Win64; x64) AppleWebKit/537.36 (KHTML, like Gecko) Chrome/118.0.0.0 Safari/537.36 Edg/118.0.2088.76","WebKit","Edge","118.0.2088.76","Windows","10.0","null","es,es-ES;q=0.9,en;q=0.8,en-GB;q=0.7,en-US;q=0.6","true","204","tones/440hz_short.mp3","k","","","empty_block","","57","","","","0","25",""
"","","","","","html-keyboard-response","145","1081872","0.0-181.0","15","1","2023-10-29 18:27:31","a725c3012b74bf33a1020a98cb69c237","186.158.228.113","Mozilla/5.0 (Windows NT 10.0; Win64; x64) AppleWebKit/537.36 (KHTML, like Gecko) Chrome/118.0.0.0 Safari/537.36 Edg/118.0.2088.76","WebKit","Edge","118.0.2088.76","Windows","10.0","null","es,es-ES;q=0.9,en;q=0.8,en-GB;q=0.7,en-US;q=0.6","true","null","<div style=""font-size:100px;"">X</div>","null","","","fixation","","","","","","","",""
"","","","","","audio-keyboard-response","146","1083022","0.0-182.0","15","1","2023-10-29 18:27:31","a725c3012b74bf33a1020a98cb69c237","186.158.228.113","Mozilla/5.0 (Windows NT 10.0; Win64; x64) AppleWebKit/537.36 (KHTML, like Gecko) Chrome/118.0.0.0 Safari/537.36 Edg/118.0.2088.76","WebKit","Edge","118.0.2088.76","Windows","10.0","null","es,es-ES;q=0.9,en;q=0.8,en-GB;q=0.7,en-US;q=0.6","true","null","tones/880hz_short.mp3","null","","","tone_number_task","992.5","51","tones/880hz_short.mp3","1142.5","100","0","26",""
"","","","","","html-keyboard-response","147","1083458","0.0-185.0-0.0","15","1","2023-10-29 18:27:31","a725c3012b74bf33a1020a98cb69c237","186.158.228.113","Mozilla/5.0 (Windows NT 10.0; Win64; x64) AppleWebKit/537.36 (KHTML, like Gecko) Chrome/118.0.0.0 Safari/537.36 Edg/118.0.2088.76","WebKit","Edge","118.0.2088.76","Windows","10.0","null","es,es-ES;q=0.9,en;q=0.8,en-GB;q=0.7,en-US;q=0.6","true","429","tones/880hz_short.mp3","s","","","empty_block","","51","","","","0","26",""
"","","","","","html-keyboard-response","148","1083608","0.0-185.0-1.0","15","1","2023-10-29 18:27:31","a725c3012b74bf33a1020a98cb69c237","186.158.228.113","Mozilla/5.0 (Windows NT 10.0; Win64; x64) AppleWebKit/537.36 (KHTML, like Gecko) Chrome/118.0.0.0 Safari/537.36 Edg/118.0.2088.76","WebKit","Edge","118.0.2088.76","Windows","10.0","null","es,es-ES;q=0.9,en;q=0.8,en-GB;q=0.7,en-US;q=0.6","true","143","tones/880hz_short.mp3","k","","","empty_block","","51","","","","0","26",""
"","","","","","html-keyboard-response","149","1086560","0.0-187.0","15","1","2023-10-29 18:27:31","a725c3012b74bf33a1020a98cb69c237","186.158.228.113","Mozilla/5.0 (Windows NT 10.0; Win64; x64) AppleWebKit/537.36 (KHTML, like Gecko) Chrome/118.0.0.0 Safari/537.36 Edg/118.0.2088.76","WebKit","Edge","118.0.2088.76","Windows","10.0","null","es,es-ES;q=0.9,en;q=0.8,en-GB;q=0.7,en-US;q=0.6","true","null","<div style=""font-size:100px;"">X</div>","null","","","fixation","","","","","","","",""
"","","","","","audio-keyboard-response","150","1086822","0.0-188.0","15","1","2023-10-29 18:27:31","a725c3012b74bf33a1020a98cb69c237","186.158.228.113","Mozilla/5.0 (Windows NT 10.0; Win64; x64) AppleWebKit/537.36 (KHTML, like Gecko) Chrome/118.0.0.0 Safari/537.36 Edg/118.0.2088.76","WebKit","Edge","118.0.2088.76","Windows","10.0","null","es,es-ES;q=0.9,en;q=0.8,en-GB;q=0.7,en-US;q=0.6","true","null","tones/880hz_short.mp3","null","","","tone_number_task","102.5","27","tones/880hz_short.mp3","252.5","100","0","27",""
"","","","","","html-keyboard-response","151","1088033","0.0-191.0-0.0","15","1","2023-10-29 18:27:31","a725c3012b74bf33a1020a98cb69c237","186.158.228.113","Mozilla/5.0 (Windows NT 10.0; Win64; x64) AppleWebKit/537.36 (KHTML, like Gecko) Chrome/118.0.0.0 Safari/537.36 Edg/118.0.2088.76","WebKit","Edge","118.0.2088.76","Windows","10.0","null","es,es-ES;q=0.9,en;q=0.8,en-GB;q=0.7,en-US;q=0.6","true","null","tones/880hz_short.mp3","null","","","empty_block","","27","","","","0","27",""
"","","","","","html-keyboard-response","152","1088067","0.0-191.0-1.0","15","1","2023-10-29 18:27:31","a725c3012b74bf33a1020a98cb69c237","186.158.228.113","Mozilla/5.0 (Windows NT 10.0; Win64; x64) AppleWebKit/537.36 (KHTML, like Gecko) Chrome/118.0.0.0 Safari/537.36 Edg/118.0.2088.76","WebKit","Edge","118.0.2088.76","Windows","10.0","null","es,es-ES;q=0.9,en;q=0.8,en-GB;q=0.7,en-US;q=0.6","true","28","tones/880hz_short.mp3","s","","","empty_block","","27","","","","0","27",""
"","","","","","html-keyboard-response","153","1091022","0.0-193.0","15","1","2023-10-29 18:27:31","a725c3012b74bf33a1020a98cb69c237","186.158.228.113","Mozilla/5.0 (Windows NT 10.0; Win64; x64) AppleWebKit/537.36 (KHTML, like Gecko) Chrome/118.0.0.0 Safari/537.36 Edg/118.0.2088.76","WebKit","Edge","118.0.2088.76","Windows","10.0","null","es,es-ES;q=0.9,en;q=0.8,en-GB;q=0.7,en-US;q=0.6","true","null","<div style=""font-size:100px;"">X</div>","null","","","fixation","","","","","","","",""
"","","","","","audio-keyboard-response","154","1091183","0.0-194.0","15","1","2023-10-29 18:27:31","a725c3012b74bf33a1020a98cb69c237","186.158.228.113","Mozilla/5.0 (Windows NT 10.0; Win64; x64) AppleWebKit/537.36 (KHTML, like Gecko) Chrome/118.0.0.0 Safari/537.36 Edg/118.0.2088.76","WebKit","Edge","118.0.2088.76","Windows","10.0","null","es,es-ES;q=0.9,en;q=0.8,en-GB;q=0.7,en-US;q=0.6","true","null","tones/880hz_short.mp3","null","","","tone_number_task","0","22","tones/880hz_short.mp3","150","100","0","28",""
"","","","","","html-keyboard-response","155","1091410","0.0-197.0-0.0","15","1","2023-10-29 18:27:31","a725c3012b74bf33a1020a98cb69c237","186.158.228.113","Mozilla/5.0 (Windows NT 10.0; Win64; x64) AppleWebKit/537.36 (KHTML, like Gecko) Chrome/118.0.0.0 Safari/537.36 Edg/118.0.2088.76","WebKit","Edge","118.0.2088.76","Windows","10.0","null","es,es-ES;q=0.9,en;q=0.8,en-GB;q=0.7,en-US;q=0.6","true","220","tones/880hz_short.mp3","s","","","empty_block","","22","","","","0","28",""
"","","","","","html-keyboard-response","156","1091693","0.0-197.0-1.0","15","1","2023-10-29 18:27:31","a725c3012b74bf33a1020a98cb69c237","186.158.228.113","Mozilla/5.0 (Windows NT 10.0; Win64; x64) AppleWebKit/537.36 (KHTML, like Gecko) Chrome/118.0.0.0 Safari/537.36 Edg/118.0.2088.76","WebKit","Edge","118.0.2088.76","Windows","10.0","null","es,es-ES;q=0.9,en;q=0.8,en-GB;q=0.7,en-US;q=0.6","true","276","tones/880hz_short.mp3","j","","","empty_block","","22","","","","0","28",""
"","","","","","html-keyboard-response","157","1094642","0.0-199.0","15","1","2023-10-29 18:27:31","a725c3012b74bf33a1020a98cb69c237","186.158.228.113","Mozilla/5.0 (Windows NT 10.0; Win64; x64) AppleWebKit/537.36 (KHTML, like Gecko) Chrome/118.0.0.0 Safari/537.36 Edg/118.0.2088.76","WebKit","Edge","118.0.2088.76","Windows","10.0","null","es,es-ES;q=0.9,en;q=0.8,en-GB;q=0.7,en-US;q=0.6","true","null","<div style=""font-size:100px;"">X</div>","null","","","fixation","","","","","","","",""
"","","","","","audio-keyboard-response","158","1094903","0.0-200.0","15","1","2023-10-29 18:27:31","a725c3012b74bf33a1020a98cb69c237","186.158.228.113","Mozilla/5.0 (Windows NT 10.0; Win64; x64) AppleWebKit/537.36 (KHTML, like Gecko) Chrome/118.0.0.0 Safari/537.36 Edg/118.0.2088.76","WebKit","Edge","118.0.2088.76","Windows","10.0","null","es,es-ES;q=0.9,en;q=0.8,en-GB;q=0.7,en-US;q=0.6","true","null","tones/440hz_short.mp3","null","","","tone_number_task","102.5","30","tones/440hz_short.mp3","252.5","100","0","29",""
"","","","","","html-keyboard-response","159","1095814","0.0-203.0-0.0","15","1","2023-10-29 18:27:31","a725c3012b74bf33a1020a98cb69c237","186.158.228.113","Mozilla/5.0 (Windows NT 10.0; Win64; x64) AppleWebKit/537.36 (KHTML, like Gecko) Chrome/118.0.0.0 Safari/537.36 Edg/118.0.2088.76","WebKit","Edge","118.0.2088.76","Windows","10.0","null","es,es-ES;q=0.9,en;q=0.8,en-GB;q=0.7,en-US;q=0.6","true","904","tones/440hz_short.mp3","a","","","empty_block","","30","","","","0","29",""
"","","","","","html-keyboard-response","160","1096068","0.0-203.0-1.0","15","1","2023-10-29 18:27:31","a725c3012b74bf33a1020a98cb69c237","186.158.228.113","Mozilla/5.0 (Windows NT 10.0; Win64; x64) AppleWebKit/537.36 (KHTML, like Gecko) Chrome/118.0.0.0 Safari/537.36 Edg/118.0.2088.76","WebKit","Edge","118.0.2088.76","Windows","10.0","null","es,es-ES;q=0.9,en;q=0.8,en-GB;q=0.7,en-US;q=0.6","true","249","tones/440hz_short.mp3","j","","","empty_block","","30","","","","0","29",""
"","","","","","html-keyboard-response","161","1099023","0.0-205.0","15","1","2023-10-29 18:27:31","a725c3012b74bf33a1020a98cb69c237","186.158.228.113","Mozilla/5.0 (Windows NT 10.0; Win64; x64) AppleWebKit/537.36 (KHTML, like Gecko) Chrome/118.0.0.0 Safari/537.36 Edg/118.0.2088.76","WebKit","Edge","118.0.2088.76","Windows","10.0","null","es,es-ES;q=0.9,en;q=0.8,en-GB;q=0.7,en-US;q=0.6","true","null","<div style=""font-size:100px;"">X</div>","null","","","fixation","","","","","","","",""
"","","","","","audio-keyboard-response","162","1099183","0.0-206.0","15","1","2023-10-29 18:27:31","a725c3012b74bf33a1020a98cb69c237","186.158.228.113","Mozilla/5.0 (Windows NT 10.0; Win64; x64) AppleWebKit/537.36 (KHTML, like Gecko) Chrome/118.0.0.0 Safari/537.36 Edg/118.0.2088.76","WebKit","Edge","118.0.2088.76","Windows","10.0","null","es,es-ES;q=0.9,en;q=0.8,en-GB;q=0.7,en-US;q=0.6","true","null","tones/440hz_short.mp3","null","","","tone_number_task","0","22","tones/440hz_short.mp3","150","100","0","30",""
"","","","","","html-keyboard-response","163","1100031","0.0-209.0-0.0","15","1","2023-10-29 18:27:31","a725c3012b74bf33a1020a98cb69c237","186.158.228.113","Mozilla/5.0 (Windows NT 10.0; Win64; x64) AppleWebKit/537.36 (KHTML, like Gecko) Chrome/118.0.0.0 Safari/537.36 Edg/118.0.2088.76","WebKit","Edge","118.0.2088.76","Windows","10.0","null","es,es-ES;q=0.9,en;q=0.8,en-GB;q=0.7,en-US;q=0.6","true","841","tones/440hz_short.mp3","a","","","empty_block","","22","","","","0","30",""
"","","","","","html-keyboard-response","164","1100157","0.0-209.0-1.0","15","1","2023-10-29 18:27:31","a725c3012b74bf33a1020a98cb69c237","186.158.228.113","Mozilla/5.0 (Windows NT 10.0; Win64; x64) AppleWebKit/537.36 (KHTML, like Gecko) Chrome/118.0.0.0 Safari/537.36 Edg/118.0.2088.76","WebKit","Edge","118.0.2088.76","Windows","10.0","null","es,es-ES;q=0.9,en;q=0.8,en-GB;q=0.7,en-US;q=0.6","true","120","tones/440hz_short.mp3","j","","","empty_block","","22","","","","0","30",""
"","","","","","html-keyboard-response","165","1103113","0.0-211.0","15","1","2023-10-29 18:27:31","a725c3012b74bf33a1020a98cb69c237","186.158.228.113","Mozilla/5.0 (Windows NT 10.0; Win64; x64) AppleWebKit/537.36 (KHTML, like Gecko) Chrome/118.0.0.0 Safari/537.36 Edg/118.0.2088.76","WebKit","Edge","118.0.2088.76","Windows","10.0","null","es,es-ES;q=0.9,en;q=0.8,en-GB;q=0.7,en-US;q=0.6","true","null","<div style=""font-size:100px;"">X</div>","null","","","fixation","","","","","","","",""
"","","","","","audio-keyboard-response","166","1103798","0.0-212.0","15","1","2023-10-29 18:27:31","a725c3012b74bf33a1020a98cb69c237","186.158.228.113","Mozilla/5.0 (Windows NT 10.0; Win64; x64) AppleWebKit/537.36 (KHTML, like Gecko) Chrome/118.0.0.0 Safari/537.36 Edg/118.0.2088.76","WebKit","Edge","118.0.2088.76","Windows","10.0","null","es,es-ES;q=0.9,en;q=0.8,en-GB;q=0.7,en-US;q=0.6","true","680","tones/880hz_short.mp3","s","","","tone_number_task","992.5","29","tones/880hz_short.mp3","1142.5","100","0","31",""
"","","","","","html-keyboard-response","167","1104123","0.0-213.0-0.0","15","1","2023-10-29 18:27:31","a725c3012b74bf33a1020a98cb69c237","186.158.228.113","Mozilla/5.0 (Windows NT 10.0; Win64; x64) AppleWebKit/537.36 (KHTML, like Gecko) Chrome/118.0.0.0 Safari/537.36 Edg/118.0.2088.76","WebKit","Edge","118.0.2088.76","Windows","10.0","null","es,es-ES;q=0.9,en;q=0.8,en-GB;q=0.7,en-US;q=0.6","true","null","","null","","","delay_block","","","","","","0","31",""
"","","","","","html-keyboard-response","168","1104282","0.0-213.0-1.0","15","1","2023-10-29 18:27:31","a725c3012b74bf33a1020a98cb69c237","186.158.228.113","Mozilla/5.0 (Windows NT 10.0; Win64; x64) AppleWebKit/537.36 (KHTML, like Gecko) Chrome/118.0.0.0 Safari/537.36 Edg/118.0.2088.76","WebKit","Edge","118.0.2088.76","Windows","10.0","null","es,es-ES;q=0.9,en;q=0.8,en-GB;q=0.7,en-US;q=0.6","true","null","<p id=""stimulus"" style=""font-size:100px;"">29</p>","null","","","tone_number_task_remaining_before_delay","","29","","462.5","100","0","31",""
"","","","","","html-keyboard-response","169","1104537","0.0-216.0-0.0","15","1","2023-10-29 18:27:31","a725c3012b74bf33a1020a98cb69c237","186.158.228.113","Mozilla/5.0 (Windows NT 10.0; Win64; x64) AppleWebKit/537.36 (KHTML, like Gecko) Chrome/118.0.0.0 Safari/537.36 Edg/118.0.2088.76","WebKit","Edge","118.0.2088.76","Windows","10.0","null","es,es-ES;q=0.9,en;q=0.8,en-GB;q=0.7,en-US;q=0.6","true","247","<p id=""stimulus"" style=""font-size:100px;"">29</p>","j","","","empty_block","","29","","","","0","31",""
"","","","","","html-keyboard-response","170","1107491","0.0-217.0","15","1","2023-10-29 18:27:31","a725c3012b74bf33a1020a98cb69c237","186.158.228.113","Mozilla/5.0 (Windows NT 10.0; Win64; x64) AppleWebKit/537.36 (KHTML, like Gecko) Chrome/118.0.0.0 Safari/537.36 Edg/118.0.2088.76","WebKit","Edge","118.0.2088.76","Windows","10.0","null","es,es-ES;q=0.9,en;q=0.8,en-GB;q=0.7,en-US;q=0.6","true","null","<div style=""font-size:100px;"">X</div>","null","","","fixation","","","","","","","",""
"","","","","","audio-keyboard-response","171","1107913","0.0-218.0","15","1","2023-10-29 18:27:31","a725c3012b74bf33a1020a98cb69c237","186.158.228.113","Mozilla/5.0 (Windows NT 10.0; Win64; x64) AppleWebKit/537.36 (KHTML, like Gecko) Chrome/118.0.0.0 Safari/537.36 Edg/118.0.2088.76","WebKit","Edge","118.0.2088.76","Windows","10.0","null","es,es-ES;q=0.9,en;q=0.8,en-GB;q=0.7,en-US;q=0.6","true","408","tones/880hz_short.mp3","s","","","tone_number_task","1025","65","tones/880hz_short.mp3","1175","100","0","32",""
"","","","","","html-keyboard-response","172","1108543","0.0-219.0-0.0","15","1","2023-10-29 18:27:31","a725c3012b74bf33a1020a98cb69c237","186.158.228.113","Mozilla/5.0 (Windows NT 10.0; Win64; x64) AppleWebKit/537.36 (KHTML, like Gecko) Chrome/118.0.0.0 Safari/537.36 Edg/118.0.2088.76","WebKit","Edge","118.0.2088.76","Windows","10.0","null","es,es-ES;q=0.9,en;q=0.8,en-GB;q=0.7,en-US;q=0.6","true","null","","null","","","delay_block","","","","","","0","32",""
"","","","","","html-keyboard-response","173","1108703","0.0-219.0-1.0","15","1","2023-10-29 18:27:31","a725c3012b74bf33a1020a98cb69c237","186.158.228.113","Mozilla/5.0 (Windows NT 10.0; Win64; x64) AppleWebKit/537.36 (KHTML, like Gecko) Chrome/118.0.0.0 Safari/537.36 Edg/118.0.2088.76","WebKit","Edge","118.0.2088.76","Windows","10.0","null","es,es-ES;q=0.9,en;q=0.8,en-GB;q=0.7,en-US;q=0.6","true","null","<p id=""stimulus"" style=""font-size:100px;"">65</p>","null","","","tone_number_task_remaining_before_delay","","65","","767","100","0","32",""
"","","","","","html-keyboard-response","174","1109012","0.0-222.0-0.0","15","1","2023-10-29 18:27:31","a725c3012b74bf33a1020a98cb69c237","186.158.228.113","Mozilla/5.0 (Windows NT 10.0; Win64; x64) AppleWebKit/537.36 (KHTML, like Gecko) Chrome/118.0.0.0 Safari/537.36 Edg/118.0.2088.76","WebKit","Edge","118.0.2088.76","Windows","10.0","null","es,es-ES;q=0.9,en;q=0.8,en-GB;q=0.7,en-US;q=0.6","true","303","<p id=""stimulus"" style=""font-size:100px;"">65</p>","k","","","empty_block","","65","","","","0","32",""
"","","","","","html-keyboard-response","175","1111962","0.0-223.0","15","1","2023-10-29 18:27:31","a725c3012b74bf33a1020a98cb69c237","186.158.228.113","Mozilla/5.0 (Windows NT 10.0; Win64; x64) AppleWebKit/537.36 (KHTML, like Gecko) Chrome/118.0.0.0 Safari/537.36 Edg/118.0.2088.76","WebKit","Edge","118.0.2088.76","Windows","10.0","null","es,es-ES;q=0.9,en;q=0.8,en-GB;q=0.7,en-US;q=0.6","true","null","<div style=""font-size:100px;"">X</div>","null","","","fixation","","","","","","","",""
"","","","","","audio-keyboard-response","176","1112224","0.0-224.0","15","1","2023-10-29 18:27:31","a725c3012b74bf33a1020a98cb69c237","186.158.228.113","Mozilla/5.0 (Windows NT 10.0; Win64; x64) AppleWebKit/537.36 (KHTML, like Gecko) Chrome/118.0.0.0 Safari/537.36 Edg/118.0.2088.76","WebKit","Edge","118.0.2088.76","Windows","10.0","null","es,es-ES;q=0.9,en;q=0.8,en-GB;q=0.7,en-US;q=0.6","true","null","tones/440hz_short.mp3","null","","","tone_number_task","102.5","22","tones/440hz_short.mp3","252.5","100","0","33",""
"","","","","","html-keyboard-response","177","1112384","0.0-227.0-0.0","15","1","2023-10-29 18:27:31","a725c3012b74bf33a1020a98cb69c237","186.158.228.113","Mozilla/5.0 (Windows NT 10.0; Win64; x64) AppleWebKit/537.36 (KHTML, like Gecko) Chrome/118.0.0.0 Safari/537.36 Edg/118.0.2088.76","WebKit","Edge","118.0.2088.76","Windows","10.0","null","es,es-ES;q=0.9,en;q=0.8,en-GB;q=0.7,en-US;q=0.6","true","153","tones/440hz_short.mp3","a","","","empty_block","","22","","","","0","33",""
"","","","","","html-keyboard-response","178","1112667","0.0-227.0-1.0","15","1","2023-10-29 18:27:31","a725c3012b74bf33a1020a98cb69c237","186.158.228.113","Mozilla/5.0 (Windows NT 10.0; Win64; x64) AppleWebKit/537.36 (KHTML, like Gecko) Chrome/118.0.0.0 Safari/537.36 Edg/118.0.2088.76","WebKit","Edge","118.0.2088.76","Windows","10.0","null","es,es-ES;q=0.9,en;q=0.8,en-GB;q=0.7,en-US;q=0.6","true","271","tones/440hz_short.mp3","j","","","empty_block","","22","","","","0","33",""
"","","","","","html-keyboard-response","179","1115621","0.0-229.0","15","1","2023-10-29 18:27:31","a725c3012b74bf33a1020a98cb69c237","186.158.228.113","Mozilla/5.0 (Windows NT 10.0; Win64; x64) AppleWebKit/537.36 (KHTML, like Gecko) Chrome/118.0.0.0 Safari/537.36 Edg/118.0.2088.76","WebKit","Edge","118.0.2088.76","Windows","10.0","null","es,es-ES;q=0.9,en;q=0.8,en-GB;q=0.7,en-US;q=0.6","true","null","<div style=""font-size:100px;"">X</div>","null","","","fixation","","","","","","","",""
"","","","","","audio-keyboard-response","180","1116216","0.0-230.0","15","1","2023-10-29 18:27:31","a725c3012b74bf33a1020a98cb69c237","186.158.228.113","Mozilla/5.0 (Windows NT 10.0; Win64; x64) AppleWebKit/537.36 (KHTML, like Gecko) Chrome/118.0.0.0 Safari/537.36 Edg/118.0.2088.76","WebKit","Edge","118.0.2088.76","Windows","10.0","null","es,es-ES;q=0.9,en;q=0.8,en-GB;q=0.7,en-US;q=0.6","true","592","tones/880hz_short.mp3","s","","","tone_number_task","1025","26","tones/880hz_short.mp3","1175","100","0","34",""
"","","","","","html-keyboard-response","181","1116662","0.0-231.0-0.0","15","1","2023-10-29 18:27:31","a725c3012b74bf33a1020a98cb69c237","186.158.228.113","Mozilla/5.0 (Windows NT 10.0; Win64; x64) AppleWebKit/537.36 (KHTML, like Gecko) Chrome/118.0.0.0 Safari/537.36 Edg/118.0.2088.76","WebKit","Edge","118.0.2088.76","Windows","10.0","null","es,es-ES;q=0.9,en;q=0.8,en-GB;q=0.7,en-US;q=0.6","true","null","","null","","","delay_block","","","","","","0","34",""
"","","","","","html-keyboard-response","182","1116833","0.0-231.0-1.0","15","1","2023-10-29 18:27:31","a725c3012b74bf33a1020a98cb69c237","186.158.228.113","Mozilla/5.0 (Windows NT 10.0; Win64; x64) AppleWebKit/537.36 (KHTML, like Gecko) Chrome/118.0.0.0 Safari/537.36 Edg/118.0.2088.76","WebKit","Edge","118.0.2088.76","Windows","10.0","null","es,es-ES;q=0.9,en;q=0.8,en-GB;q=0.7,en-US;q=0.6","true","null","<p id=""stimulus"" style=""font-size:100px;"">26</p>","null","","","tone_number_task_remaining_before_delay","","26","","583","100","0","34",""
"","","","","","html-keyboard-response","183","1117101","0.0-234.0-0.0","15","1","2023-10-29 18:27:31","a725c3012b74bf33a1020a98cb69c237","186.158.228.113","Mozilla/5.0 (Windows NT 10.0; Win64; x64) AppleWebKit/537.36 (KHTML, like Gecko) Chrome/118.0.0.0 Safari/537.36 Edg/118.0.2088.76","WebKit","Edge","118.0.2088.76","Windows","10.0","null","es,es-ES;q=0.9,en;q=0.8,en-GB;q=0.7,en-US;q=0.6","true","261","<p id=""stimulus"" style=""font-size:100px;"">26</p>","j","","","empty_block","","26","","","","0","34",""
"","","","","","html-keyboard-response","184","1120053","0.0-235.0","15","1","2023-10-29 18:27:31","a725c3012b74bf33a1020a98cb69c237","186.158.228.113","Mozilla/5.0 (Windows NT 10.0; Win64; x64) AppleWebKit/537.36 (KHTML, like Gecko) Chrome/118.0.0.0 Safari/537.36 Edg/118.0.2088.76","WebKit","Edge","118.0.2088.76","Windows","10.0","null","es,es-ES;q=0.9,en;q=0.8,en-GB;q=0.7,en-US;q=0.6","true","null","<div style=""font-size:100px;"">X</div>","null","","","fixation","","","","","","","",""
"","","","","","audio-keyboard-response","185","1120563","0.0-236.0","15","1","2023-10-29 18:27:31","a725c3012b74bf33a1020a98cb69c237","186.158.228.113","Mozilla/5.0 (Windows NT 10.0; Win64; x64) AppleWebKit/537.36 (KHTML, like Gecko) Chrome/118.0.0.0 Safari/537.36 Edg/118.0.2088.76","WebKit","Edge","118.0.2088.76","Windows","10.0","null","es,es-ES;q=0.9,en;q=0.8,en-GB;q=0.7,en-US;q=0.6","true","499","tones/880hz_short.mp3","s","","","tone_number_task","992.5","44","tones/880hz_short.mp3","1142.5","100","0","35",""
"","","","","","html-keyboard-response","186","1121073","0.0-237.0-0.0","15","1","2023-10-29 18:27:31","a725c3012b74bf33a1020a98cb69c237","186.158.228.113","Mozilla/5.0 (Windows NT 10.0; Win64; x64) AppleWebKit/537.36 (KHTML, like Gecko) Chrome/118.0.0.0 Safari/537.36 Edg/118.0.2088.76","WebKit","Edge","118.0.2088.76","Windows","10.0","null","es,es-ES;q=0.9,en;q=0.8,en-GB;q=0.7,en-US;q=0.6","true","null","","null","","","delay_block","","","","","","0","35",""
"","","","","","html-keyboard-response","187","1121233","0.0-237.0-1.0","15","1","2023-10-29 18:27:31","a725c3012b74bf33a1020a98cb69c237","186.158.228.113","Mozilla/5.0 (Windows NT 10.0; Win64; x64) AppleWebKit/537.36 (KHTML, like Gecko) Chrome/118.0.0.0 Safari/537.36 Edg/118.0.2088.76","WebKit","Edge","118.0.2088.76","Windows","10.0","null","es,es-ES;q=0.9,en;q=0.8,en-GB;q=0.7,en-US;q=0.6","true","null","<p id=""stimulus"" style=""font-size:100px;"">44</p>","null","","","tone_number_task_remaining_before_delay","","44","","643.5","100","0","35",""
"","","","","","html-keyboard-response","188","1121534","0.0-240.0-0.0","15","1","2023-10-29 18:27:31","a725c3012b74bf33a1020a98cb69c237","186.158.228.113","Mozilla/5.0 (Windows NT 10.0; Win64; x64) AppleWebKit/537.36 (KHTML, like Gecko) Chrome/118.0.0.0 Safari/537.36 Edg/118.0.2088.76","WebKit","Edge","118.0.2088.76","Windows","10.0","null","es,es-ES;q=0.9,en;q=0.8,en-GB;q=0.7,en-US;q=0.6","true","297","<p id=""stimulus"" style=""font-size:100px;"">44</p>","k","","","empty_block","","44","","","","0","35",""
"","","","","","html-keyboard-response","189","1124482","0.0-241.0","15","1","2023-10-29 18:27:31","a725c3012b74bf33a1020a98cb69c237","186.158.228.113","Mozilla/5.0 (Windows NT 10.0; Win64; x64) AppleWebKit/537.36 (KHTML, like Gecko) Chrome/118.0.0.0 Safari/537.36 Edg/118.0.2088.76","WebKit","Edge","118.0.2088.76","Windows","10.0","null","es,es-ES;q=0.9,en;q=0.8,en-GB;q=0.7,en-US;q=0.6","true","null","<div style=""font-size:100px;"">X</div>","null","","","fixation","","","","","","","",""
"","","","","","audio-keyboard-response","190","1125551","0.0-242.0","15","1","2023-10-29 18:27:31","a725c3012b74bf33a1020a98cb69c237","186.158.228.113","Mozilla/5.0 (Windows NT 10.0; Win64; x64) AppleWebKit/537.36 (KHTML, like Gecko) Chrome/118.0.0.0 Safari/537.36 Edg/118.0.2088.76","WebKit","Edge","118.0.2088.76","Windows","10.0","null","es,es-ES;q=0.9,en;q=0.8,en-GB;q=0.7,en-US;q=0.6","true","1059","tones/880hz_short.mp3","s","","","tone_number_task","1025","61","tones/880hz_short.mp3","1175","100","0","36",""
"","","","","","html-keyboard-response","191","1125684","0.0-244.0-0.0","15","1","2023-10-29 18:27:31","a725c3012b74bf33a1020a98cb69c237","186.158.228.113","Mozilla/5.0 (Windows NT 10.0; Win64; x64) AppleWebKit/537.36 (KHTML, like Gecko) Chrome/118.0.0.0 Safari/537.36 Edg/118.0.2088.76","WebKit","Edge","118.0.2088.76","Windows","10.0","null","es,es-ES;q=0.9,en;q=0.8,en-GB;q=0.7,en-US;q=0.6","true","null","<p id=""stimulus"" style=""font-size:100px;"">61</p>","null","","","tone_number_task_remaining_after_delay","","61","","","100","0","36",""
"","","","","","html-keyboard-response","192","1126596","0.0-246.0-0.0","15","1","2023-10-29 18:27:31","a725c3012b74bf33a1020a98cb69c237","186.158.228.113","Mozilla/5.0 (Windows NT 10.0; Win64; x64) AppleWebKit/537.36 (KHTML, like Gecko) Chrome/118.0.0.0 Safari/537.36 Edg/118.0.2088.76","WebKit","Edge","118.0.2088.76","Windows","10.0","null","es,es-ES;q=0.9,en;q=0.8,en-GB;q=0.7,en-US;q=0.6","true","904","<p id=""stimulus"" style=""font-size:100px;"">61</p>","k","","","empty_block","","61","","","","0","36",""
"","","","","","html-keyboard-response","193","1129552","0.0-247.0","15","1","2023-10-29 18:27:31","a725c3012b74bf33a1020a98cb69c237","186.158.228.113","Mozilla/5.0 (Windows NT 10.0; Win64; x64) AppleWebKit/537.36 (KHTML, like Gecko) Chrome/118.0.0.0 Safari/537.36 Edg/118.0.2088.76","WebKit","Edge","118.0.2088.76","Windows","10.0","null","es,es-ES;q=0.9,en;q=0.8,en-GB;q=0.7,en-US;q=0.6","true","null","<div style=""font-size:100px;"">X</div>","null","","","fixation","","","","","","","",""
"","","","","","audio-keyboard-response","194","1129713","0.0-248.0","15","1","2023-10-29 18:27:31","a725c3012b74bf33a1020a98cb69c237","186.158.228.113","Mozilla/5.0 (Windows NT 10.0; Win64; x64) AppleWebKit/537.36 (KHTML, like Gecko) Chrome/118.0.0.0 Safari/537.36 Edg/118.0.2088.76","WebKit","Edge","118.0.2088.76","Windows","10.0","null","es,es-ES;q=0.9,en;q=0.8,en-GB;q=0.7,en-US;q=0.6","true","null","tones/440hz_short.mp3","null","","","tone_number_task","0","39","tones/440hz_short.mp3","150","100","0","37",""
"","","","","","html-keyboard-response","195","1130547","0.0-251.0-0.0","15","1","2023-10-29 18:27:31","a725c3012b74bf33a1020a98cb69c237","186.158.228.113","Mozilla/5.0 (Windows NT 10.0; Win64; x64) AppleWebKit/537.36 (KHTML, like Gecko) Chrome/118.0.0.0 Safari/537.36 Edg/118.0.2088.76","WebKit","Edge","118.0.2088.76","Windows","10.0","null","es,es-ES;q=0.9,en;q=0.8,en-GB;q=0.7,en-US;q=0.6","true","826","tones/440hz_short.mp3","a","","","empty_block","","39","","","","0","37",""
"","","","","","html-keyboard-response","196","1130779","0.0-251.0-1.0","15","1","2023-10-29 18:27:31","a725c3012b74bf33a1020a98cb69c237","186.158.228.113","Mozilla/5.0 (Windows NT 10.0; Win64; x64) AppleWebKit/537.36 (KHTML, like Gecko) Chrome/118.0.0.0 Safari/537.36 Edg/118.0.2088.76","WebKit","Edge","118.0.2088.76","Windows","10.0","null","es,es-ES;q=0.9,en;q=0.8,en-GB;q=0.7,en-US;q=0.6","true","223","tones/440hz_short.mp3","j","","","empty_block","","39","","","","0","37",""
