"success","timeout","failed_images","failed_audio","failed_video","trial_type","trial_index","time_elapsed","internal_node_id","run_id","condition","recorded_at","source_code_version","ip","user_agent","device","browser","browser_version","platform","platform_version","referer","accept_language","check","rt","stimulus","response","question_order","url","task","delay","number","audioFile","trial_duration","font_size","block","round","value"
"true","false","[]","[]","[]","preload","0","2012","0.0-0.0","28","1","2023-10-31 21:00:26","a725c3012b74bf33a1020a98cb69c237","38.122.7.210","Mozilla/5.0 (Windows NT 10.0; Win64; x64) AppleWebKit/537.36 (KHTML, like Gecko) Chrome/118.0.0.0 Safari/537.36","WebKit","Chrome","118.0.0.0","Windows","10.0","null","en-US,en;q=0.9","true","","","","","","","","","","","","","",""
"true","","","","","fullscreen","1","7192","0.0-1.0","28","1","2023-10-31 21:00:26","a725c3012b74bf33a1020a98cb69c237","38.122.7.210","Mozilla/5.0 (Windows NT 10.0; Win64; x64) AppleWebKit/537.36 (KHTML, like Gecko) Chrome/118.0.0.0 Safari/537.36","WebKit","Chrome","118.0.0.0","Windows","10.0","null","en-US,en;q=0.9","true","","","","","","","","","","","","","",""
"","","","","","html-button-response","2","10404","0.0-2.0","28","1","2023-10-31 21:00:26","a725c3012b74bf33a1020a98cb69c237","38.122.7.210","Mozilla/5.0 (Windows NT 10.0; Win64; x64) AppleWebKit/537.36 (KHTML, like Gecko) Chrome/118.0.0.0 Safari/537.36","WebKit","Chrome","118.0.0.0","Windows","10.0","null","en-US,en;q=0.9","true","3208","<p style=""font-size:24px; color:red;"">Cosas importantes a tener en cuenta antes de comenzar el experimento:</p>","0","","","","","","","","","","",""
"","","","","","html-button-response","3","16096","0.0-3.0","28","1","2023-10-31 21:00:26","a725c3012b74bf33a1020a98cb69c237","38.122.7.210","Mozilla/5.0 (Windows NT 10.0; Win64; x64) AppleWebKit/537.36 (KHTML, like Gecko) Chrome/118.0.0.0 Safari/537.36","WebKit","Chrome","118.0.0.0","Windows","10.0","null","en-US,en;q=0.9","true","5690","<p style=""font-size:24px;"">El experimento dura aproximadamente 15 minutos.</p><p style=""font-size:24px;"">Por favor, no cierres la ventana del navegador durante el experimento.</p><p style=""font-size:24px;"">Si se completa de forma parcial, no se guardará ningún resultado.</p>","0","","","","","","","","","","",""
"","","","","","html-button-response","4","20274","0.0-4.0","28","1","2023-10-31 21:00:26","a725c3012b74bf33a1020a98cb69c237","38.122.7.210","Mozilla/5.0 (Windows NT 10.0; Win64; x64) AppleWebKit/537.36 (KHTML, like Gecko) Chrome/118.0.0.0 Safari/537.36","WebKit","Chrome","118.0.0.0","Windows","10.0","null","en-US,en;q=0.9","true","4175","<p style=""font-size:24px;"">El experimento contiene estímulos sonoros.</p>","0","","","","","","","","","","",""
"","","","","","audio-button-response","5","24220","0.0-5.0-0.0","28","1","2023-10-31 21:00:26","a725c3012b74bf33a1020a98cb69c237","38.122.7.210","Mozilla/5.0 (Windows NT 10.0; Win64; x64) AppleWebKit/537.36 (KHTML, like Gecko) Chrome/118.0.0.0 Safari/537.36","WebKit","Chrome","118.0.0.0","Windows","10.0","null","en-US,en;q=0.9","true","2480","tones/440hz_short.mp3","1","","","","","","","","","","",""
"","","","","","audio-button-response","6","25591","0.0-6.0-0.0","28","1","2023-10-31 21:00:26","a725c3012b74bf33a1020a98cb69c237","38.122.7.210","Mozilla/5.0 (Windows NT 10.0; Win64; x64) AppleWebKit/537.36 (KHTML, like Gecko) Chrome/118.0.0.0 Safari/537.36","WebKit","Chrome","118.0.0.0","Windows","10.0","null","en-US,en;q=0.9","true","1371","tones/880hz_short.mp3","1","","","","","","","","","","",""
"","","","","","survey-html-form","7","29943","0.0-7.0","28","1","2023-10-31 21:00:26","a725c3012b74bf33a1020a98cb69c237","38.122.7.210","Mozilla/5.0 (Windows NT 10.0; Win64; x64) AppleWebKit/537.36 (KHTML, like Gecko) Chrome/118.0.0.0 Safari/537.36","WebKit","Chrome","118.0.0.0","Windows","10.0","null","en-US,en;q=0.9","true","4341","","{""response"":""36""}","","","","","","","","","","",""
"","","","","","survey-multi-choice","8","36041","0.0-8.0","28","1","2023-10-31 21:00:26","a725c3012b74bf33a1020a98cb69c237","38.122.7.210","Mozilla/5.0 (Windows NT 10.0; Win64; x64) AppleWebKit/537.36 (KHTML, like Gecko) Chrome/118.0.0.0 Safari/537.36","WebKit","Chrome","118.0.0.0","Windows","10.0","null","en-US,en;q=0.9","true","6093","","{""gender"":""Mujer"",""hand"":""Derecha""}","[0,1]","","","","","","","","","",""
"","","","","","external-html","9","95768","0.0-9.0","28","1","2023-10-31 21:00:26","a725c3012b74bf33a1020a98cb69c237","38.122.7.210","Mozilla/5.0 (Windows NT 10.0; Win64; x64) AppleWebKit/537.36 (KHTML, like Gecko) Chrome/118.0.0.0 Safari/537.36","WebKit","Chrome","118.0.0.0","Windows","10.0","null","en-US,en;q=0.9","true","58419","","","","instructions/instructions.html","","","","","","","","",""
"","","","","","external-html","10","122231","0.0-10.0","28","1","2023-10-31 21:00:26","a725c3012b74bf33a1020a98cb69c237","38.122.7.210","Mozilla/5.0 (Windows NT 10.0; Win64; x64) AppleWebKit/537.36 (KHTML, like Gecko) Chrome/118.0.0.0 Safari/537.36","WebKit","Chrome","118.0.0.0","Windows","10.0","null","en-US,en;q=0.9","true","24914","","","","instructions/animation.html","","","","","","","","",""
"","","","","","html-keyboard-response","11","124870","0.0-11.0-0.0","28","1","2023-10-31 21:00:26","a725c3012b74bf33a1020a98cb69c237","38.122.7.210","Mozilla/5.0 (Windows NT 10.0; Win64; x64) AppleWebKit/537.36 (KHTML, like Gecko) Chrome/118.0.0.0 Safari/537.36","WebKit","Chrome","118.0.0.0","Windows","10.0","null","en-US,en;q=0.9","true","null","<div style=""font-size:100px;"">X</div>","null","","","fixation","","","","","","","",""
"","","","","","audio-keyboard-response","12","125984","0.0-11.0-1.0","28","1","2023-10-31 21:00:26","a725c3012b74bf33a1020a98cb69c237","38.122.7.210","Mozilla/5.0 (Windows NT 10.0; Win64; x64) AppleWebKit/537.36 (KHTML, like Gecko) Chrome/118.0.0.0 Safari/537.36","WebKit","Chrome","118.0.0.0","Windows","10.0","null","en-US,en;q=0.9","true","1120","tones/880hz_short.mp3","s","","","tone_number_task","1000","55","tones/880hz_short.mp3","1150","100","null","null",""
"","","","","","html-keyboard-response","13","126017","0.0-11.0-3.0-0.0","28","1","2023-10-31 21:00:26","a725c3012b74bf33a1020a98cb69c237","38.122.7.210","Mozilla/5.0 (Windows NT 10.0; Win64; x64) AppleWebKit/537.36 (KHTML, like Gecko) Chrome/118.0.0.0 Safari/537.36","WebKit","Chrome","118.0.0.0","Windows","10.0","null","en-US,en;q=0.9","true","null","<p id=""stimulus"" style=""font-size:100px;"">55</p>","null","","","tone_number_task_remaining_after_delay","","55","","","100","null","null",""
"","","","","","html-keyboard-response","14","136022","0.0-11.0-5.0-0.0","28","1","2023-10-31 21:00:26","a725c3012b74bf33a1020a98cb69c237","38.122.7.210","Mozilla/5.0 (Windows NT 10.0; Win64; x64) AppleWebKit/537.36 (KHTML, like Gecko) Chrome/118.0.0.0 Safari/537.36","WebKit","Chrome","118.0.0.0","Windows","10.0","null","en-US,en;q=0.9","true","null","<p id=""stimulus"" style=""font-size:100px;"">55</p>","null","","","empty_block","","55","","","","null","null",""
"","","","","","html-keyboard-response","15","138657","0.0-13.0-0.0","28","1","2023-10-31 21:00:26","a725c3012b74bf33a1020a98cb69c237","38.122.7.210","Mozilla/5.0 (Windows NT 10.0; Win64; x64) AppleWebKit/537.36 (KHTML, like Gecko) Chrome/118.0.0.0 Safari/537.36","WebKit","Chrome","118.0.0.0","Windows","10.0","null","en-US,en;q=0.9","true","null","<div style=""font-size:100px;"">X</div>","null","","","fixation","","","","","","","",""
"","","","","","audio-keyboard-response","16","139323","0.0-13.0-1.0","28","1","2023-10-31 21:00:26","a725c3012b74bf33a1020a98cb69c237","38.122.7.210","Mozilla/5.0 (Windows NT 10.0; Win64; x64) AppleWebKit/537.36 (KHTML, like Gecko) Chrome/118.0.0.0 Safari/537.36","WebKit","Chrome","118.0.0.0","Windows","10.0","null","en-US,en;q=0.9","true","null","tones/880hz_short.mp3","null","","","tone_number_task","500","42","tones/880hz_short.mp3","650","100","null","null",""
"","","","","","html-keyboard-response","17","139529","0.0-13.0-4.0-0.0","28","1","2023-10-31 21:00:26","a725c3012b74bf33a1020a98cb69c237","38.122.7.210","Mozilla/5.0 (Windows NT 10.0; Win64; x64) AppleWebKit/537.36 (KHTML, like Gecko) Chrome/118.0.0.0 Safari/537.36","WebKit","Chrome","118.0.0.0","Windows","10.0","null","en-US,en;q=0.9","true","204","tones/880hz_short.mp3","s","","","empty_block","","42","","","","null","null",""
"","","","","","html-keyboard-response","18","139883","0.0-13.0-4.0-1.0","28","1","2023-10-31 21:00:26","a725c3012b74bf33a1020a98cb69c237","38.122.7.210","Mozilla/5.0 (Windows NT 10.0; Win64; x64) AppleWebKit/537.36 (KHTML, like Gecko) Chrome/118.0.0.0 Safari/537.36","WebKit","Chrome","118.0.0.0","Windows","10.0","null","en-US,en;q=0.9","true","351","tones/880hz_short.mp3","k","","","empty_block","","42","","","","null","null",""
"","","","","","html-button-response","19","144115","0.0-13.0-6.0-0.0","28","1","2023-10-31 21:00:26","a725c3012b74bf33a1020a98cb69c237","38.122.7.210","Mozilla/5.0 (Windows NT 10.0; Win64; x64) AppleWebKit/537.36 (KHTML, like Gecko) Chrome/118.0.0.0 Safari/537.36","WebKit","Chrome","118.0.0.0","Windows","10.0","null","en-US,en;q=0.9","true","4228","
  '<p style=""font-size:24px; color:red;"">Incorrecto</p><p> Respondiste alguno de los estímulos de manera incorrecta.</p><p>Por favor, repasá las instrucciones y seguimos desde donde nos quedamos. </p>
  ","0","","","","","","","","","","",""
"","","","","","external-html","20","153510","0.0-13.0-6.0-1.0","28","1","2023-10-31 21:00:26","a725c3012b74bf33a1020a98cb69c237","38.122.7.210","Mozilla/5.0 (Windows NT 10.0; Win64; x64) AppleWebKit/537.36 (KHTML, like Gecko) Chrome/118.0.0.0 Safari/537.36","WebKit","Chrome","118.0.0.0","Windows","10.0","null","en-US,en;q=0.9","true","8105","","","","instructions/instructions_B.html","","","","","","","","",""
"","","","","","html-keyboard-response","21","156149","0.0-13.1-0.1","28","1","2023-10-31 21:00:26","a725c3012b74bf33a1020a98cb69c237","38.122.7.210","Mozilla/5.0 (Windows NT 10.0; Win64; x64) AppleWebKit/537.36 (KHTML, like Gecko) Chrome/118.0.0.0 Safari/537.36","WebKit","Chrome","118.0.0.0","Windows","10.0","null","en-US,en;q=0.9","true","null","<div style=""font-size:100px;"">X</div>","null","","","fixation","","","","","","","",""
"","","","","","audio-keyboard-response","22","156804","0.0-13.1-1.1","28","1","2023-10-31 21:00:26","a725c3012b74bf33a1020a98cb69c237","38.122.7.210","Mozilla/5.0 (Windows NT 10.0; Win64; x64) AppleWebKit/537.36 (KHTML, like Gecko) Chrome/118.0.0.0 Safari/537.36","WebKit","Chrome","118.0.0.0","Windows","10.0","null","en-US,en;q=0.9","true","null","tones/880hz_short.mp3","null","","","tone_number_task","500","42","tones/880hz_short.mp3","650","100","null","null",""
"","","","","","html-keyboard-response","23","159037","0.0-13.1-4.1-0.1","28","1","2023-10-31 21:00:26","a725c3012b74bf33a1020a98cb69c237","38.122.7.210","Mozilla/5.0 (Windows NT 10.0; Win64; x64) AppleWebKit/537.36 (KHTML, like Gecko) Chrome/118.0.0.0 Safari/537.36","WebKit","Chrome","118.0.0.0","Windows","10.0","null","en-US,en;q=0.9","true","2232","tones/880hz_short.mp3","s","","","empty_block","","42","","","","null","null",""
"","","","","","html-keyboard-response","24","161050","0.0-13.1-4.1-1.1","28","1","2023-10-31 21:00:26","a725c3012b74bf33a1020a98cb69c237","38.122.7.210","Mozilla/5.0 (Windows NT 10.0; Win64; x64) AppleWebKit/537.36 (KHTML, like Gecko) Chrome/118.0.0.0 Safari/537.36","WebKit","Chrome","118.0.0.0","Windows","10.0","null","en-US,en;q=0.9","true","2010","tones/880hz_short.mp3","j","","","empty_block","","42","","","","null","null",""
"","","","","","html-keyboard-response","25","163691","0.0-15.0-0.0","28","1","2023-10-31 21:00:26","a725c3012b74bf33a1020a98cb69c237","38.122.7.210","Mozilla/5.0 (Windows NT 10.0; Win64; x64) AppleWebKit/537.36 (KHTML, like Gecko) Chrome/118.0.0.0 Safari/537.36","WebKit","Chrome","118.0.0.0","Windows","10.0","null","en-US,en;q=0.9","true","null","<div style=""font-size:100px;"">X</div>","null","","","fixation","","","","","","","",""
"","","","","","audio-keyboard-response","26","163994","0.0-15.0-1.0","28","1","2023-10-31 21:00:26","a725c3012b74bf33a1020a98cb69c237","38.122.7.210","Mozilla/5.0 (Windows NT 10.0; Win64; x64) AppleWebKit/537.36 (KHTML, like Gecko) Chrome/118.0.0.0 Safari/537.36","WebKit","Chrome","118.0.0.0","Windows","10.0","null","en-US,en;q=0.9","true","null","tones/880hz_short.mp3","null","","","tone_number_task","150","41","tones/880hz_short.mp3","300","100","null","null",""
"","","","","","html-keyboard-response","27","165751","0.0-15.0-4.0-0.0","28","1","2023-10-31 21:00:26","a725c3012b74bf33a1020a98cb69c237","38.122.7.210","Mozilla/5.0 (Windows NT 10.0; Win64; x64) AppleWebKit/537.36 (KHTML, like Gecko) Chrome/118.0.0.0 Safari/537.36","WebKit","Chrome","118.0.0.0","Windows","10.0","null","en-US,en;q=0.9","true","1754","tones/880hz_short.mp3","s","","","empty_block","","41","","","","null","null",""
"","","","","","html-keyboard-response","28","166015","0.0-15.0-4.0-1.0","28","1","2023-10-31 21:00:26","a725c3012b74bf33a1020a98cb69c237","38.122.7.210","Mozilla/5.0 (Windows NT 10.0; Win64; x64) AppleWebKit/537.36 (KHTML, like Gecko) Chrome/118.0.0.0 Safari/537.36","WebKit","Chrome","118.0.0.0","Windows","10.0","null","en-US,en;q=0.9","true","261","tones/880hz_short.mp3","j","","","empty_block","","41","","","","null","null",""
"","","","","","html-keyboard-response","29","168649","0.0-17.0-0.0","28","1","2023-10-31 21:00:26","a725c3012b74bf33a1020a98cb69c237","38.122.7.210","Mozilla/5.0 (Windows NT 10.0; Win64; x64) AppleWebKit/537.36 (KHTML, like Gecko) Chrome/118.0.0.0 Safari/537.36","WebKit","Chrome","118.0.0.0","Windows","10.0","null","en-US,en;q=0.9","true","null","<div style=""font-size:100px;"">X</div>","null","","","fixation","","","","","","","",""
"","","","","","audio-keyboard-response","30","168854","0.0-17.0-1.0","28","1","2023-10-31 21:00:26","a725c3012b74bf33a1020a98cb69c237","38.122.7.210","Mozilla/5.0 (Windows NT 10.0; Win64; x64) AppleWebKit/537.36 (KHTML, like Gecko) Chrome/118.0.0.0 Safari/537.36","WebKit","Chrome","118.0.0.0","Windows","10.0","null","en-US,en;q=0.9","true","null","tones/880hz_short.mp3","null","","","tone_number_task","50","40","tones/880hz_short.mp3","200","100","null","null",""
"","","","","","html-keyboard-response","31","169610","0.0-17.0-4.0-0.0","28","1","2023-10-31 21:00:26","a725c3012b74bf33a1020a98cb69c237","38.122.7.210","Mozilla/5.0 (Windows NT 10.0; Win64; x64) AppleWebKit/537.36 (KHTML, like Gecko) Chrome/118.0.0.0 Safari/537.36","WebKit","Chrome","118.0.0.0","Windows","10.0","null","en-US,en;q=0.9","true","753","tones/880hz_short.mp3","s","","","empty_block","","40","","","","null","null",""
"","","","","","html-keyboard-response","32","169800","0.0-17.0-4.0-1.0","28","1","2023-10-31 21:00:26","a725c3012b74bf33a1020a98cb69c237","38.122.7.210","Mozilla/5.0 (Windows NT 10.0; Win64; x64) AppleWebKit/537.36 (KHTML, like Gecko) Chrome/118.0.0.0 Safari/537.36","WebKit","Chrome","118.0.0.0","Windows","10.0","null","en-US,en;q=0.9","true","186","tones/880hz_short.mp3","j","","","empty_block","","40","","","","null","null",""
"","","","","","html-button-response","33","174700","0.0-19.0","28","1","2023-10-31 21:00:26","a725c3012b74bf33a1020a98cb69c237","38.122.7.210","Mozilla/5.0 (Windows NT 10.0; Win64; x64) AppleWebKit/537.36 (KHTML, like Gecko) Chrome/118.0.0.0 Safari/537.36","WebKit","Chrome","118.0.0.0","Windows","10.0","null","en-US,en;q=0.9","true","4896","
  <h1> Muy bien </h1>
  <p> Ahora, en vez de ser presentados en dígitos, los números vendrán escritos en palabras. </p>
  <p> Por ejemplo, en vez de 44 te aparecerá ""cuarenta y cuatro"". </p>
  ","0","","","","","","","","","","",""
"","","","","","html-keyboard-response","34","177334","0.0-20.0-0.0","28","1","2023-10-31 21:00:26","a725c3012b74bf33a1020a98cb69c237","38.122.7.210","Mozilla/5.0 (Windows NT 10.0; Win64; x64) AppleWebKit/537.36 (KHTML, like Gecko) Chrome/118.0.0.0 Safari/537.36","WebKit","Chrome","118.0.0.0","Windows","10.0","null","en-US,en;q=0.9","true","null","<div style=""font-size:100px;"">X</div>","null","","","fixation","","","","","","","",""
"","","","","","audio-keyboard-response","35","178049","0.0-20.0-1.0","28","1","2023-10-31 21:00:26","a725c3012b74bf33a1020a98cb69c237","38.122.7.210","Mozilla/5.0 (Windows NT 10.0; Win64; x64) AppleWebKit/537.36 (KHTML, like Gecko) Chrome/118.0.0.0 Safari/537.36","WebKit","Chrome","118.0.0.0","Windows","10.0","null","en-US,en;q=0.9","true","709","tones/440hz_short.mp3","a","","","tone_number_task","1000","veintisiete","tones/440hz_short.mp3","1150","60","null","null",""
"","","","","","html-keyboard-response","36","178345","0.0-20.0-2.0-0.0","28","1","2023-10-31 21:00:26","a725c3012b74bf33a1020a98cb69c237","38.122.7.210","Mozilla/5.0 (Windows NT 10.0; Win64; x64) AppleWebKit/537.36 (KHTML, like Gecko) Chrome/118.0.0.0 Safari/537.36","WebKit","Chrome","118.0.0.0","Windows","10.0","null","en-US,en;q=0.9","true","null","","null","","","delay_block","","","","","","null","null",""
"","","","","","html-keyboard-response","37","178499","0.0-20.0-2.0-1.0","28","1","2023-10-31 21:00:26","a725c3012b74bf33a1020a98cb69c237","38.122.7.210","Mozilla/5.0 (Windows NT 10.0; Win64; x64) AppleWebKit/537.36 (KHTML, like Gecko) Chrome/118.0.0.0 Safari/537.36","WebKit","Chrome","118.0.0.0","Windows","10.0","null","en-US,en;q=0.9","true","null","<p id=""stimulus"" style=""font-size:60px;"">veintisiete</p>","null","","","tone_number_task_remaining_before_delay","","veintisiete","","441","60","null","null",""
"","","","","","html-keyboard-response","38","179522","0.0-20.0-5.0-0.0","28","1","2023-10-31 21:00:26","a725c3012b74bf33a1020a98cb69c237","38.122.7.210","Mozilla/5.0 (Windows NT 10.0; Win64; x64) AppleWebKit/537.36 (KHTML, like Gecko) Chrome/118.0.0.0 Safari/537.36","WebKit","Chrome","118.0.0.0","Windows","10.0","null","en-US,en;q=0.9","true","1020","<p id=""stimulus"" style=""font-size:60px;"">veintisiete</p>","j","","","empty_block","","veintisiete","","","","null","null",""
"","","","","","html-button-response","39","188908","0.0-22.0","28","1","2023-10-31 21:00:26","a725c3012b74bf33a1020a98cb69c237","38.122.7.210","Mozilla/5.0 (Windows NT 10.0; Win64; x64) AppleWebKit/537.36 (KHTML, like Gecko) Chrome/118.0.0.0 Safari/537.36","WebKit","Chrome","118.0.0.0","Windows","10.0","null","en-US,en;q=0.9","true","9383","
  <h1> Fin del Entrenamiento </h1>
  <p> ¡Felicitaciones, terminaste el entrenamiento! Ahora vamos a comenzar con el experimento. </p>
  <p> Es importante tener en cuenta que consta de cuatro bloques.</p>
  <p> Podés aprovechar los momentos entre bloques para tomar un breve descanso o tomar agua entre cada uno</p>
  <p> Recordá que tenés que responder lo más rápido que puedas, pero sin equivocarte. </p>
  ","0","","","","","","","","","","",""
"","","","","","external-html","40","206852","0.0-23.0","28","1","2023-10-31 21:00:26","a725c3012b74bf33a1020a98cb69c237","38.122.7.210","Mozilla/5.0 (Windows NT 10.0; Win64; x64) AppleWebKit/537.36 (KHTML, like Gecko) Chrome/118.0.0.0 Safari/537.36","WebKit","Chrome","118.0.0.0","Windows","10.0","null","en-US,en;q=0.9","true","16582","","","","instructions/instructions_words_first.html","","","","","","","","",""
"","","","","","call-function","41","206859","0.0-24.0","28","1","2023-10-31 21:00:26","a725c3012b74bf33a1020a98cb69c237","38.122.7.210","Mozilla/5.0 (Windows NT 10.0; Win64; x64) AppleWebKit/537.36 (KHTML, like Gecko) Chrome/118.0.0.0 Safari/537.36","WebKit","Chrome","118.0.0.0","Windows","10.0","null","en-US,en;q=0.9","true","","","","","","","","","","","","","",""
"","","","","","html-keyboard-response","42","209496","0.0-25.0","28","1","2023-10-31 21:00:26","a725c3012b74bf33a1020a98cb69c237","38.122.7.210","Mozilla/5.0 (Windows NT 10.0; Win64; x64) AppleWebKit/537.36 (KHTML, like Gecko) Chrome/118.0.0.0 Safari/537.36","WebKit","Chrome","118.0.0.0","Windows","10.0","null","en-US,en;q=0.9","true","null","<div style=""font-size:100px;"">X</div>","null","","","fixation","","","","","","","",""
"","","","","","audio-keyboard-response","43","209650","0.0-26.0","28","1","2023-10-31 21:00:26","a725c3012b74bf33a1020a98cb69c237","38.122.7.210","Mozilla/5.0 (Windows NT 10.0; Win64; x64) AppleWebKit/537.36 (KHTML, like Gecko) Chrome/118.0.0.0 Safari/537.36","WebKit","Chrome","118.0.0.0","Windows","10.0","null","en-US,en;q=0.9","true","null","tones/440hz_short.mp3","null","","","tone_number_task","0","sesenta","tones/440hz_short.mp3","150","60","2","0",""
"","","","","","html-keyboard-response","44","210440","0.0-29.0-0.0","28","1","2023-10-31 21:00:26","a725c3012b74bf33a1020a98cb69c237","38.122.7.210","Mozilla/5.0 (Windows NT 10.0; Win64; x64) AppleWebKit/537.36 (KHTML, like Gecko) Chrome/118.0.0.0 Safari/537.36","WebKit","Chrome","118.0.0.0","Windows","10.0","null","en-US,en;q=0.9","true","785","tones/440hz_short.mp3","k","","","empty_block","","sesenta","","","","2","0",""
"","","","","","html-keyboard-response","45","211644","0.0-29.0-1.0","28","1","2023-10-31 21:00:26","a725c3012b74bf33a1020a98cb69c237","38.122.7.210","Mozilla/5.0 (Windows NT 10.0; Win64; x64) AppleWebKit/537.36 (KHTML, like Gecko) Chrome/118.0.0.0 Safari/537.36","WebKit","Chrome","118.0.0.0","Windows","10.0","null","en-US,en;q=0.9","true","null","tones/440hz_short.mp3","null","","","empty_block","","sesenta","","","","2","0",""
"","","","","","html-keyboard-response","46","214279","0.0-31.0","28","1","2023-10-31 21:00:26","a725c3012b74bf33a1020a98cb69c237","38.122.7.210","Mozilla/5.0 (Windows NT 10.0; Win64; x64) AppleWebKit/537.36 (KHTML, like Gecko) Chrome/118.0.0.0 Safari/537.36","WebKit","Chrome","118.0.0.0","Windows","10.0","null","en-US,en;q=0.9","true","null","<div style=""font-size:100px;"">X</div>","null","","","fixation","","","","","","","",""
"","","","","","audio-keyboard-response","47","214537","0.0-32.0","28","1","2023-10-31 21:00:26","a725c3012b74bf33a1020a98cb69c237","38.122.7.210","Mozilla/5.0 (Windows NT 10.0; Win64; x64) AppleWebKit/537.36 (KHTML, like Gecko) Chrome/118.0.0.0 Safari/537.36","WebKit","Chrome","118.0.0.0","Windows","10.0","null","en-US,en;q=0.9","true","null","tones/880hz_short.mp3","null","","","tone_number_task","102.5","treinta y siete","tones/880hz_short.mp3","252.5","60","2","1",""
"","","","","","html-keyboard-response","48","215740","0.0-35.0-0.0","28","1","2023-10-31 21:00:26","a725c3012b74bf33a1020a98cb69c237","38.122.7.210","Mozilla/5.0 (Windows NT 10.0; Win64; x64) AppleWebKit/537.36 (KHTML, like Gecko) Chrome/118.0.0.0 Safari/537.36","WebKit","Chrome","118.0.0.0","Windows","10.0","null","en-US,en;q=0.9","true","null","tones/880hz_short.mp3","null","","","empty_block","","treinta y siete","","","","2","1",""
"","","","","","html-keyboard-response","49","216032","0.0-35.0-1.0","28","1","2023-10-31 21:00:26","a725c3012b74bf33a1020a98cb69c237","38.122.7.210","Mozilla/5.0 (Windows NT 10.0; Win64; x64) AppleWebKit/537.36 (KHTML, like Gecko) Chrome/118.0.0.0 Safari/537.36","WebKit","Chrome","118.0.0.0","Windows","10.0","null","en-US,en;q=0.9","true","288","tones/880hz_short.mp3","s","","","empty_block","","treinta y siete","","","","2","1",""
"","","","","","html-keyboard-response","50","218667","0.0-37.0","28","1","2023-10-31 21:00:26","a725c3012b74bf33a1020a98cb69c237","38.122.7.210","Mozilla/5.0 (Windows NT 10.0; Win64; x64) AppleWebKit/537.36 (KHTML, like Gecko) Chrome/118.0.0.0 Safari/537.36","WebKit","Chrome","118.0.0.0","Windows","10.0","null","en-US,en;q=0.9","true","null","<div style=""font-size:100px;"">X</div>","null","","","fixation","","","","","","","",""
"","","","","","audio-keyboard-response","51","219627","0.0-38.0","28","1","2023-10-31 21:00:26","a725c3012b74bf33a1020a98cb69c237","38.122.7.210","Mozilla/5.0 (Windows NT 10.0; Win64; x64) AppleWebKit/537.36 (KHTML, like Gecko) Chrome/118.0.0.0 Safari/537.36","WebKit","Chrome","118.0.0.0","Windows","10.0","null","en-US,en;q=0.9","true","960","tones/440hz_short.mp3","a","","","tone_number_task","1025","treinta y cinco","tones/440hz_short.mp3","1175","60","2","2",""
"","","","","","html-keyboard-response","52","219696","0.0-39.0-0.0","28","1","2023-10-31 21:00:26","a725c3012b74bf33a1020a98cb69c237","38.122.7.210","Mozilla/5.0 (Windows NT 10.0; Win64; x64) AppleWebKit/537.36 (KHTML, like Gecko) Chrome/118.0.0.0 Safari/537.36","WebKit","Chrome","118.0.0.0","Windows","10.0","null","en-US,en;q=0.9","true","null","","null","","","delay_block","","","","","","2","2",""
"","","","","","html-keyboard-response","53","219852","0.0-39.0-1.0","28","1","2023-10-31 21:00:26","a725c3012b74bf33a1020a98cb69c237","38.122.7.210","Mozilla/5.0 (Windows NT 10.0; Win64; x64) AppleWebKit/537.36 (KHTML, like Gecko) Chrome/118.0.0.0 Safari/537.36","WebKit","Chrome","118.0.0.0","Windows","10.0","null","en-US,en;q=0.9","true","null","<p id=""stimulus"" style=""font-size:60px;"">treinta y cinco</p>","null","","","tone_number_task_remaining_before_delay","","treinta y cinco","","215","60","2","2",""
"","","","","","html-keyboard-response","54","220855","0.0-42.0-0.0","28","1","2023-10-31 21:00:26","a725c3012b74bf33a1020a98cb69c237","38.122.7.210","Mozilla/5.0 (Windows NT 10.0; Win64; x64) AppleWebKit/537.36 (KHTML, like Gecko) Chrome/118.0.0.0 Safari/537.36","WebKit","Chrome","118.0.0.0","Windows","10.0","null","en-US,en;q=0.9","true","999","<p id=""stimulus"" style=""font-size:60px;"">treinta y cinco</p>","k","","","empty_block","","treinta y cinco","","","","2","2",""
"","","","","","html-keyboard-response","55","223491","0.0-43.0","28","1","2023-10-31 21:00:26","a725c3012b74bf33a1020a98cb69c237","38.122.7.210","Mozilla/5.0 (Windows NT 10.0; Win64; x64) AppleWebKit/537.36 (KHTML, like Gecko) Chrome/118.0.0.0 Safari/537.36","WebKit","Chrome","118.0.0.0","Windows","10.0","null","en-US,en;q=0.9","true","null","<div style=""font-size:100px;"">X</div>","null","","","fixation","","","","","","","",""
"","","","","","audio-keyboard-response","56","223647","0.0-44.0","28","1","2023-10-31 21:00:26","a725c3012b74bf33a1020a98cb69c237","38.122.7.210","Mozilla/5.0 (Windows NT 10.0; Win64; x64) AppleWebKit/537.36 (KHTML, like Gecko) Chrome/118.0.0.0 Safari/537.36","WebKit","Chrome","118.0.0.0","Windows","10.0","null","en-US,en;q=0.9","true","null","tones/880hz_short.mp3","null","","","tone_number_task","0","cincuenta y tres","tones/880hz_short.mp3","150","60","2","3",""
"","","","","","html-keyboard-response","57","224852","0.0-47.0-0.0","28","1","2023-10-31 21:00:26","a725c3012b74bf33a1020a98cb69c237","38.122.7.210","Mozilla/5.0 (Windows NT 10.0; Win64; x64) AppleWebKit/537.36 (KHTML, like Gecko) Chrome/118.0.0.0 Safari/537.36","WebKit","Chrome","118.0.0.0","Windows","10.0","null","en-US,en;q=0.9","true","null","tones/880hz_short.mp3","null","","","empty_block","","cincuenta y tres","","","","2","3",""
"","","","","","html-keyboard-response","58","224901","0.0-47.0-1.0","28","1","2023-10-31 21:00:26","a725c3012b74bf33a1020a98cb69c237","38.122.7.210","Mozilla/5.0 (Windows NT 10.0; Win64; x64) AppleWebKit/537.36 (KHTML, like Gecko) Chrome/118.0.0.0 Safari/537.36","WebKit","Chrome","118.0.0.0","Windows","10.0","null","en-US,en;q=0.9","true","45","tones/880hz_short.mp3","k","","","empty_block","","cincuenta y tres","","","","2","3",""
"","","","","","html-keyboard-response","59","227538","0.0-49.0","28","1","2023-10-31 21:00:26","a725c3012b74bf33a1020a98cb69c237","38.122.7.210","Mozilla/5.0 (Windows NT 10.0; Win64; x64) AppleWebKit/537.36 (KHTML, like Gecko) Chrome/118.0.0.0 Safari/537.36","WebKit","Chrome","118.0.0.0","Windows","10.0","null","en-US,en;q=0.9","true","null","<div style=""font-size:100px;"">X</div>","null","","","fixation","","","","","","","",""
"","","","","","audio-keyboard-response","60","228718","0.0-50.0","28","1","2023-10-31 21:00:26","a725c3012b74bf33a1020a98cb69c237","38.122.7.210","Mozilla/5.0 (Windows NT 10.0; Win64; x64) AppleWebKit/537.36 (KHTML, like Gecko) Chrome/118.0.0.0 Safari/537.36","WebKit","Chrome","118.0.0.0","Windows","10.0","null","en-US,en;q=0.9","true","null","tones/880hz_short.mp3","null","","","tone_number_task","1025","veintiuno","tones/880hz_short.mp3","1175","60","2","4",""
"","","","","","html-keyboard-response","61","228796","0.0-53.0-0.0","28","1","2023-10-31 21:00:26","a725c3012b74bf33a1020a98cb69c237","38.122.7.210","Mozilla/5.0 (Windows NT 10.0; Win64; x64) AppleWebKit/537.36 (KHTML, like Gecko) Chrome/118.0.0.0 Safari/537.36","WebKit","Chrome","118.0.0.0","Windows","10.0","null","en-US,en;q=0.9","true","74","tones/880hz_short.mp3","s","","","empty_block","","veintiuno","","","","2","4",""
"","","","","","html-keyboard-response","62","229292","0.0-53.0-1.0","28","1","2023-10-31 21:00:26","a725c3012b74bf33a1020a98cb69c237","38.122.7.210","Mozilla/5.0 (Windows NT 10.0; Win64; x64) AppleWebKit/537.36 (KHTML, like Gecko) Chrome/118.0.0.0 Safari/537.36","WebKit","Chrome","118.0.0.0","Windows","10.0","null","en-US,en;q=0.9","true","491","tones/880hz_short.mp3","j","","","empty_block","","veintiuno","","","","2","4",""
"","","","","","html-keyboard-response","63","231928","0.0-55.0","28","1","2023-10-31 21:00:26","a725c3012b74bf33a1020a98cb69c237","38.122.7.210","Mozilla/5.0 (Windows NT 10.0; Win64; x64) AppleWebKit/537.36 (KHTML, like Gecko) Chrome/118.0.0.0 Safari/537.36","WebKit","Chrome","118.0.0.0","Windows","10.0","null","en-US,en;q=0.9","true","null","<div style=""font-size:100px;"">X</div>","null","","","fixation","","","","","","","",""
"","","","","","audio-keyboard-response","64","232083","0.0-56.0","28","1","2023-10-31 21:00:26","a725c3012b74bf33a1020a98cb69c237","38.122.7.210","Mozilla/5.0 (Windows NT 10.0; Win64; x64) AppleWebKit/537.36 (KHTML, like Gecko) Chrome/118.0.0.0 Safari/537.36","WebKit","Chrome","118.0.0.0","Windows","10.0","null","en-US,en;q=0.9","true","null","tones/880hz_short.mp3","null","","","tone_number_task","0","cincuenta y tres","tones/880hz_short.mp3","150","60","2","5",""
"","","","","","html-keyboard-response","65","232787","0.0-59.0-0.0","28","1","2023-10-31 21:00:26","a725c3012b74bf33a1020a98cb69c237","38.122.7.210","Mozilla/5.0 (Windows NT 10.0; Win64; x64) AppleWebKit/537.36 (KHTML, like Gecko) Chrome/118.0.0.0 Safari/537.36","WebKit","Chrome","118.0.0.0","Windows","10.0","null","en-US,en;q=0.9","true","700","tones/880hz_short.mp3","s","","","empty_block","","cincuenta y tres","","","","2","5",""
"","","","","","html-keyboard-response","66","233198","0.0-59.0-1.0","28","1","2023-10-31 21:00:26","a725c3012b74bf33a1020a98cb69c237","38.122.7.210","Mozilla/5.0 (Windows NT 10.0; Win64; x64) AppleWebKit/537.36 (KHTML, like Gecko) Chrome/118.0.0.0 Safari/537.36","WebKit","Chrome","118.0.0.0","Windows","10.0","null","en-US,en;q=0.9","true","404","tones/880hz_short.mp3","k","","","empty_block","","cincuenta y tres","","","","2","5",""
"","","","","","html-keyboard-response","67","235834","0.0-61.0","28","1","2023-10-31 21:00:26","a725c3012b74bf33a1020a98cb69c237","38.122.7.210","Mozilla/5.0 (Windows NT 10.0; Win64; x64) AppleWebKit/537.36 (KHTML, like Gecko) Chrome/118.0.0.0 Safari/537.36","WebKit","Chrome","118.0.0.0","Windows","10.0","null","en-US,en;q=0.9","true","null","<div style=""font-size:100px;"">X</div>","null","","","fixation","","","","","","","",""
"","","","","","audio-keyboard-response","68","236474","0.0-62.0","28","1","2023-10-31 21:00:26","a725c3012b74bf33a1020a98cb69c237","38.122.7.210","Mozilla/5.0 (Windows NT 10.0; Win64; x64) AppleWebKit/537.36 (KHTML, like Gecko) Chrome/118.0.0.0 Safari/537.36","WebKit","Chrome","118.0.0.0","Windows","10.0","null","en-US,en;q=0.9","true","629","tones/440hz_short.mp3","a","","","tone_number_task","1025","treinta y siete","tones/440hz_short.mp3","1175","60","2","6",""
"","","","","","html-keyboard-response","69","236876","0.0-63.0-0.0","28","1","2023-10-31 21:00:26","a725c3012b74bf33a1020a98cb69c237","38.122.7.210","Mozilla/5.0 (Windows NT 10.0; Win64; x64) AppleWebKit/537.36 (KHTML, like Gecko) Chrome/118.0.0.0 Safari/537.36","WebKit","Chrome","118.0.0.0","Windows","10.0","null","en-US,en;q=0.9","true","null","","null","","","delay_block","","","","","","2","6",""
"","","","","","html-keyboard-response","70","237032","0.0-63.0-1.0","28","1","2023-10-31 21:00:26","a725c3012b74bf33a1020a98cb69c237","38.122.7.210","Mozilla/5.0 (Windows NT 10.0; Win64; x64) AppleWebKit/537.36 (KHTML, like Gecko) Chrome/118.0.0.0 Safari/537.36","WebKit","Chrome","118.0.0.0","Windows","10.0","null","en-US,en;q=0.9","true","null","<p id=""stimulus"" style=""font-size:60px;"">treinta y siete</p>","null","","","tone_number_task_remaining_before_delay","","treinta y siete","","546","60","2","6",""
"","","","","","html-keyboard-response","71","237743","0.0-66.0-0.0","28","1","2023-10-31 21:00:26","a725c3012b74bf33a1020a98cb69c237","38.122.7.210","Mozilla/5.0 (Windows NT 10.0; Win64; x64) AppleWebKit/537.36 (KHTML, like Gecko) Chrome/118.0.0.0 Safari/537.36","WebKit","Chrome","118.0.0.0","Windows","10.0","null","en-US,en;q=0.9","true","706","<p id=""stimulus"" style=""font-size:60px;"">treinta y siete</p>","j","","","empty_block","","treinta y siete","","","","2","6",""
"","","","","","html-keyboard-response","72","240382","0.0-67.0","28","1","2023-10-31 21:00:26","a725c3012b74bf33a1020a98cb69c237","38.122.7.210","Mozilla/5.0 (Windows NT 10.0; Win64; x64) AppleWebKit/537.36 (KHTML, like Gecko) Chrome/118.0.0.0 Safari/537.36","WebKit","Chrome","118.0.0.0","Windows","10.0","null","en-US,en;q=0.9","true","null","<div style=""font-size:100px;"">X</div>","null","","","fixation","","","","","","","",""
"","","","","","audio-keyboard-response","73","240638","0.0-68.0","28","1","2023-10-31 21:00:26","a725c3012b74bf33a1020a98cb69c237","38.122.7.210","Mozilla/5.0 (Windows NT 10.0; Win64; x64) AppleWebKit/537.36 (KHTML, like Gecko) Chrome/118.0.0.0 Safari/537.36","WebKit","Chrome","118.0.0.0","Windows","10.0","null","en-US,en;q=0.9","true","null","tones/880hz_short.mp3","null","","","tone_number_task","102.5","veintitres","tones/880hz_short.mp3","252.5","60","2","7",""
"","","","","","html-keyboard-response","74","240939","0.0-71.0-0.0","28","1","2023-10-31 21:00:26","a725c3012b74bf33a1020a98cb69c237","38.122.7.210","Mozilla/5.0 (Windows NT 10.0; Win64; x64) AppleWebKit/537.36 (KHTML, like Gecko) Chrome/118.0.0.0 Safari/537.36","WebKit","Chrome","118.0.0.0","Windows","10.0","null","en-US,en;q=0.9","true","295","tones/880hz_short.mp3","s","","","empty_block","","veintitres","","","","2","7",""
"","","","","","html-keyboard-response","75","242144","0.0-71.0-1.0","28","1","2023-10-31 21:00:26","a725c3012b74bf33a1020a98cb69c237","38.122.7.210","Mozilla/5.0 (Windows NT 10.0; Win64; x64) AppleWebKit/537.36 (KHTML, like Gecko) Chrome/118.0.0.0 Safari/537.36","WebKit","Chrome","118.0.0.0","Windows","10.0","null","en-US,en;q=0.9","true","null","tones/880hz_short.mp3","null","","","empty_block","","veintitres","","","","2","7",""
"","","","","","html-keyboard-response","76","244778","0.0-73.0","28","1","2023-10-31 21:00:26","a725c3012b74bf33a1020a98cb69c237","38.122.7.210","Mozilla/5.0 (Windows NT 10.0; Win64; x64) AppleWebKit/537.36 (KHTML, like Gecko) Chrome/118.0.0.0 Safari/537.36","WebKit","Chrome","118.0.0.0","Windows","10.0","null","en-US,en;q=0.9","true","null","<div style=""font-size:100px;"">X</div>","null","","","fixation","","","","","","","",""
"","","","","","audio-keyboard-response","77","245038","0.0-74.0","28","1","2023-10-31 21:00:26","a725c3012b74bf33a1020a98cb69c237","38.122.7.210","Mozilla/5.0 (Windows NT 10.0; Win64; x64) AppleWebKit/537.36 (KHTML, like Gecko) Chrome/118.0.0.0 Safari/537.36","WebKit","Chrome","118.0.0.0","Windows","10.0","null","en-US,en;q=0.9","true","null","tones/880hz_short.mp3","null","","","tone_number_task","102.5","cuarenta","tones/880hz_short.mp3","252.5","60","2","8",""
"","","","","","html-keyboard-response","78","246251","0.0-77.0-0.0","28","1","2023-10-31 21:00:26","a725c3012b74bf33a1020a98cb69c237","38.122.7.210","Mozilla/5.0 (Windows NT 10.0; Win64; x64) AppleWebKit/537.36 (KHTML, like Gecko) Chrome/118.0.0.0 Safari/537.36","WebKit","Chrome","118.0.0.0","Windows","10.0","null","en-US,en;q=0.9","true","null","tones/880hz_short.mp3","null","","","empty_block","","cuarenta","","","","2","8",""
"","","","","","html-keyboard-response","79","246657","0.0-77.0-1.0","28","1","2023-10-31 21:00:26","a725c3012b74bf33a1020a98cb69c237","38.122.7.210","Mozilla/5.0 (Windows NT 10.0; Win64; x64) AppleWebKit/537.36 (KHTML, like Gecko) Chrome/118.0.0.0 Safari/537.36","WebKit","Chrome","118.0.0.0","Windows","10.0","null","en-US,en;q=0.9","true","402","tones/880hz_short.mp3","k","","","empty_block","","cuarenta","","","","2","8",""
"","","","","","html-keyboard-response","80","249294","0.0-79.0","28","1","2023-10-31 21:00:26","a725c3012b74bf33a1020a98cb69c237","38.122.7.210","Mozilla/5.0 (Windows NT 10.0; Win64; x64) AppleWebKit/537.36 (KHTML, like Gecko) Chrome/118.0.0.0 Safari/537.36","WebKit","Chrome","118.0.0.0","Windows","10.0","null","en-US,en;q=0.9","true","null","<div style=""font-size:100px;"">X</div>","null","","","fixation","","","","","","","",""
"","","","","","audio-keyboard-response","81","250398","0.0-80.0","28","1","2023-10-31 21:00:26","a725c3012b74bf33a1020a98cb69c237","38.122.7.210","Mozilla/5.0 (Windows NT 10.0; Win64; x64) AppleWebKit/537.36 (KHTML, like Gecko) Chrome/118.0.0.0 Safari/537.36","WebKit","Chrome","118.0.0.0","Windows","10.0","null","en-US,en;q=0.9","true","1101","tones/880hz_short.mp3","s","","","tone_number_task","1025","cuarenta y seis","tones/880hz_short.mp3","1175","60","2","9",""
"","","","","","html-keyboard-response","82","250478","0.0-82.0-0.0","28","1","2023-10-31 21:00:26","a725c3012b74bf33a1020a98cb69c237","38.122.7.210","Mozilla/5.0 (Windows NT 10.0; Win64; x64) AppleWebKit/537.36 (KHTML, like Gecko) Chrome/118.0.0.0 Safari/537.36","WebKit","Chrome","118.0.0.0","Windows","10.0","null","en-US,en;q=0.9","true","null","<p id=""stimulus"" style=""font-size:60px;"">cuarenta y seis</p>","null","","","tone_number_task_remaining_after_delay","","cuarenta y seis","","","60","2","9",""
"","","","","","html-keyboard-response","83","251684","0.0-84.0-0.0","28","1","2023-10-31 21:00:26","a725c3012b74bf33a1020a98cb69c237","38.122.7.210","Mozilla/5.0 (Windows NT 10.0; Win64; x64) AppleWebKit/537.36 (KHTML, like Gecko) Chrome/118.0.0.0 Safari/537.36","WebKit","Chrome","118.0.0.0","Windows","10.0","null","en-US,en;q=0.9","true","null","<p id=""stimulus"" style=""font-size:60px;"">cuarenta y seis</p>","null","","","empty_block","","cuarenta y seis","","","","2","9",""
"","","","","","html-keyboard-response","84","254321","0.0-85.0","28","1","2023-10-31 21:00:26","a725c3012b74bf33a1020a98cb69c237","38.122.7.210","Mozilla/5.0 (Windows NT 10.0; Win64; x64) AppleWebKit/537.36 (KHTML, like Gecko) Chrome/118.0.0.0 Safari/537.36","WebKit","Chrome","118.0.0.0","Windows","10.0","null","en-US,en;q=0.9","true","null","<div style=""font-size:100px;"">X</div>","null","","","fixation","","","","","","","",""
"","","","","","audio-keyboard-response","85","255502","0.0-86.0","28","1","2023-10-31 21:00:26","a725c3012b74bf33a1020a98cb69c237","38.122.7.210","Mozilla/5.0 (Windows NT 10.0; Win64; x64) AppleWebKit/537.36 (KHTML, like Gecko) Chrome/118.0.0.0 Safari/537.36","WebKit","Chrome","118.0.0.0","Windows","10.0","null","en-US,en;q=0.9","true","null","tones/440hz_short.mp3","null","","","tone_number_task","1025","sesenta y uno","tones/440hz_short.mp3","1175","60","2","10",""
"","","","","","html-keyboard-response","86","255541","0.0-89.0-0.0","28","1","2023-10-31 21:00:26","a725c3012b74bf33a1020a98cb69c237","38.122.7.210","Mozilla/5.0 (Windows NT 10.0; Win64; x64) AppleWebKit/537.36 (KHTML, like Gecko) Chrome/118.0.0.0 Safari/537.36","WebKit","Chrome","118.0.0.0","Windows","10.0","null","en-US,en;q=0.9","true","32","tones/440hz_short.mp3","a","","","empty_block","","sesenta y uno","","","","2","10",""
"","","","","","html-keyboard-response","87","256166","0.0-89.0-1.0","28","1","2023-10-31 21:00:26","a725c3012b74bf33a1020a98cb69c237","38.122.7.210","Mozilla/5.0 (Windows NT 10.0; Win64; x64) AppleWebKit/537.36 (KHTML, like Gecko) Chrome/118.0.0.0 Safari/537.36","WebKit","Chrome","118.0.0.0","Windows","10.0","null","en-US,en;q=0.9","true","620","tones/440hz_short.mp3","k","","","empty_block","","sesenta y uno","","","","2","10",""
"","","","","","html-keyboard-response","88","258803","0.0-91.0","28","1","2023-10-31 21:00:26","a725c3012b74bf33a1020a98cb69c237","38.122.7.210","Mozilla/5.0 (Windows NT 10.0; Win64; x64) AppleWebKit/537.36 (KHTML, like Gecko) Chrome/118.0.0.0 Safari/537.36","WebKit","Chrome","118.0.0.0","Windows","10.0","null","en-US,en;q=0.9","true","null","<div style=""font-size:100px;"">X</div>","null","","","fixation","","","","","","","",""
"","","","","","audio-keyboard-response","89","259062","0.0-92.0","28","1","2023-10-31 21:00:26","a725c3012b74bf33a1020a98cb69c237","38.122.7.210","Mozilla/5.0 (Windows NT 10.0; Win64; x64) AppleWebKit/537.36 (KHTML, like Gecko) Chrome/118.0.0.0 Safari/537.36","WebKit","Chrome","118.0.0.0","Windows","10.0","null","en-US,en;q=0.9","true","null","tones/880hz_short.mp3","null","","","tone_number_task","102.5","cuarenta y seis","tones/880hz_short.mp3","252.5","60","2","11",""
"","","","","","html-keyboard-response","90","259957","0.0-95.0-0.0","28","1","2023-10-31 21:00:26","a725c3012b74bf33a1020a98cb69c237","38.122.7.210","Mozilla/5.0 (Windows NT 10.0; Win64; x64) AppleWebKit/537.36 (KHTML, like Gecko) Chrome/118.0.0.0 Safari/537.36","WebKit","Chrome","118.0.0.0","Windows","10.0","null","en-US,en;q=0.9","true","890","tones/880hz_short.mp3","j","","","empty_block","","cuarenta y seis","","","","2","11",""
"","","","","","html-keyboard-response","91","260226","0.0-95.0-1.0","28","1","2023-10-31 21:00:26","a725c3012b74bf33a1020a98cb69c237","38.122.7.210","Mozilla/5.0 (Windows NT 10.0; Win64; x64) AppleWebKit/537.36 (KHTML, like Gecko) Chrome/118.0.0.0 Safari/537.36","WebKit","Chrome","118.0.0.0","Windows","10.0","null","en-US,en;q=0.9","true","263","tones/880hz_short.mp3","s","","","empty_block","","cuarenta y seis","","","","2","11",""
"","","","","","html-keyboard-response","92","262862","0.0-97.0","28","1","2023-10-31 21:00:26","a725c3012b74bf33a1020a98cb69c237","38.122.7.210","Mozilla/5.0 (Windows NT 10.0; Win64; x64) AppleWebKit/537.36 (KHTML, like Gecko) Chrome/118.0.0.0 Safari/537.36","WebKit","Chrome","118.0.0.0","Windows","10.0","null","en-US,en;q=0.9","true","null","<div style=""font-size:100px;"">X</div>","null","","","fixation","","","","","","","",""
"","","","","","audio-keyboard-response","93","263595","0.0-98.0","28","1","2023-10-31 21:00:26","a725c3012b74bf33a1020a98cb69c237","38.122.7.210","Mozilla/5.0 (Windows NT 10.0; Win64; x64) AppleWebKit/537.36 (KHTML, like Gecko) Chrome/118.0.0.0 Safari/537.36","WebKit","Chrome","118.0.0.0","Windows","10.0","null","en-US,en;q=0.9","true","731","tones/880hz_short.mp3","s","","","tone_number_task","992.5","treinta y cuatro","tones/880hz_short.mp3","1142.5","60","2","12",""
"","","","","","html-keyboard-response","94","263861","0.0-99.0-0.0","28","1","2023-10-31 21:00:26","a725c3012b74bf33a1020a98cb69c237","38.122.7.210","Mozilla/5.0 (Windows NT 10.0; Win64; x64) AppleWebKit/537.36 (KHTML, like Gecko) Chrome/118.0.0.0 Safari/537.36","WebKit","Chrome","118.0.0.0","Windows","10.0","null","en-US,en;q=0.9","true","null","","null","","","delay_block","","","","","","2","12",""
"","","","","","html-keyboard-response","95","264017","0.0-99.0-1.0","28","1","2023-10-31 21:00:26","a725c3012b74bf33a1020a98cb69c237","38.122.7.210","Mozilla/5.0 (Windows NT 10.0; Win64; x64) AppleWebKit/537.36 (KHTML, like Gecko) Chrome/118.0.0.0 Safari/537.36","WebKit","Chrome","118.0.0.0","Windows","10.0","null","en-US,en;q=0.9","true","null","<p id=""stimulus"" style=""font-size:60px;"">treinta y cuatro</p>","null","","","tone_number_task_remaining_before_delay","","treinta y cuatro","","411.5","60","2","12",""
"","","","","","html-keyboard-response","96","264759","0.0-102.0-0.0","28","1","2023-10-31 21:00:26","a725c3012b74bf33a1020a98cb69c237","38.122.7.210","Mozilla/5.0 (Windows NT 10.0; Win64; x64) AppleWebKit/537.36 (KHTML, like Gecko) Chrome/118.0.0.0 Safari/537.36","WebKit","Chrome","118.0.0.0","Windows","10.0","null","en-US,en;q=0.9","true","735","<p id=""stimulus"" style=""font-size:60px;"">treinta y cuatro</p>","j","","","empty_block","","treinta y cuatro","","","","2","12",""
"","","","","","html-keyboard-response","97","267396","0.0-103.0","28","1","2023-10-31 21:00:26","a725c3012b74bf33a1020a98cb69c237","38.122.7.210","Mozilla/5.0 (Windows NT 10.0; Win64; x64) AppleWebKit/537.36 (KHTML, like Gecko) Chrome/118.0.0.0 Safari/537.36","WebKit","Chrome","118.0.0.0","Windows","10.0","null","en-US,en;q=0.9","true","null","<div style=""font-size:100px;"">X</div>","null","","","fixation","","","","","","","",""
"","","","","","audio-keyboard-response","98","267655","0.0-104.0","28","1","2023-10-31 21:00:26","a725c3012b74bf33a1020a98cb69c237","38.122.7.210","Mozilla/5.0 (Windows NT 10.0; Win64; x64) AppleWebKit/537.36 (KHTML, like Gecko) Chrome/118.0.0.0 Safari/537.36","WebKit","Chrome","118.0.0.0","Windows","10.0","null","en-US,en;q=0.9","true","null","tones/880hz_short.mp3","null","","","tone_number_task","102.5","sesenta y cinco","tones/880hz_short.mp3","252.5","60","2","13",""
"","","","","","html-keyboard-response","99","268455","0.0-107.0-0.0","28","1","2023-10-31 21:00:26","a725c3012b74bf33a1020a98cb69c237","38.122.7.210","Mozilla/5.0 (Windows NT 10.0; Win64; x64) AppleWebKit/537.36 (KHTML, like Gecko) Chrome/118.0.0.0 Safari/537.36","WebKit","Chrome","118.0.0.0","Windows","10.0","null","en-US,en;q=0.9","true","796","tones/880hz_short.mp3","s","","","empty_block","","sesenta y cinco","","","","2","13",""
"","","","","","html-keyboard-response","100","268614","0.0-107.0-1.0","28","1","2023-10-31 21:00:26","a725c3012b74bf33a1020a98cb69c237","38.122.7.210","Mozilla/5.0 (Windows NT 10.0; Win64; x64) AppleWebKit/537.36 (KHTML, like Gecko) Chrome/118.0.0.0 Safari/537.36","WebKit","Chrome","118.0.0.0","Windows","10.0","null","en-US,en;q=0.9","true","153","tones/880hz_short.mp3","k","","","empty_block","","sesenta y cinco","","","","2","13",""
"","","","","","html-keyboard-response","101","271252","0.0-109.0","28","1","2023-10-31 21:00:26","a725c3012b74bf33a1020a98cb69c237","38.122.7.210","Mozilla/5.0 (Windows NT 10.0; Win64; x64) AppleWebKit/537.36 (KHTML, like Gecko) Chrome/118.0.0.0 Safari/537.36","WebKit","Chrome","118.0.0.0","Windows","10.0","null","en-US,en;q=0.9","true","null","<div style=""font-size:100px;"">X</div>","null","","","fixation","","","","","","","",""
"","","","","","audio-keyboard-response","102","271412","0.0-110.0","28","1","2023-10-31 21:00:26","a725c3012b74bf33a1020a98cb69c237","38.122.7.210","Mozilla/5.0 (Windows NT 10.0; Win64; x64) AppleWebKit/537.36 (KHTML, like Gecko) Chrome/118.0.0.0 Safari/537.36","WebKit","Chrome","118.0.0.0","Windows","10.0","null","en-US,en;q=0.9","true","null","tones/880hz_short.mp3","null","","","tone_number_task","0","cincuenta y seis","tones/880hz_short.mp3","150","60","2","14",""
"","","","","","html-keyboard-response","103","272535","0.0-113.0-0.0","28","1","2023-10-31 21:00:26","a725c3012b74bf33a1020a98cb69c237","38.122.7.210","Mozilla/5.0 (Windows NT 10.0; Win64; x64) AppleWebKit/537.36 (KHTML, like Gecko) Chrome/118.0.0.0 Safari/537.36","WebKit","Chrome","118.0.0.0","Windows","10.0","null","en-US,en;q=0.9","true","1115","tones/880hz_short.mp3","s","","","empty_block","","cincuenta y seis","","","","2","14",""
"","","","","","html-keyboard-response","104","272688","0.0-113.0-1.0","28","1","2023-10-31 21:00:26","a725c3012b74bf33a1020a98cb69c237","38.122.7.210","Mozilla/5.0 (Windows NT 10.0; Win64; x64) AppleWebKit/537.36 (KHTML, like Gecko) Chrome/118.0.0.0 Safari/537.36","WebKit","Chrome","118.0.0.0","Windows","10.0","null","en-US,en;q=0.9","true","146","tones/880hz_short.mp3","j","","","empty_block","","cincuenta y seis","","","","2","14",""
"","","","","","html-keyboard-response","105","275327","0.0-115.0","28","1","2023-10-31 21:00:26","a725c3012b74bf33a1020a98cb69c237","38.122.7.210","Mozilla/5.0 (Windows NT 10.0; Win64; x64) AppleWebKit/537.36 (KHTML, like Gecko) Chrome/118.0.0.0 Safari/537.36","WebKit","Chrome","118.0.0.0","Windows","10.0","null","en-US,en;q=0.9","true","null","<div style=""font-size:100px;"">X</div>","null","","","fixation","","","","","","","",""
"","","","","","audio-keyboard-response","106","275483","0.0-116.0","28","1","2023-10-31 21:00:26","a725c3012b74bf33a1020a98cb69c237","38.122.7.210","Mozilla/5.0 (Windows NT 10.0; Win64; x64) AppleWebKit/537.36 (KHTML, like Gecko) Chrome/118.0.0.0 Safari/537.36","WebKit","Chrome","118.0.0.0","Windows","10.0","null","en-US,en;q=0.9","true","null","tones/880hz_short.mp3","null","","","tone_number_task","0","veintidós","tones/880hz_short.mp3","150","60","2","15",""
"","","","","","html-keyboard-response","107","276149","0.0-119.0-0.0","28","1","2023-10-31 21:00:26","a725c3012b74bf33a1020a98cb69c237","38.122.7.210","Mozilla/5.0 (Windows NT 10.0; Win64; x64) AppleWebKit/537.36 (KHTML, like Gecko) Chrome/118.0.0.0 Safari/537.36","WebKit","Chrome","118.0.0.0","Windows","10.0","null","en-US,en;q=0.9","true","659","tones/880hz_short.mp3","s","","","empty_block","","veintidós","","","","2","15",""
"","","","","","html-keyboard-response","108","276296","0.0-119.0-1.0","28","1","2023-10-31 21:00:26","a725c3012b74bf33a1020a98cb69c237","38.122.7.210","Mozilla/5.0 (Windows NT 10.0; Win64; x64) AppleWebKit/537.36 (KHTML, like Gecko) Chrome/118.0.0.0 Safari/537.36","WebKit","Chrome","118.0.0.0","Windows","10.0","null","en-US,en;q=0.9","true","142","tones/880hz_short.mp3","j","","","empty_block","","veintidós","","","","2","15",""
"","","","","","html-keyboard-response","109","278934","0.0-121.0","28","1","2023-10-31 21:00:26","a725c3012b74bf33a1020a98cb69c237","38.122.7.210","Mozilla/5.0 (Windows NT 10.0; Win64; x64) AppleWebKit/537.36 (KHTML, like Gecko) Chrome/118.0.0.0 Safari/537.36","WebKit","Chrome","118.0.0.0","Windows","10.0","null","en-US,en;q=0.9","true","null","<div style=""font-size:100px;"">X</div>","null","","","fixation","","","","","","","",""
"","","","","","audio-keyboard-response","110","279093","0.0-122.0","28","1","2023-10-31 21:00:26","a725c3012b74bf33a1020a98cb69c237","38.122.7.210","Mozilla/5.0 (Windows NT 10.0; Win64; x64) AppleWebKit/537.36 (KHTML, like Gecko) Chrome/118.0.0.0 Safari/537.36","WebKit","Chrome","118.0.0.0","Windows","10.0","null","en-US,en;q=0.9","true","null","tones/440hz_short.mp3","null","","","tone_number_task","0","treinta y uno","tones/440hz_short.mp3","150","60","2","16",""
"","","","","","html-keyboard-response","111","279893","0.0-125.0-0.0","28","1","2023-10-31 21:00:26","a725c3012b74bf33a1020a98cb69c237","38.122.7.210","Mozilla/5.0 (Windows NT 10.0; Win64; x64) AppleWebKit/537.36 (KHTML, like Gecko) Chrome/118.0.0.0 Safari/537.36","WebKit","Chrome","118.0.0.0","Windows","10.0","null","en-US,en;q=0.9","true","795","tones/440hz_short.mp3","s","","","empty_block","","treinta y uno","","","","2","16",""
"","","","","","html-keyboard-response","112","279945","0.0-125.0-1.0","28","1","2023-10-31 21:00:26","a725c3012b74bf33a1020a98cb69c237","38.122.7.210","Mozilla/5.0 (Windows NT 10.0; Win64; x64) AppleWebKit/537.36 (KHTML, like Gecko) Chrome/118.0.0.0 Safari/537.36","WebKit","Chrome","118.0.0.0","Windows","10.0","null","en-US,en;q=0.9","true","46","tones/440hz_short.mp3","k","","","empty_block","","treinta y uno","","","","2","16",""
"","","","","","html-keyboard-response","113","282583","0.0-127.0","28","1","2023-10-31 21:00:26","a725c3012b74bf33a1020a98cb69c237","38.122.7.210","Mozilla/5.0 (Windows NT 10.0; Win64; x64) AppleWebKit/537.36 (KHTML, like Gecko) Chrome/118.0.0.0 Safari/537.36","WebKit","Chrome","118.0.0.0","Windows","10.0","null","en-US,en;q=0.9","true","null","<div style=""font-size:100px;"">X</div>","null","","","fixation","","","","","","","",""
"","","","","","audio-keyboard-response","114","283543","0.0-128.0","28","1","2023-10-31 21:00:26","a725c3012b74bf33a1020a98cb69c237","38.122.7.210","Mozilla/5.0 (Windows NT 10.0; Win64; x64) AppleWebKit/537.36 (KHTML, like Gecko) Chrome/118.0.0.0 Safari/537.36","WebKit","Chrome","118.0.0.0","Windows","10.0","null","en-US,en;q=0.9","true","949","tones/880hz_short.mp3","s","","","tone_number_task","1025","cincuenta y siete","tones/880hz_short.mp3","1175","60","2","17",""
"","","","","","html-keyboard-response","115","283636","0.0-129.0-0.0","28","1","2023-10-31 21:00:26","a725c3012b74bf33a1020a98cb69c237","38.122.7.210","Mozilla/5.0 (Windows NT 10.0; Win64; x64) AppleWebKit/537.36 (KHTML, like Gecko) Chrome/118.0.0.0 Safari/537.36","WebKit","Chrome","118.0.0.0","Windows","10.0","null","en-US,en;q=0.9","true","null","","null","","","delay_block","","","","","","2","17",""
"","","","","","html-keyboard-response","116","283794","0.0-129.0-1.0","28","1","2023-10-31 21:00:26","a725c3012b74bf33a1020a98cb69c237","38.122.7.210","Mozilla/5.0 (Windows NT 10.0; Win64; x64) AppleWebKit/537.36 (KHTML, like Gecko) Chrome/118.0.0.0 Safari/537.36","WebKit","Chrome","118.0.0.0","Windows","10.0","null","en-US,en;q=0.9","true","null","<p id=""stimulus"" style=""font-size:60px;"">cincuenta y siete</p>","null","","","tone_number_task_remaining_before_delay","","cincuenta y siete","","226","60","2","17",""
"","","","","","html-keyboard-response","117","285002","0.0-132.0-0.0","28","1","2023-10-31 21:00:26","a725c3012b74bf33a1020a98cb69c237","38.122.7.210","Mozilla/5.0 (Windows NT 10.0; Win64; x64) AppleWebKit/537.36 (KHTML, like Gecko) Chrome/118.0.0.0 Safari/537.36","WebKit","Chrome","118.0.0.0","Windows","10.0","null","en-US,en;q=0.9","true","null","<p id=""stimulus"" style=""font-size:60px;"">cincuenta y siete</p>","null","","","empty_block","","cincuenta y siete","","","","2","17",""
"","","","","","html-keyboard-response","118","287640","0.0-133.0","28","1","2023-10-31 21:00:26","a725c3012b74bf33a1020a98cb69c237","38.122.7.210","Mozilla/5.0 (Windows NT 10.0; Win64; x64) AppleWebKit/537.36 (KHTML, like Gecko) Chrome/118.0.0.0 Safari/537.36","WebKit","Chrome","118.0.0.0","Windows","10.0","null","en-US,en;q=0.9","true","null","<div style=""font-size:100px;"">X</div>","null","","","fixation","","","","","","","",""
"","","","","","audio-keyboard-response","119","288417","0.0-134.0","28","1","2023-10-31 21:00:26","a725c3012b74bf33a1020a98cb69c237","38.122.7.210","Mozilla/5.0 (Windows NT 10.0; Win64; x64) AppleWebKit/537.36 (KHTML, like Gecko) Chrome/118.0.0.0 Safari/537.36","WebKit","Chrome","118.0.0.0","Windows","10.0","null","en-US,en;q=0.9","true","768","tones/880hz_short.mp3","s","","","tone_number_task","992.5","veintidós","tones/880hz_short.mp3","1142.5","60","2","18",""
"","","","","","html-keyboard-response","120","288652","0.0-135.0-0.0","28","1","2023-10-31 21:00:26","a725c3012b74bf33a1020a98cb69c237","38.122.7.210","Mozilla/5.0 (Windows NT 10.0; Win64; x64) AppleWebKit/537.36 (KHTML, like Gecko) Chrome/118.0.0.0 Safari/537.36","WebKit","Chrome","118.0.0.0","Windows","10.0","null","en-US,en;q=0.9","true","null","","null","","","delay_block","","","","","","2","18",""
"","","","","","html-keyboard-response","121","288811","0.0-135.0-1.0","28","1","2023-10-31 21:00:26","a725c3012b74bf33a1020a98cb69c237","38.122.7.210","Mozilla/5.0 (Windows NT 10.0; Win64; x64) AppleWebKit/537.36 (KHTML, like Gecko) Chrome/118.0.0.0 Safari/537.36","WebKit","Chrome","118.0.0.0","Windows","10.0","null","en-US,en;q=0.9","true","null","<p id=""stimulus"" style=""font-size:60px;"">veintidós</p>","null","","","tone_number_task_remaining_before_delay","","veintidós","","374.5","60","2","18",""
"","","","","","html-keyboard-response","122","289420","0.0-138.0-0.0","28","1","2023-10-31 21:00:26","a725c3012b74bf33a1020a98cb69c237","38.122.7.210","Mozilla/5.0 (Windows NT 10.0; Win64; x64) AppleWebKit/537.36 (KHTML, like Gecko) Chrome/118.0.0.0 Safari/537.36","WebKit","Chrome","118.0.0.0","Windows","10.0","null","en-US,en;q=0.9","true","602","<p id=""stimulus"" style=""font-size:60px;"">veintidós</p>","j","","","empty_block","","veintidós","","","","2","18",""
"","","","","","html-keyboard-response","123","292058","0.0-139.0","28","1","2023-10-31 21:00:26","a725c3012b74bf33a1020a98cb69c237","38.122.7.210","Mozilla/5.0 (Windows NT 10.0; Win64; x64) AppleWebKit/537.36 (KHTML, like Gecko) Chrome/118.0.0.0 Safari/537.36","WebKit","Chrome","118.0.0.0","Windows","10.0","null","en-US,en;q=0.9","true","null","<div style=""font-size:100px;"">X</div>","null","","","fixation","","","","","","","",""
"","","","","","audio-keyboard-response","124","292817","0.0-140.0","28","1","2023-10-31 21:00:26","a725c3012b74bf33a1020a98cb69c237","38.122.7.210","Mozilla/5.0 (Windows NT 10.0; Win64; x64) AppleWebKit/537.36 (KHTML, like Gecko) Chrome/118.0.0.0 Safari/537.36","WebKit","Chrome","118.0.0.0","Windows","10.0","null","en-US,en;q=0.9","true","749","tones/880hz_short.mp3","s","","","tone_number_task","1025","cincuenta y siete","tones/880hz_short.mp3","1175","60","2","19",""
"","","","","","html-keyboard-response","125","293100","0.0-141.0-0.0","28","1","2023-10-31 21:00:26","a725c3012b74bf33a1020a98cb69c237","38.122.7.210","Mozilla/5.0 (Windows NT 10.0; Win64; x64) AppleWebKit/537.36 (KHTML, like Gecko) Chrome/118.0.0.0 Safari/537.36","WebKit","Chrome","118.0.0.0","Windows","10.0","null","en-US,en;q=0.9","true","null","","null","","","delay_block","","","","","","2","19",""
"","","","","","html-keyboard-response","126","293258","0.0-141.0-1.0","28","1","2023-10-31 21:00:26","a725c3012b74bf33a1020a98cb69c237","38.122.7.210","Mozilla/5.0 (Windows NT 10.0; Win64; x64) AppleWebKit/537.36 (KHTML, like Gecko) Chrome/118.0.0.0 Safari/537.36","WebKit","Chrome","118.0.0.0","Windows","10.0","null","en-US,en;q=0.9","true","null","<p id=""stimulus"" style=""font-size:60px;"">cincuenta y siete</p>","null","","","tone_number_task_remaining_before_delay","","cincuenta y siete","","426","60","2","19",""
"","","","","","html-keyboard-response","127","293983","0.0-144.0-0.0","28","1","2023-10-31 21:00:26","a725c3012b74bf33a1020a98cb69c237","38.122.7.210","Mozilla/5.0 (Windows NT 10.0; Win64; x64) AppleWebKit/537.36 (KHTML, like Gecko) Chrome/118.0.0.0 Safari/537.36","WebKit","Chrome","118.0.0.0","Windows","10.0","null","en-US,en;q=0.9","true","719","<p id=""stimulus"" style=""font-size:60px;"">cincuenta y siete</p>","k","","","empty_block","","cincuenta y siete","","","","2","19",""
"","","","","","html-keyboard-response","128","296620","0.0-145.0","28","1","2023-10-31 21:00:26","a725c3012b74bf33a1020a98cb69c237","38.122.7.210","Mozilla/5.0 (Windows NT 10.0; Win64; x64) AppleWebKit/537.36 (KHTML, like Gecko) Chrome/118.0.0.0 Safari/537.36","WebKit","Chrome","118.0.0.0","Windows","10.0","null","en-US,en;q=0.9","true","null","<div style=""font-size:100px;"">X</div>","null","","","fixation","","","","","","","",""
"","","","","","audio-keyboard-response","129","297285","0.0-146.0","28","1","2023-10-31 21:00:26","a725c3012b74bf33a1020a98cb69c237","38.122.7.210","Mozilla/5.0 (Windows NT 10.0; Win64; x64) AppleWebKit/537.36 (KHTML, like Gecko) Chrome/118.0.0.0 Safari/537.36","WebKit","Chrome","118.0.0.0","Windows","10.0","null","en-US,en;q=0.9","true","661","tones/440hz_short.mp3","a","","","tone_number_task","992.5","cuarenta y dos","tones/440hz_short.mp3","1142.5","60","2","20",""
"","","","","","html-keyboard-response","130","297633","0.0-147.0-0.0","28","1","2023-10-31 21:00:26","a725c3012b74bf33a1020a98cb69c237","38.122.7.210","Mozilla/5.0 (Windows NT 10.0; Win64; x64) AppleWebKit/537.36 (KHTML, like Gecko) Chrome/118.0.0.0 Safari/537.36","WebKit","Chrome","118.0.0.0","Windows","10.0","null","en-US,en;q=0.9","true","null","","null","","","delay_block","","","","","","2","20",""
"","","","","","html-keyboard-response","131","297804","0.0-147.0-1.0","28","1","2023-10-31 21:00:26","a725c3012b74bf33a1020a98cb69c237","38.122.7.210","Mozilla/5.0 (Windows NT 10.0; Win64; x64) AppleWebKit/537.36 (KHTML, like Gecko) Chrome/118.0.0.0 Safari/537.36","WebKit","Chrome","118.0.0.0","Windows","10.0","null","en-US,en;q=0.9","true","null","<p id=""stimulus"" style=""font-size:60px;"">cuarenta y dos</p>","null","","","tone_number_task_remaining_before_delay","","cuarenta y dos","","481.5","60","2","20",""
"","","","","","html-keyboard-response","132","299014","0.0-150.0-0.0","28","1","2023-10-31 21:00:26","a725c3012b74bf33a1020a98cb69c237","38.122.7.210","Mozilla/5.0 (Windows NT 10.0; Win64; x64) AppleWebKit/537.36 (KHTML, like Gecko) Chrome/118.0.0.0 Safari/537.36","WebKit","Chrome","118.0.0.0","Windows","10.0","null","en-US,en;q=0.9","true","null","<p id=""stimulus"" style=""font-size:60px;"">cuarenta y dos</p>","null","","","empty_block","","cuarenta y dos","","","","2","20",""
"","","","","","html-keyboard-response","133","301651","0.0-151.0","28","1","2023-10-31 21:00:26","a725c3012b74bf33a1020a98cb69c237","38.122.7.210","Mozilla/5.0 (Windows NT 10.0; Win64; x64) AppleWebKit/537.36 (KHTML, like Gecko) Chrome/118.0.0.0 Safari/537.36","WebKit","Chrome","118.0.0.0","Windows","10.0","null","en-US,en;q=0.9","true","null","<div style=""font-size:100px;"">X</div>","null","","","fixation","","","","","","","",""
"","","","","","audio-keyboard-response","134","302527","0.0-152.0","28","1","2023-10-31 21:00:26","a725c3012b74bf33a1020a98cb69c237","38.122.7.210","Mozilla/5.0 (Windows NT 10.0; Win64; x64) AppleWebKit/537.36 (KHTML, like Gecko) Chrome/118.0.0.0 Safari/537.36","WebKit","Chrome","118.0.0.0","Windows","10.0","null","en-US,en;q=0.9","true","872","tones/440hz_short.mp3","a","","","tone_number_task","992.5","sesenta y cuatro","tones/440hz_short.mp3","1142.5","60","2","21",""
"","","","","","html-keyboard-response","135","302653","0.0-153.0-0.0","28","1","2023-10-31 21:00:26","a725c3012b74bf33a1020a98cb69c237","38.122.7.210","Mozilla/5.0 (Windows NT 10.0; Win64; x64) AppleWebKit/537.36 (KHTML, like Gecko) Chrome/118.0.0.0 Safari/537.36","WebKit","Chrome","118.0.0.0","Windows","10.0","null","en-US,en;q=0.9","true","null","","null","","","delay_block","","","","","","2","21",""
"","","","","","html-keyboard-response","136","302814","0.0-153.0-1.0","28","1","2023-10-31 21:00:26","a725c3012b74bf33a1020a98cb69c237","38.122.7.210","Mozilla/5.0 (Windows NT 10.0; Win64; x64) AppleWebKit/537.36 (KHTML, like Gecko) Chrome/118.0.0.0 Safari/537.36","WebKit","Chrome","118.0.0.0","Windows","10.0","null","en-US,en;q=0.9","true","null","<p id=""stimulus"" style=""font-size:60px;"">sesenta y cuatro</p>","null","","","tone_number_task_remaining_before_delay","","sesenta y cuatro","","270.5","60","2","21",""
"","","","","","html-keyboard-response","137","303298","0.0-156.0-0.0","28","1","2023-10-31 21:00:26","a725c3012b74bf33a1020a98cb69c237","38.122.7.210","Mozilla/5.0 (Windows NT 10.0; Win64; x64) AppleWebKit/537.36 (KHTML, like Gecko) Chrome/118.0.0.0 Safari/537.36","WebKit","Chrome","118.0.0.0","Windows","10.0","null","en-US,en;q=0.9","true","476","<p id=""stimulus"" style=""font-size:60px;"">sesenta y cuatro</p>","k","","","empty_block","","sesenta y cuatro","","","","2","21",""
"","","","","","html-keyboard-response","138","305937","0.0-157.0","28","1","2023-10-31 21:00:26","a725c3012b74bf33a1020a98cb69c237","38.122.7.210","Mozilla/5.0 (Windows NT 10.0; Win64; x64) AppleWebKit/537.36 (KHTML, like Gecko) Chrome/118.0.0.0 Safari/537.36","WebKit","Chrome","118.0.0.0","Windows","10.0","null","en-US,en;q=0.9","true","null","<div style=""font-size:100px;"">X</div>","null","","","fixation","","","","","","","",""
"","","","","","audio-keyboard-response","139","306653","0.0-158.0","28","1","2023-10-31 21:00:26","a725c3012b74bf33a1020a98cb69c237","38.122.7.210","Mozilla/5.0 (Windows NT 10.0; Win64; x64) AppleWebKit/537.36 (KHTML, like Gecko) Chrome/118.0.0.0 Safari/537.36","WebKit","Chrome","118.0.0.0","Windows","10.0","null","en-US,en;q=0.9","true","701","tones/880hz_short.mp3","s","","","tone_number_task","992.5","cincuenta y ocho","tones/880hz_short.mp3","1142.5","60","2","22",""
"","","","","","html-keyboard-response","140","306952","0.0-159.0-0.0","28","1","2023-10-31 21:00:26","a725c3012b74bf33a1020a98cb69c237","38.122.7.210","Mozilla/5.0 (Windows NT 10.0; Win64; x64) AppleWebKit/537.36 (KHTML, like Gecko) Chrome/118.0.0.0 Safari/537.36","WebKit","Chrome","118.0.0.0","Windows","10.0","null","en-US,en;q=0.9","true","null","","null","","","delay_block","","","","","","2","22",""
"","","","","","html-keyboard-response","141","307110","0.0-159.0-1.0","28","1","2023-10-31 21:00:26","a725c3012b74bf33a1020a98cb69c237","38.122.7.210","Mozilla/5.0 (Windows NT 10.0; Win64; x64) AppleWebKit/537.36 (KHTML, like Gecko) Chrome/118.0.0.0 Safari/537.36","WebKit","Chrome","118.0.0.0","Windows","10.0","null","en-US,en;q=0.9","true","null","<p id=""stimulus"" style=""font-size:60px;"">cincuenta y ocho</p>","null","","","tone_number_task_remaining_before_delay","","cincuenta y ocho","","441.5","60","2","22",""
"","","","","","html-keyboard-response","142","307838","0.0-162.0-0.0","28","1","2023-10-31 21:00:26","a725c3012b74bf33a1020a98cb69c237","38.122.7.210","Mozilla/5.0 (Windows NT 10.0; Win64; x64) AppleWebKit/537.36 (KHTML, like Gecko) Chrome/118.0.0.0 Safari/537.36","WebKit","Chrome","118.0.0.0","Windows","10.0","null","en-US,en;q=0.9","true","721","<p id=""stimulus"" style=""font-size:60px;"">cincuenta y ocho</p>","j","","","empty_block","","cincuenta y ocho","","","","2","22",""
"","","","","","html-keyboard-response","143","310476","0.0-163.0","28","1","2023-10-31 21:00:26","a725c3012b74bf33a1020a98cb69c237","38.122.7.210","Mozilla/5.0 (Windows NT 10.0; Win64; x64) AppleWebKit/537.36 (KHTML, like Gecko) Chrome/118.0.0.0 Safari/537.36","WebKit","Chrome","118.0.0.0","Windows","10.0","null","en-US,en;q=0.9","true","null","<div style=""font-size:100px;"">X</div>","null","","","fixation","","","","","","","",""
"","","","","","audio-keyboard-response","144","310735","0.0-164.0","28","1","2023-10-31 21:00:26","a725c3012b74bf33a1020a98cb69c237","38.122.7.210","Mozilla/5.0 (Windows NT 10.0; Win64; x64) AppleWebKit/537.36 (KHTML, like Gecko) Chrome/118.0.0.0 Safari/537.36","WebKit","Chrome","118.0.0.0","Windows","10.0","null","en-US,en;q=0.9","true","null","tones/880hz_short.mp3","null","","","tone_number_task","102.5","cincuenta y dos","tones/880hz_short.mp3","252.5","60","2","23",""
"","","","","","html-keyboard-response","145","311910","0.0-167.0-0.0","28","1","2023-10-31 21:00:26","a725c3012b74bf33a1020a98cb69c237","38.122.7.210","Mozilla/5.0 (Windows NT 10.0; Win64; x64) AppleWebKit/537.36 (KHTML, like Gecko) Chrome/118.0.0.0 Safari/537.36","WebKit","Chrome","118.0.0.0","Windows","10.0","null","en-US,en;q=0.9","true","1167","tones/880hz_short.mp3","j","","","empty_block","","cincuenta y dos","","","","2","23",""
"","","","","","html-keyboard-response","146","312209","0.0-167.0-1.0","28","1","2023-10-31 21:00:26","a725c3012b74bf33a1020a98cb69c237","38.122.7.210","Mozilla/5.0 (Windows NT 10.0; Win64; x64) AppleWebKit/537.36 (KHTML, like Gecko) Chrome/118.0.0.0 Safari/537.36","WebKit","Chrome","118.0.0.0","Windows","10.0","null","en-US,en;q=0.9","true","292","tones/880hz_short.mp3","s","","","empty_block","","cincuenta y dos","","","","2","23",""
"","","","","","html-keyboard-response","147","314850","0.0-169.0","28","1","2023-10-31 21:00:26","a725c3012b74bf33a1020a98cb69c237","38.122.7.210","Mozilla/5.0 (Windows NT 10.0; Win64; x64) AppleWebKit/537.36 (KHTML, like Gecko) Chrome/118.0.0.0 Safari/537.36","WebKit","Chrome","118.0.0.0","Windows","10.0","null","en-US,en;q=0.9","true","null","<div style=""font-size:100px;"">X</div>","null","","","fixation","","","","","","","",""
"","","","","","audio-keyboard-response","148","315747","0.0-170.0","28","1","2023-10-31 21:00:26","a725c3012b74bf33a1020a98cb69c237","38.122.7.210","Mozilla/5.0 (Windows NT 10.0; Win64; x64) AppleWebKit/537.36 (KHTML, like Gecko) Chrome/118.0.0.0 Safari/537.36","WebKit","Chrome","118.0.0.0","Windows","10.0","null","en-US,en;q=0.9","true","891","tones/880hz_short.mp3","s","","","tone_number_task","1025","treinta y dos","tones/880hz_short.mp3","1175","60","2","24",""
"","","","","","html-keyboard-response","149","315892","0.0-171.0-0.0","28","1","2023-10-31 21:00:26","a725c3012b74bf33a1020a98cb69c237","38.122.7.210","Mozilla/5.0 (Windows NT 10.0; Win64; x64) AppleWebKit/537.36 (KHTML, like Gecko) Chrome/118.0.0.0 Safari/537.36","WebKit","Chrome","118.0.0.0","Windows","10.0","null","en-US,en;q=0.9","true","null","","null","","","delay_block","","","","","","2","24",""
"","","","","","html-keyboard-response","150","316051","0.0-171.0-1.0","28","1","2023-10-31 21:00:26","a725c3012b74bf33a1020a98cb69c237","38.122.7.210","Mozilla/5.0 (Windows NT 10.0; Win64; x64) AppleWebKit/537.36 (KHTML, like Gecko) Chrome/118.0.0.0 Safari/537.36","WebKit","Chrome","118.0.0.0","Windows","10.0","null","en-US,en;q=0.9","true","null","<p id=""stimulus"" style=""font-size:60px;"">treinta y dos</p>","null","","","tone_number_task_remaining_before_delay","","treinta y dos","","284","60","2","24",""
"","","","","","html-keyboard-response","151","316736","0.0-174.0-0.0","28","1","2023-10-31 21:00:26","a725c3012b74bf33a1020a98cb69c237","38.122.7.210","Mozilla/5.0 (Windows NT 10.0; Win64; x64) AppleWebKit/537.36 (KHTML, like Gecko) Chrome/118.0.0.0 Safari/537.36","WebKit","Chrome","118.0.0.0","Windows","10.0","null","en-US,en;q=0.9","true","676","<p id=""stimulus"" style=""font-size:60px;"">treinta y dos</p>","j","","","empty_block","","treinta y dos","","","","2","24",""
"","","","","","html-keyboard-response","152","319376","0.0-175.0","28","1","2023-10-31 21:00:26","a725c3012b74bf33a1020a98cb69c237","38.122.7.210","Mozilla/5.0 (Windows NT 10.0; Win64; x64) AppleWebKit/537.36 (KHTML, like Gecko) Chrome/118.0.0.0 Safari/537.36","WebKit","Chrome","118.0.0.0","Windows","10.0","null","en-US,en;q=0.9","true","null","<div style=""font-size:100px;"">X</div>","null","","","fixation","","","","","","","",""
"","","","","","audio-keyboard-response","153","319534","0.0-176.0","28","1","2023-10-31 21:00:26","a725c3012b74bf33a1020a98cb69c237","38.122.7.210","Mozilla/5.0 (Windows NT 10.0; Win64; x64) AppleWebKit/537.36 (KHTML, like Gecko) Chrome/118.0.0.0 Safari/537.36","WebKit","Chrome","118.0.0.0","Windows","10.0","null","en-US,en;q=0.9","true","null","tones/880hz_short.mp3","null","","","tone_number_task","0","cincuenta y nueve","tones/880hz_short.mp3","150","60","2","25",""
"","","","","","html-keyboard-response","154","320275","0.0-179.0-0.0","28","1","2023-10-31 21:00:26","a725c3012b74bf33a1020a98cb69c237","38.122.7.210","Mozilla/5.0 (Windows NT 10.0; Win64; x64) AppleWebKit/537.36 (KHTML, like Gecko) Chrome/118.0.0.0 Safari/537.36","WebKit","Chrome","118.0.0.0","Windows","10.0","null","en-US,en;q=0.9","true","733","tones/880hz_short.mp3","k","","","empty_block","","cincuenta y nueve","","","","2","25",""
"","","","","","html-keyboard-response","155","320622","0.0-179.0-1.0","28","1","2023-10-31 21:00:26","a725c3012b74bf33a1020a98cb69c237","38.122.7.210","Mozilla/5.0 (Windows NT 10.0; Win64; x64) AppleWebKit/537.36 (KHTML, like Gecko) Chrome/118.0.0.0 Safari/537.36","WebKit","Chrome","118.0.0.0","Windows","10.0","null","en-US,en;q=0.9","true","341","tones/880hz_short.mp3","s","","","empty_block","","cincuenta y nueve","","","","2","25",""
"","","","","","html-keyboard-response","156","323263","0.0-181.0","28","1","2023-10-31 21:00:26","a725c3012b74bf33a1020a98cb69c237","38.122.7.210","Mozilla/5.0 (Windows NT 10.0; Win64; x64) AppleWebKit/537.36 (KHTML, like Gecko) Chrome/118.0.0.0 Safari/537.36","WebKit","Chrome","118.0.0.0","Windows","10.0","null","en-US,en;q=0.9","true","null","<div style=""font-size:100px;"">X</div>","null","","","fixation","","","","","","","",""
"","","","","","audio-keyboard-response","157","323772","0.0-182.0","28","1","2023-10-31 21:00:26","a725c3012b74bf33a1020a98cb69c237","38.122.7.210","Mozilla/5.0 (Windows NT 10.0; Win64; x64) AppleWebKit/537.36 (KHTML, like Gecko) Chrome/118.0.0.0 Safari/537.36","WebKit","Chrome","118.0.0.0","Windows","10.0","null","en-US,en;q=0.9","true","501","tones/880hz_short.mp3","s","","","tone_number_task","992.5","cuarenta y nueve","tones/880hz_short.mp3","1142.5","60","2","26",""
"","","","","","html-keyboard-response","158","324271","0.0-183.0-0.0","28","1","2023-10-31 21:00:26","a725c3012b74bf33a1020a98cb69c237","38.122.7.210","Mozilla/5.0 (Windows NT 10.0; Win64; x64) AppleWebKit/537.36 (KHTML, like Gecko) Chrome/118.0.0.0 Safari/537.36","WebKit","Chrome","118.0.0.0","Windows","10.0","null","en-US,en;q=0.9","true","null","","null","","","delay_block","","","","","","2","26",""
"","","","","","html-keyboard-response","159","324432","0.0-183.0-1.0","28","1","2023-10-31 21:00:26","a725c3012b74bf33a1020a98cb69c237","38.122.7.210","Mozilla/5.0 (Windows NT 10.0; Win64; x64) AppleWebKit/537.36 (KHTML, like Gecko) Chrome/118.0.0.0 Safari/537.36","WebKit","Chrome","118.0.0.0","Windows","10.0","null","en-US,en;q=0.9","true","null","<p id=""stimulus"" style=""font-size:60px;"">cuarenta y nueve</p>","null","","","tone_number_task_remaining_before_delay","","cuarenta y nueve","","641.5","60","2","26",""
"","","","","","html-keyboard-response","160","325643","0.0-186.0-0.0","28","1","2023-10-31 21:00:26","a725c3012b74bf33a1020a98cb69c237","38.122.7.210","Mozilla/5.0 (Windows NT 10.0; Win64; x64) AppleWebKit/537.36 (KHTML, like Gecko) Chrome/118.0.0.0 Safari/537.36","WebKit","Chrome","118.0.0.0","Windows","10.0","null","en-US,en;q=0.9","true","null","<p id=""stimulus"" style=""font-size:60px;"">cuarenta y nueve</p>","null","","","empty_block","","cuarenta y nueve","","","","2","26",""
"","","","","","html-keyboard-response","161","328284","0.0-187.0","28","1","2023-10-31 21:00:26","a725c3012b74bf33a1020a98cb69c237","38.122.7.210","Mozilla/5.0 (Windows NT 10.0; Win64; x64) AppleWebKit/537.36 (KHTML, like Gecko) Chrome/118.0.0.0 Safari/537.36","WebKit","Chrome","118.0.0.0","Windows","10.0","null","en-US,en;q=0.9","true","null","<div style=""font-size:100px;"">X</div>","null","","","fixation","","","","","","","",""
"","","","","","audio-keyboard-response","162","329437","0.0-188.0","28","1","2023-10-31 21:00:26","a725c3012b74bf33a1020a98cb69c237","38.122.7.210","Mozilla/5.0 (Windows NT 10.0; Win64; x64) AppleWebKit/537.36 (KHTML, like Gecko) Chrome/118.0.0.0 Safari/537.36","WebKit","Chrome","118.0.0.0","Windows","10.0","null","en-US,en;q=0.9","true","null","tones/440hz_short.mp3","null","","","tone_number_task","992.5","cincuenta y siete","tones/440hz_short.mp3","1142.5","60","2","27",""
"","","","","","html-keyboard-response","163","329548","0.0-191.0-0.0","28","1","2023-10-31 21:00:26","a725c3012b74bf33a1020a98cb69c237","38.122.7.210","Mozilla/5.0 (Windows NT 10.0; Win64; x64) AppleWebKit/537.36 (KHTML, like Gecko) Chrome/118.0.0.0 Safari/537.36","WebKit","Chrome","118.0.0.0","Windows","10.0","null","en-US,en;q=0.9","true","98","tones/440hz_short.mp3","a","","","empty_block","","cincuenta y siete","","","","2","27",""
"","","","","","html-keyboard-response","164","330037","0.0-191.0-1.0","28","1","2023-10-31 21:00:26","a725c3012b74bf33a1020a98cb69c237","38.122.7.210","Mozilla/5.0 (Windows NT 10.0; Win64; x64) AppleWebKit/537.36 (KHTML, like Gecko) Chrome/118.0.0.0 Safari/537.36","WebKit","Chrome","118.0.0.0","Windows","10.0","null","en-US,en;q=0.9","true","481","tones/440hz_short.mp3","j","","","empty_block","","cincuenta y siete","","","","2","27",""
"","","","","","html-keyboard-response","165","332676","0.0-193.0","28","1","2023-10-31 21:00:26","a725c3012b74bf33a1020a98cb69c237","38.122.7.210","Mozilla/5.0 (Windows NT 10.0; Win64; x64) AppleWebKit/537.36 (KHTML, like Gecko) Chrome/118.0.0.0 Safari/537.36","WebKit","Chrome","118.0.0.0","Windows","10.0","null","en-US,en;q=0.9","true","null","<div style=""font-size:100px;"">X</div>","null","","","fixation","","","","","","","",""
"","","","","","audio-keyboard-response","166","332938","0.0-194.0","28","1","2023-10-31 21:00:26","a725c3012b74bf33a1020a98cb69c237","38.122.7.210","Mozilla/5.0 (Windows NT 10.0; Win64; x64) AppleWebKit/537.36 (KHTML, like Gecko) Chrome/118.0.0.0 Safari/537.36","WebKit","Chrome","118.0.0.0","Windows","10.0","null","en-US,en;q=0.9","true","null","tones/440hz_short.mp3","null","","","tone_number_task","102.5","treinta y nueve","tones/440hz_short.mp3","252.5","60","2","28",""
"","","","","","html-keyboard-response","167","333970","0.0-197.0-0.0","28","1","2023-10-31 21:00:26","a725c3012b74bf33a1020a98cb69c237","38.122.7.210","Mozilla/5.0 (Windows NT 10.0; Win64; x64) AppleWebKit/537.36 (KHTML, like Gecko) Chrome/118.0.0.0 Safari/537.36","WebKit","Chrome","118.0.0.0","Windows","10.0","null","en-US,en;q=0.9","true","1024","tones/440hz_short.mp3","j","","","empty_block","","treinta y nueve","","","","2","28",""
"","","","","","html-keyboard-response","168","333978","0.0-197.0-1.0","28","1","2023-10-31 21:00:26","a725c3012b74bf33a1020a98cb69c237","38.122.7.210","Mozilla/5.0 (Windows NT 10.0; Win64; x64) AppleWebKit/537.36 (KHTML, like Gecko) Chrome/118.0.0.0 Safari/537.36","WebKit","Chrome","118.0.0.0","Windows","10.0","null","en-US,en;q=0.9","true","1","tones/440hz_short.mp3","a","","","empty_block","","treinta y nueve","","","","2","28",""
"","","","","","html-keyboard-response","169","336619","0.0-199.0","28","1","2023-10-31 21:00:26","a725c3012b74bf33a1020a98cb69c237","38.122.7.210","Mozilla/5.0 (Windows NT 10.0; Win64; x64) AppleWebKit/537.36 (KHTML, like Gecko) Chrome/118.0.0.0 Safari/537.36","WebKit","Chrome","118.0.0.0","Windows","10.0","null","en-US,en;q=0.9","true","null","<div style=""font-size:100px;"">X</div>","null","","","fixation","","","","","","","",""
"","","","","","audio-keyboard-response","170","336880","0.0-200.0","28","1","2023-10-31 21:00:26","a725c3012b74bf33a1020a98cb69c237","38.122.7.210","Mozilla/5.0 (Windows NT 10.0; Win64; x64) AppleWebKit/537.36 (KHTML, like Gecko) Chrome/118.0.0.0 Safari/537.36","WebKit","Chrome","118.0.0.0","Windows","10.0","null","en-US,en;q=0.9","true","null","tones/880hz_short.mp3","null","","","tone_number_task","102.5","cuarenta","tones/880hz_short.mp3","252.5","60","2","29",""
"","","","","","html-keyboard-response","171","337852","0.0-203.0-0.0","28","1","2023-10-31 21:00:26","a725c3012b74bf33a1020a98cb69c237","38.122.7.210","Mozilla/5.0 (Windows NT 10.0; Win64; x64) AppleWebKit/537.36 (KHTML, like Gecko) Chrome/118.0.0.0 Safari/537.36","WebKit","Chrome","118.0.0.0","Windows","10.0","null","en-US,en;q=0.9","true","959","tones/880hz_short.mp3","k","","","empty_block","","cuarenta","","","","2","29",""
"","","","","","html-keyboard-response","172","337870","0.0-203.0-1.0","28","1","2023-10-31 21:00:26","a725c3012b74bf33a1020a98cb69c237","38.122.7.210","Mozilla/5.0 (Windows NT 10.0; Win64; x64) AppleWebKit/537.36 (KHTML, like Gecko) Chrome/118.0.0.0 Safari/537.36","WebKit","Chrome","118.0.0.0","Windows","10.0","null","en-US,en;q=0.9","true","11","tones/880hz_short.mp3","s","","","empty_block","","cuarenta","","","","2","29",""
"","","","","","html-keyboard-response","173","340510","0.0-205.0","28","1","2023-10-31 21:00:26","a725c3012b74bf33a1020a98cb69c237","38.122.7.210","Mozilla/5.0 (Windows NT 10.0; Win64; x64) AppleWebKit/537.36 (KHTML, like Gecko) Chrome/118.0.0.0 Safari/537.36","WebKit","Chrome","118.0.0.0","Windows","10.0","null","en-US,en;q=0.9","true","null","<div style=""font-size:100px;"">X</div>","null","","","fixation","","","","","","","",""
"","","","","","audio-keyboard-response","174","340667","0.0-206.0","28","1","2023-10-31 21:00:26","a725c3012b74bf33a1020a98cb69c237","38.122.7.210","Mozilla/5.0 (Windows NT 10.0; Win64; x64) AppleWebKit/537.36 (KHTML, like Gecko) Chrome/118.0.0.0 Safari/537.36","WebKit","Chrome","118.0.0.0","Windows","10.0","null","en-US,en;q=0.9","true","null","tones/440hz_short.mp3","null","","","tone_number_task","0","veintiseis","tones/440hz_short.mp3","150","60","2","30",""
"","","","","","html-keyboard-response","175","341880","0.0-209.0-0.0","28","1","2023-10-31 21:00:26","a725c3012b74bf33a1020a98cb69c237","38.122.7.210","Mozilla/5.0 (Windows NT 10.0; Win64; x64) AppleWebKit/537.36 (KHTML, like Gecko) Chrome/118.0.0.0 Safari/537.36","WebKit","Chrome","118.0.0.0","Windows","10.0","null","en-US,en;q=0.9","true","null","tones/440hz_short.mp3","null","","","empty_block","","veintiseis","","","","2","30",""
"","","","","","html-keyboard-response","176","341899","0.0-209.0-1.0","28","1","2023-10-31 21:00:26","a725c3012b74bf33a1020a98cb69c237","38.122.7.210","Mozilla/5.0 (Windows NT 10.0; Win64; x64) AppleWebKit/537.36 (KHTML, like Gecko) Chrome/118.0.0.0 Safari/537.36","WebKit","Chrome","118.0.0.0","Windows","10.0","null","en-US,en;q=0.9","true","11","tones/440hz_short.mp3","a","","","empty_block","","veintiseis","","","","2","30",""
"","","","","","html-keyboard-response","177","344537","0.0-211.0","28","1","2023-10-31 21:00:26","a725c3012b74bf33a1020a98cb69c237","38.122.7.210","Mozilla/5.0 (Windows NT 10.0; Win64; x64) AppleWebKit/537.36 (KHTML, like Gecko) Chrome/118.0.0.0 Safari/537.36","WebKit","Chrome","118.0.0.0","Windows","10.0","null","en-US,en;q=0.9","true","null","<div style=""font-size:100px;"">X</div>","null","","","fixation","","","","","","","",""
"","","","","","audio-keyboard-response","178","345443","0.0-212.0","28","1","2023-10-31 21:00:26","a725c3012b74bf33a1020a98cb69c237","38.122.7.210","Mozilla/5.0 (Windows NT 10.0; Win64; x64) AppleWebKit/537.36 (KHTML, like Gecko) Chrome/118.0.0.0 Safari/537.36","WebKit","Chrome","118.0.0.0","Windows","10.0","null","en-US,en;q=0.9","true","891","tones/440hz_short.mp3","a","","","tone_number_task","1025","cuarenta y cuatro","tones/440hz_short.mp3","1175","60","2","31",""
"","","","","","html-keyboard-response","179","345587","0.0-213.0-0.0","28","1","2023-10-31 21:00:26","a725c3012b74bf33a1020a98cb69c237","38.122.7.210","Mozilla/5.0 (Windows NT 10.0; Win64; x64) AppleWebKit/537.36 (KHTML, like Gecko) Chrome/118.0.0.0 Safari/537.36","WebKit","Chrome","118.0.0.0","Windows","10.0","null","en-US,en;q=0.9","true","null","","null","","","delay_block","","","","","","2","31",""
"","","","","","html-keyboard-response","180","345747","0.0-213.0-1.0","28","1","2023-10-31 21:00:26","a725c3012b74bf33a1020a98cb69c237","38.122.7.210","Mozilla/5.0 (Windows NT 10.0; Win64; x64) AppleWebKit/537.36 (KHTML, like Gecko) Chrome/118.0.0.0 Safari/537.36","WebKit","Chrome","118.0.0.0","Windows","10.0","null","en-US,en;q=0.9","true","null","<p id=""stimulus"" style=""font-size:60px;"">cuarenta y cuatro</p>","null","","","tone_number_task_remaining_before_delay","","cuarenta y cuatro","","284","60","2","31",""
"","","","","","html-keyboard-response","181","346340","0.0-216.0-0.0","28","1","2023-10-31 21:00:26","a725c3012b74bf33a1020a98cb69c237","38.122.7.210","Mozilla/5.0 (Windows NT 10.0; Win64; x64) AppleWebKit/537.36 (KHTML, like Gecko) Chrome/118.0.0.0 Safari/537.36","WebKit","Chrome","118.0.0.0","Windows","10.0","null","en-US,en;q=0.9","true","583","<p id=""stimulus"" style=""font-size:60px;"">cuarenta y cuatro</p>","k","","","empty_block","","cuarenta y cuatro","","","","2","31",""
"","","","","","html-keyboard-response","182","348988","0.0-217.0","28","1","2023-10-31 21:00:26","a725c3012b74bf33a1020a98cb69c237","38.122.7.210","Mozilla/5.0 (Windows NT 10.0; Win64; x64) AppleWebKit/537.36 (KHTML, like Gecko) Chrome/118.0.0.0 Safari/537.36","WebKit","Chrome","118.0.0.0","Windows","10.0","null","en-US,en;q=0.9","true","null","<div style=""font-size:100px;"">X</div>","null","","","fixation","","","","","","","",""
"","","","","","audio-keyboard-response","183","349620","0.0-218.0","28","1","2023-10-31 21:00:26","a725c3012b74bf33a1020a98cb69c237","38.122.7.210","Mozilla/5.0 (Windows NT 10.0; Win64; x64) AppleWebKit/537.36 (KHTML, like Gecko) Chrome/118.0.0.0 Safari/537.36","WebKit","Chrome","118.0.0.0","Windows","10.0","null","en-US,en;q=0.9","true","619","tones/880hz_short.mp3","s","","","tone_number_task","1025","sesenta y seis","tones/880hz_short.mp3","1175","60","2","32",""
"","","","","","html-keyboard-response","184","350035","0.0-219.0-0.0","28","1","2023-10-31 21:00:26","a725c3012b74bf33a1020a98cb69c237","38.122.7.210","Mozilla/5.0 (Windows NT 10.0; Win64; x64) AppleWebKit/537.36 (KHTML, like Gecko) Chrome/118.0.0.0 Safari/537.36","WebKit","Chrome","118.0.0.0","Windows","10.0","null","en-US,en;q=0.9","true","null","","null","","","delay_block","","","","","","2","32",""
"","","","","","html-keyboard-response","185","350195","0.0-219.0-1.0","28","1","2023-10-31 21:00:26","a725c3012b74bf33a1020a98cb69c237","38.122.7.210","Mozilla/5.0 (Windows NT 10.0; Win64; x64) AppleWebKit/537.36 (KHTML, like Gecko) Chrome/118.0.0.0 Safari/537.36","WebKit","Chrome","118.0.0.0","Windows","10.0","null","en-US,en;q=0.9","true","null","<p id=""stimulus"" style=""font-size:60px;"">sesenta y seis</p>","null","","","tone_number_task_remaining_before_delay","","sesenta y seis","","556","60","2","32",""
"","","","","","html-keyboard-response","186","350734","0.0-222.0-0.0","28","1","2023-10-31 21:00:26","a725c3012b74bf33a1020a98cb69c237","38.122.7.210","Mozilla/5.0 (Windows NT 10.0; Win64; x64) AppleWebKit/537.36 (KHTML, like Gecko) Chrome/118.0.0.0 Safari/537.36","WebKit","Chrome","118.0.0.0","Windows","10.0","null","en-US,en;q=0.9","true","530","<p id=""stimulus"" style=""font-size:60px;"">sesenta y seis</p>","k","","","empty_block","","sesenta y seis","","","","2","32",""
"","","","","","html-keyboard-response","187","353374","0.0-223.0","28","1","2023-10-31 21:00:26","a725c3012b74bf33a1020a98cb69c237","38.122.7.210","Mozilla/5.0 (Windows NT 10.0; Win64; x64) AppleWebKit/537.36 (KHTML, like Gecko) Chrome/118.0.0.0 Safari/537.36","WebKit","Chrome","118.0.0.0","Windows","10.0","null","en-US,en;q=0.9","true","null","<div style=""font-size:100px;"">X</div>","null","","","fixation","","","","","","","",""
"","","","","","audio-keyboard-response","188","353635","0.0-224.0","28","1","2023-10-31 21:00:26","a725c3012b74bf33a1020a98cb69c237","38.122.7.210","Mozilla/5.0 (Windows NT 10.0; Win64; x64) AppleWebKit/537.36 (KHTML, like Gecko) Chrome/118.0.0.0 Safari/537.36","WebKit","Chrome","118.0.0.0","Windows","10.0","null","en-US,en;q=0.9","true","null","tones/440hz_short.mp3","null","","","tone_number_task","102.5","treinta y tres","tones/440hz_short.mp3","252.5","60","2","33",""
"","","","","","html-keyboard-response","189","354672","0.0-227.0-0.0","28","1","2023-10-31 21:00:26","a725c3012b74bf33a1020a98cb69c237","38.122.7.210","Mozilla/5.0 (Windows NT 10.0; Win64; x64) AppleWebKit/537.36 (KHTML, like Gecko) Chrome/118.0.0.0 Safari/537.36","WebKit","Chrome","118.0.0.0","Windows","10.0","null","en-US,en;q=0.9","true","1028","tones/440hz_short.mp3","j","","","empty_block","","treinta y tres","","","","2","33",""
"","","","","","html-keyboard-response","190","354688","0.0-227.0-1.0","28","1","2023-10-31 21:00:26","a725c3012b74bf33a1020a98cb69c237","38.122.7.210","Mozilla/5.0 (Windows NT 10.0; Win64; x64) AppleWebKit/537.36 (KHTML, like Gecko) Chrome/118.0.0.0 Safari/537.36","WebKit","Chrome","118.0.0.0","Windows","10.0","null","en-US,en;q=0.9","true","8","tones/440hz_short.mp3","a","","","empty_block","","treinta y tres","","","","2","33",""
"","","","","","html-keyboard-response","191","357328","0.0-229.0","28","1","2023-10-31 21:00:26","a725c3012b74bf33a1020a98cb69c237","38.122.7.210","Mozilla/5.0 (Windows NT 10.0; Win64; x64) AppleWebKit/537.36 (KHTML, like Gecko) Chrome/118.0.0.0 Safari/537.36","WebKit","Chrome","118.0.0.0","Windows","10.0","null","en-US,en;q=0.9","true","null","<div style=""font-size:100px;"">X</div>","null","","","fixation","","","","","","","",""
"","","","","","audio-keyboard-response","192","358311","0.0-230.0","28","1","2023-10-31 21:00:26","a725c3012b74bf33a1020a98cb69c237","38.122.7.210","Mozilla/5.0 (Windows NT 10.0; Win64; x64) AppleWebKit/537.36 (KHTML, like Gecko) Chrome/118.0.0.0 Safari/537.36","WebKit","Chrome","118.0.0.0","Windows","10.0","null","en-US,en;q=0.9","true","971","tones/440hz_short.mp3","a","","","tone_number_task","992.5","cincuenta y ocho","tones/440hz_short.mp3","1142.5","60","2","34",""
"","","","","","html-keyboard-response","193","358341","0.0-231.0-0.0","28","1","2023-10-31 21:00:26","a725c3012b74bf33a1020a98cb69c237","38.122.7.210","Mozilla/5.0 (Windows NT 10.0; Win64; x64) AppleWebKit/537.36 (KHTML, like Gecko) Chrome/118.0.0.0 Safari/537.36","WebKit","Chrome","118.0.0.0","Windows","10.0","null","en-US,en;q=0.9","true","null","","null","","","delay_block","","","","","","2","34",""
"","","","","","html-keyboard-response","194","358500","0.0-231.0-1.0","28","1","2023-10-31 21:00:26","a725c3012b74bf33a1020a98cb69c237","38.122.7.210","Mozilla/5.0 (Windows NT 10.0; Win64; x64) AppleWebKit/537.36 (KHTML, like Gecko) Chrome/118.0.0.0 Safari/537.36","WebKit","Chrome","118.0.0.0","Windows","10.0","null","en-US,en;q=0.9","true","null","<p id=""stimulus"" style=""font-size:60px;"">cincuenta y ocho</p>","null","","","tone_number_task_remaining_before_delay","","cincuenta y ocho","","171.5","60","2","34",""
"","","","","","html-keyboard-response","195","358898","0.0-234.0-0.0","28","1","2023-10-31 21:00:26","a725c3012b74bf33a1020a98cb69c237","38.122.7.210","Mozilla/5.0 (Windows NT 10.0; Win64; x64) AppleWebKit/537.36 (KHTML, like Gecko) Chrome/118.0.0.0 Safari/537.36","WebKit","Chrome","118.0.0.0","Windows","10.0","null","en-US,en;q=0.9","true","388","<p id=""stimulus"" style=""font-size:60px;"">cincuenta y ocho</p>","k","","","empty_block","","cincuenta y ocho","","","","2","34",""
"","","","","","html-keyboard-response","196","361538","0.0-235.0","28","1","2023-10-31 21:00:26","a725c3012b74bf33a1020a98cb69c237","38.122.7.210","Mozilla/5.0 (Windows NT 10.0; Win64; x64) AppleWebKit/537.36 (KHTML, like Gecko) Chrome/118.0.0.0 Safari/537.36","WebKit","Chrome","118.0.0.0","Windows","10.0","null","en-US,en;q=0.9","true","null","<div style=""font-size:100px;"">X</div>","null","","","fixation","","","","","","","",""
"","","","","","audio-keyboard-response","197","362665","0.0-236.0","28","1","2023-10-31 21:00:26","a725c3012b74bf33a1020a98cb69c237","38.122.7.210","Mozilla/5.0 (Windows NT 10.0; Win64; x64) AppleWebKit/537.36 (KHTML, like Gecko) Chrome/118.0.0.0 Safari/537.36","WebKit","Chrome","118.0.0.0","Windows","10.0","null","en-US,en;q=0.9","true","1120","tones/880hz_short.mp3","s","","","tone_number_task","992.5","veintitres","tones/880hz_short.mp3","1142.5","60","2","35",""
"","","","","","html-keyboard-response","198","362699","0.0-238.0-0.0","28","1","2023-10-31 21:00:26","a725c3012b74bf33a1020a98cb69c237","38.122.7.210","Mozilla/5.0 (Windows NT 10.0; Win64; x64) AppleWebKit/537.36 (KHTML, like Gecko) Chrome/118.0.0.0 Safari/537.36","WebKit","Chrome","118.0.0.0","Windows","10.0","null","en-US,en;q=0.9","true","null","<p id=""stimulus"" style=""font-size:60px;"">veintitres</p>","null","","","tone_number_task_remaining_after_delay","","veintitres","","","60","2","35",""
"","","","","","html-keyboard-response","199","363327","0.0-240.0-0.0","28","1","2023-10-31 21:00:26","a725c3012b74bf33a1020a98cb69c237","38.122.7.210","Mozilla/5.0 (Windows NT 10.0; Win64; x64) AppleWebKit/537.36 (KHTML, like Gecko) Chrome/118.0.0.0 Safari/537.36","WebKit","Chrome","118.0.0.0","Windows","10.0","null","en-US,en;q=0.9","true","619","<p id=""stimulus"" style=""font-size:60px;"">veintitres</p>","j","","","empty_block","","veintitres","","","","2","35",""
"","","","","","html-keyboard-response","200","365968","0.0-241.0","28","1","2023-10-31 21:00:26","a725c3012b74bf33a1020a98cb69c237","38.122.7.210","Mozilla/5.0 (Windows NT 10.0; Win64; x64) AppleWebKit/537.36 (KHTML, like Gecko) Chrome/118.0.0.0 Safari/537.36","WebKit","Chrome","118.0.0.0","Windows","10.0","null","en-US,en;q=0.9","true","null","<div style=""font-size:100px;"">X</div>","null","","","fixation","","","","","","","",""
"","","","","","audio-keyboard-response","201","366230","0.0-242.0","28","1","2023-10-31 21:00:26","a725c3012b74bf33a1020a98cb69c237","38.122.7.210","Mozilla/5.0 (Windows NT 10.0; Win64; x64) AppleWebKit/537.36 (KHTML, like Gecko) Chrome/118.0.0.0 Safari/537.36","WebKit","Chrome","118.0.0.0","Windows","10.0","null","en-US,en;q=0.9","true","null","tones/880hz_short.mp3","null","","","tone_number_task","102.5","cuarenta","tones/880hz_short.mp3","252.5","60","2","36",""
"","","","","","html-keyboard-response","202","367362","0.0-245.0-0.0","28","1","2023-10-31 21:00:26","a725c3012b74bf33a1020a98cb69c237","38.122.7.210","Mozilla/5.0 (Windows NT 10.0; Win64; x64) AppleWebKit/537.36 (KHTML, like Gecko) Chrome/118.0.0.0 Safari/537.36","WebKit","Chrome","118.0.0.0","Windows","10.0","null","en-US,en;q=0.9","true","1120","tones/880hz_short.mp3","k","","","empty_block","","cuarenta","","","","2","36",""
"","","","","","html-keyboard-response","203","367385","0.0-245.0-1.0","28","1","2023-10-31 21:00:26","a725c3012b74bf33a1020a98cb69c237","38.122.7.210","Mozilla/5.0 (Windows NT 10.0; Win64; x64) AppleWebKit/537.36 (KHTML, like Gecko) Chrome/118.0.0.0 Safari/537.36","WebKit","Chrome","118.0.0.0","Windows","10.0","null","en-US,en;q=0.9","true","12","tones/880hz_short.mp3","s","","","empty_block","","cuarenta","","","","2","36",""
"","","","","","html-keyboard-response","204","370032","0.0-247.0","28","1","2023-10-31 21:00:26","a725c3012b74bf33a1020a98cb69c237","38.122.7.210","Mozilla/5.0 (Windows NT 10.0; Win64; x64) AppleWebKit/537.36 (KHTML, like Gecko) Chrome/118.0.0.0 Safari/537.36","WebKit","Chrome","118.0.0.0","Windows","10.0","null","en-US,en;q=0.9","true","null","<div style=""font-size:100px;"">X</div>","null","","","fixation","","","","","","","",""
"","","","","","audio-keyboard-response","205","370193","0.0-248.0","28","1","2023-10-31 21:00:26","a725c3012b74bf33a1020a98cb69c237","38.122.7.210","Mozilla/5.0 (Windows NT 10.0; Win64; x64) AppleWebKit/537.36 (KHTML, like Gecko) Chrome/118.0.0.0 Safari/537.36","WebKit","Chrome","118.0.0.0","Windows","10.0","null","en-US,en;q=0.9","true","null","tones/440hz_short.mp3","null","","","tone_number_task","0","sesenta y ocho","tones/440hz_short.mp3","150","60","2","37",""
"","","","","","html-keyboard-response","206","371325","0.0-251.0-0.0","28","1","2023-10-31 21:00:26","a725c3012b74bf33a1020a98cb69c237","38.122.7.210","Mozilla/5.0 (Windows NT 10.0; Win64; x64) AppleWebKit/537.36 (KHTML, like Gecko) Chrome/118.0.0.0 Safari/537.36","WebKit","Chrome","118.0.0.0","Windows","10.0","null","en-US,en;q=0.9","true","1123","tones/440hz_short.mp3","k","","","empty_block","","sesenta y ocho","","","","2","37",""
"","","","","","html-keyboard-response","207","371346","0.0-251.0-1.0","28","1","2023-10-31 21:00:26","a725c3012b74bf33a1020a98cb69c237","38.122.7.210","Mozilla/5.0 (Windows NT 10.0; Win64; x64) AppleWebKit/537.36 (KHTML, like Gecko) Chrome/118.0.0.0 Safari/537.36","WebKit","Chrome","118.0.0.0","Windows","10.0","null","en-US,en;q=0.9","true","11","tones/440hz_short.mp3","a","","","empty_block","","sesenta y ocho","","","","2","37",""
"","","","","","html-keyboard-response","208","373990","0.0-253.0","28","1","2023-10-31 21:00:26","a725c3012b74bf33a1020a98cb69c237","38.122.7.210","Mozilla/5.0 (Windows NT 10.0; Win64; x64) AppleWebKit/537.36 (KHTML, like Gecko) Chrome/118.0.0.0 Safari/537.36","WebKit","Chrome","118.0.0.0","Windows","10.0","null","en-US,en;q=0.9","true","null","<div style=""font-size:100px;"">X</div>","null","","","fixation","","","","","","","",""
"","","","","","audio-keyboard-response","209","374552","0.0-254.0","28","1","2023-10-31 21:00:26","a725c3012b74bf33a1020a98cb69c237","38.122.7.210","Mozilla/5.0 (Windows NT 10.0; Win64; x64) AppleWebKit/537.36 (KHTML, like Gecko) Chrome/118.0.0.0 Safari/537.36","WebKit","Chrome","118.0.0.0","Windows","10.0","null","en-US,en;q=0.9","true","549","tones/440hz_short.mp3","a","","","tone_number_task","992.5","cincuenta y uno","tones/440hz_short.mp3","1142.5","60","2","38",""
"","","","","","html-keyboard-response","210","375005","0.0-255.0-0.0","28","1","2023-10-31 21:00:26","a725c3012b74bf33a1020a98cb69c237","38.122.7.210","Mozilla/5.0 (Windows NT 10.0; Win64; x64) AppleWebKit/537.36 (KHTML, like Gecko) Chrome/118.0.0.0 Safari/537.36","WebKit","Chrome","118.0.0.0","Windows","10.0","null","en-US,en;q=0.9","true","null","","null","","","delay_block","","","","","","2","38",""
"","","","","","html-keyboard-response","211","375175","0.0-255.0-1.0","28","1","2023-10-31 21:00:26","a725c3012b74bf33a1020a98cb69c237","38.122.7.210","Mozilla/5.0 (Windows NT 10.0; Win64; x64) AppleWebKit/537.36 (KHTML, like Gecko) Chrome/118.0.0.0 Safari/537.36","WebKit","Chrome","118.0.0.0","Windows","10.0","null","en-US,en;q=0.9","true","null","<p id=""stimulus"" style=""font-size:60px;"">cincuenta y uno</p>","null","","","tone_number_task_remaining_before_delay","","cincuenta y uno","","593.5","60","2","38",""
"","","","","","html-keyboard-response","212","375970","0.0-258.0-0.0","28","1","2023-10-31 21:00:26","a725c3012b74bf33a1020a98cb69c237","38.122.7.210","Mozilla/5.0 (Windows NT 10.0; Win64; x64) AppleWebKit/537.36 (KHTML, like Gecko) Chrome/118.0.0.0 Safari/537.36","WebKit","Chrome","118.0.0.0","Windows","10.0","null","en-US,en;q=0.9","true","786","<p id=""stimulus"" style=""font-size:60px;"">cincuenta y uno</p>","j","","","empty_block","","cincuenta y uno","","","","2","38",""
"","","","","","html-keyboard-response","213","378614","0.0-259.0","28","1","2023-10-31 21:00:26","a725c3012b74bf33a1020a98cb69c237","38.122.7.210","Mozilla/5.0 (Windows NT 10.0; Win64; x64) AppleWebKit/537.36 (KHTML, like Gecko) Chrome/118.0.0.0 Safari/537.36","WebKit","Chrome","118.0.0.0","Windows","10.0","null","en-US,en;q=0.9","true","null","<div style=""font-size:100px;"">X</div>","null","","","fixation","","","","","","","",""
"","","","","","audio-keyboard-response","214","378775","0.0-260.0","28","1","2023-10-31 21:00:26","a725c3012b74bf33a1020a98cb69c237","38.122.7.210","Mozilla/5.0 (Windows NT 10.0; Win64; x64) AppleWebKit/537.36 (KHTML, like Gecko) Chrome/118.0.0.0 Safari/537.36","WebKit","Chrome","118.0.0.0","Windows","10.0","null","en-US,en;q=0.9","true","null","tones/440hz_short.mp3","null","","","tone_number_task","0","sesenta y ocho","tones/440hz_short.mp3","150","60","2","39",""
"","","","","","html-keyboard-response","215","379674","0.0-263.0-0.0","28","1","2023-10-31 21:00:26","a725c3012b74bf33a1020a98cb69c237","38.122.7.210","Mozilla/5.0 (Windows NT 10.0; Win64; x64) AppleWebKit/537.36 (KHTML, like Gecko) Chrome/118.0.0.0 Safari/537.36","WebKit","Chrome","118.0.0.0","Windows","10.0","null","en-US,en;q=0.9","true","888","tones/440hz_short.mp3","a","","","empty_block","","sesenta y ocho","","","","2","39",""
"","","","","","html-keyboard-response","216","379874","0.0-263.0-1.0","28","1","2023-10-31 21:00:26","a725c3012b74bf33a1020a98cb69c237","38.122.7.210","Mozilla/5.0 (Windows NT 10.0; Win64; x64) AppleWebKit/537.36 (KHTML, like Gecko) Chrome/118.0.0.0 Safari/537.36","WebKit","Chrome","118.0.0.0","Windows","10.0","null","en-US,en;q=0.9","true","193","tones/440hz_short.mp3","k","","","empty_block","","sesenta y ocho","","","","2","39",""
"","","","","","call-function","217","379884","0.0-265.0","28","1","2023-10-31 21:00:26","a725c3012b74bf33a1020a98cb69c237","38.122.7.210","Mozilla/5.0 (Windows NT 10.0; Win64; x64) AppleWebKit/537.36 (KHTML, like Gecko) Chrome/118.0.0.0 Safari/537.36","WebKit","Chrome","118.0.0.0","Windows","10.0","null","en-US,en;q=0.9","true","","","","","","","","","","","","","",""
