"success","timeout","failed_images","failed_audio","failed_video","trial_type","trial_index","time_elapsed","internal_node_id","run_id","condition","recorded_at","source_code_version","ip","user_agent","device","browser","browser_version","platform","platform_version","referer","accept_language","check","rt","stimulus","response","question_order","url","task","delay","number","audioFile","trial_duration","font_size","block","round","value"
"true","false","[]","[]","[]","preload","0","363","0.0-0.0","7","1","2023-10-27 15:06:53","a725c3012b74bf33a1020a98cb69c237","87.124.141.135","Mozilla/5.0 (Macintosh; Intel Mac OS X 10_15_7) AppleWebKit/537.36 (KHTML, like Gecko) Chrome/118.0.0.0 Safari/537.36","Macintosh","Chrome","118.0.0.0","OS X","10_15_7","null","es-419,es;q=0.9,en;q=0.8","true","","","","","","","","","","","","","",""
"true","","","","","fullscreen","1","4751","0.0-1.0","7","1","2023-10-27 15:06:53","a725c3012b74bf33a1020a98cb69c237","87.124.141.135","Mozilla/5.0 (Macintosh; Intel Mac OS X 10_15_7) AppleWebKit/537.36 (KHTML, like Gecko) Chrome/118.0.0.0 Safari/537.36","Macintosh","Chrome","118.0.0.0","OS X","10_15_7","null","es-419,es;q=0.9,en;q=0.8","true","","","","","","","","","","","","","",""
"","","","","","html-button-response","2","6798","0.0-2.0","7","1","2023-10-27 15:06:53","a725c3012b74bf33a1020a98cb69c237","87.124.141.135","Mozilla/5.0 (Macintosh; Intel Mac OS X 10_15_7) AppleWebKit/537.36 (KHTML, like Gecko) Chrome/118.0.0.0 Safari/537.36","Macintosh","Chrome","118.0.0.0","OS X","10_15_7","null","es-419,es;q=0.9,en;q=0.8","true","2043","<p style=""font-size:24px; color:red;"">Cosas importantes a tener en cuenta antes de comenzar el experimento:</p>","0","","","","","","","","","","",""
"","","","","","html-button-response","3","16503","0.0-3.0","7","1","2023-10-27 15:06:53","a725c3012b74bf33a1020a98cb69c237","87.124.141.135","Mozilla/5.0 (Macintosh; Intel Mac OS X 10_15_7) AppleWebKit/537.36 (KHTML, like Gecko) Chrome/118.0.0.0 Safari/537.36","Macintosh","Chrome","118.0.0.0","OS X","10_15_7","null","es-419,es;q=0.9,en;q=0.8","true","9703","<p style=""font-size:24px;"">El experimento dura aproximadamente 15 minutos.</p><p style=""font-size:24px;"">Por favor, no cierres la ventana del navegador durante el experimento.</p><p style=""font-size:24px;"">Si se completa de forma parcial, no se guardará ningún resultado.</p>","0","","","","","","","","","","",""
"","","","","","html-button-response","4","20010","0.0-4.0","7","1","2023-10-27 15:06:53","a725c3012b74bf33a1020a98cb69c237","87.124.141.135","Mozilla/5.0 (Macintosh; Intel Mac OS X 10_15_7) AppleWebKit/537.36 (KHTML, like Gecko) Chrome/118.0.0.0 Safari/537.36","Macintosh","Chrome","118.0.0.0","OS X","10_15_7","null","es-419,es;q=0.9,en;q=0.8","true","3505","<p style=""font-size:24px;"">El experimento contiene estímulos sonoros.</p>","0","","","","","","","","","","",""
"","","","","","audio-button-response","5","24334","0.0-5.0-0.0","7","1","2023-10-27 15:06:53","a725c3012b74bf33a1020a98cb69c237","87.124.141.135","Mozilla/5.0 (Macintosh; Intel Mac OS X 10_15_7) AppleWebKit/537.36 (KHTML, like Gecko) Chrome/118.0.0.0 Safari/537.36","Macintosh","Chrome","118.0.0.0","OS X","10_15_7","null","es-419,es;q=0.9,en;q=0.8","true","4288","tones/440hz_short.mp3","1","","","","","","","","","","",""
"","","","","","audio-button-response","6","26128","0.0-6.0-0.0","7","1","2023-10-27 15:06:53","a725c3012b74bf33a1020a98cb69c237","87.124.141.135","Mozilla/5.0 (Macintosh; Intel Mac OS X 10_15_7) AppleWebKit/537.36 (KHTML, like Gecko) Chrome/118.0.0.0 Safari/537.36","Macintosh","Chrome","118.0.0.0","OS X","10_15_7","null","es-419,es;q=0.9,en;q=0.8","true","1792","tones/880hz_short.mp3","1","","","","","","","","","","",""
"","","","","","survey-html-form","7","29788","0.0-7.0","7","1","2023-10-27 15:06:53","a725c3012b74bf33a1020a98cb69c237","87.124.141.135","Mozilla/5.0 (Macintosh; Intel Mac OS X 10_15_7) AppleWebKit/537.36 (KHTML, like Gecko) Chrome/118.0.0.0 Safari/537.36","Macintosh","Chrome","118.0.0.0","OS X","10_15_7","null","es-419,es;q=0.9,en;q=0.8","true","3653","","{""response"":""23""}","","","","","","","","","","",""
"","","","","","survey-multi-choice","8","35423","0.0-8.0","7","1","2023-10-27 15:06:53","a725c3012b74bf33a1020a98cb69c237","87.124.141.135","Mozilla/5.0 (Macintosh; Intel Mac OS X 10_15_7) AppleWebKit/537.36 (KHTML, like Gecko) Chrome/118.0.0.0 Safari/537.36","Macintosh","Chrome","118.0.0.0","OS X","10_15_7","null","es-419,es;q=0.9,en;q=0.8","true","5631","","{""gender"":""Hombre"",""hand"":""Derecha""}","[0,1]","","","","","","","","","",""
"","","","","","external-html","9","96139","0.0-9.0","7","1","2023-10-27 15:06:53","a725c3012b74bf33a1020a98cb69c237","87.124.141.135","Mozilla/5.0 (Macintosh; Intel Mac OS X 10_15_7) AppleWebKit/537.36 (KHTML, like Gecko) Chrome/118.0.0.0 Safari/537.36","Macintosh","Chrome","118.0.0.0","OS X","10_15_7","null","es-419,es;q=0.9,en;q=0.8","true","60243","","","","instructions/instructions.html","","","","","","","","",""
"","","","","","external-html","10","119136","0.0-10.0","7","1","2023-10-27 15:06:53","a725c3012b74bf33a1020a98cb69c237","87.124.141.135","Mozilla/5.0 (Macintosh; Intel Mac OS X 10_15_7) AppleWebKit/537.36 (KHTML, like Gecko) Chrome/118.0.0.0 Safari/537.36","Macintosh","Chrome","118.0.0.0","OS X","10_15_7","null","es-419,es;q=0.9,en;q=0.8","true","22687","","","","instructions/animation.html","","","","","","","","",""
"","","","","","html-keyboard-response","11","121833","0.0-11.0-0.0","7","1","2023-10-27 15:06:53","a725c3012b74bf33a1020a98cb69c237","87.124.141.135","Mozilla/5.0 (Macintosh; Intel Mac OS X 10_15_7) AppleWebKit/537.36 (KHTML, like Gecko) Chrome/118.0.0.0 Safari/537.36","Macintosh","Chrome","118.0.0.0","OS X","10_15_7","null","es-419,es;q=0.9,en;q=0.8","true","null","<div style=""font-size:100px;"">X</div>","null","","","fixation","","","","","","","",""
"","","","","","audio-keyboard-response","12","122378","0.0-11.0-1.0","7","1","2023-10-27 15:06:53","a725c3012b74bf33a1020a98cb69c237","87.124.141.135","Mozilla/5.0 (Macintosh; Intel Mac OS X 10_15_7) AppleWebKit/537.36 (KHTML, like Gecko) Chrome/118.0.0.0 Safari/537.36","Macintosh","Chrome","118.0.0.0","OS X","10_15_7","null","es-419,es;q=0.9,en;q=0.8","true","544","tones/880hz_short.mp3","s","","","tone_number_task","1000","39","tones/880hz_short.mp3","1150","100","null","null",""
"","","","","","html-keyboard-response","13","122842","0.0-11.0-2.0-0.0","7","1","2023-10-27 15:06:53","a725c3012b74bf33a1020a98cb69c237","87.124.141.135","Mozilla/5.0 (Macintosh; Intel Mac OS X 10_15_7) AppleWebKit/537.36 (KHTML, like Gecko) Chrome/118.0.0.0 Safari/537.36","Macintosh","Chrome","118.0.0.0","OS X","10_15_7","null","es-419,es;q=0.9,en;q=0.8","true","null","","null","","","delay_block","","","","","","null","null",""
"","","","","","html-keyboard-response","14","123002","0.0-11.0-2.0-1.0","7","1","2023-10-27 15:06:53","a725c3012b74bf33a1020a98cb69c237","87.124.141.135","Mozilla/5.0 (Macintosh; Intel Mac OS X 10_15_7) AppleWebKit/537.36 (KHTML, like Gecko) Chrome/118.0.0.0 Safari/537.36","Macintosh","Chrome","118.0.0.0","OS X","10_15_7","null","es-419,es;q=0.9,en;q=0.8","true","null","<p id=""stimulus"" style=""font-size:100px;"">39</p>","null","","","tone_number_task_remaining_before_delay","","39","","606","100","null","null",""
"","","","","","html-keyboard-response","15","125235","0.0-11.0-5.0-0.0","7","1","2023-10-27 15:06:53","a725c3012b74bf33a1020a98cb69c237","87.124.141.135","Mozilla/5.0 (Macintosh; Intel Mac OS X 10_15_7) AppleWebKit/537.36 (KHTML, like Gecko) Chrome/118.0.0.0 Safari/537.36","Macintosh","Chrome","118.0.0.0","OS X","10_15_7","null","es-419,es;q=0.9,en;q=0.8","true","2229","<p id=""stimulus"" style=""font-size:100px;"">39</p>","j","","","empty_block","","39","","","","null","null",""
"","","","","","html-keyboard-response","16","127932","0.0-13.0-0.0","7","1","2023-10-27 15:06:53","a725c3012b74bf33a1020a98cb69c237","87.124.141.135","Mozilla/5.0 (Macintosh; Intel Mac OS X 10_15_7) AppleWebKit/537.36 (KHTML, like Gecko) Chrome/118.0.0.0 Safari/537.36","Macintosh","Chrome","118.0.0.0","OS X","10_15_7","null","es-419,es;q=0.9,en;q=0.8","true","null","<div style=""font-size:100px;"">X</div>","null","","","fixation","","","","","","","",""
"","","","","","audio-keyboard-response","17","128382","0.0-13.0-1.0","7","1","2023-10-27 15:06:53","a725c3012b74bf33a1020a98cb69c237","87.124.141.135","Mozilla/5.0 (Macintosh; Intel Mac OS X 10_15_7) AppleWebKit/537.36 (KHTML, like Gecko) Chrome/118.0.0.0 Safari/537.36","Macintosh","Chrome","118.0.0.0","OS X","10_15_7","null","es-419,es;q=0.9,en;q=0.8","true","448","tones/880hz_short.mp3","s","","","tone_number_task","500","34","tones/880hz_short.mp3","650","100","null","null",""
"","","","","","html-keyboard-response","18","128440","0.0-13.0-2.0-0.0","7","1","2023-10-27 15:06:53","a725c3012b74bf33a1020a98cb69c237","87.124.141.135","Mozilla/5.0 (Macintosh; Intel Mac OS X 10_15_7) AppleWebKit/537.36 (KHTML, like Gecko) Chrome/118.0.0.0 Safari/537.36","Macintosh","Chrome","118.0.0.0","OS X","10_15_7","null","es-419,es;q=0.9,en;q=0.8","true","null","","null","","","delay_block","","","","","","null","null",""
"","","","","","html-keyboard-response","19","128596","0.0-13.0-2.0-1.0","7","1","2023-10-27 15:06:53","a725c3012b74bf33a1020a98cb69c237","87.124.141.135","Mozilla/5.0 (Macintosh; Intel Mac OS X 10_15_7) AppleWebKit/537.36 (KHTML, like Gecko) Chrome/118.0.0.0 Safari/537.36","Macintosh","Chrome","118.0.0.0","OS X","10_15_7","null","es-419,es;q=0.9,en;q=0.8","true","null","<p id=""stimulus"" style=""font-size:100px;"">34</p>","null","","","tone_number_task_remaining_before_delay","","34","","202","100","null","null",""
"","","","","","html-keyboard-response","20","128957","0.0-13.0-5.0-0.0","7","1","2023-10-27 15:06:53","a725c3012b74bf33a1020a98cb69c237","87.124.141.135","Mozilla/5.0 (Macintosh; Intel Mac OS X 10_15_7) AppleWebKit/537.36 (KHTML, like Gecko) Chrome/118.0.0.0 Safari/537.36","Macintosh","Chrome","118.0.0.0","OS X","10_15_7","null","es-419,es;q=0.9,en;q=0.8","true","357","<p id=""stimulus"" style=""font-size:100px;"">34</p>","j","","","empty_block","","34","","","","null","null",""
"","","","","","html-keyboard-response","21","131655","0.0-15.0-0.0","7","1","2023-10-27 15:06:53","a725c3012b74bf33a1020a98cb69c237","87.124.141.135","Mozilla/5.0 (Macintosh; Intel Mac OS X 10_15_7) AppleWebKit/537.36 (KHTML, like Gecko) Chrome/118.0.0.0 Safari/537.36","Macintosh","Chrome","118.0.0.0","OS X","10_15_7","null","es-419,es;q=0.9,en;q=0.8","true","null","<div style=""font-size:100px;"">X</div>","null","","","fixation","","","","","","","",""
"","","","","","audio-keyboard-response","22","131960","0.0-15.0-1.0","7","1","2023-10-27 15:06:53","a725c3012b74bf33a1020a98cb69c237","87.124.141.135","Mozilla/5.0 (Macintosh; Intel Mac OS X 10_15_7) AppleWebKit/537.36 (KHTML, like Gecko) Chrome/118.0.0.0 Safari/537.36","Macintosh","Chrome","118.0.0.0","OS X","10_15_7","null","es-419,es;q=0.9,en;q=0.8","true","null","tones/440hz_short.mp3","null","","","tone_number_task","150","52","tones/440hz_short.mp3","300","100","null","null",""
"","","","","","html-keyboard-response","23","132083","0.0-15.0-4.0-0.0","7","1","2023-10-27 15:06:53","a725c3012b74bf33a1020a98cb69c237","87.124.141.135","Mozilla/5.0 (Macintosh; Intel Mac OS X 10_15_7) AppleWebKit/537.36 (KHTML, like Gecko) Chrome/118.0.0.0 Safari/537.36","Macintosh","Chrome","118.0.0.0","OS X","10_15_7","null","es-419,es;q=0.9,en;q=0.8","true","118","tones/440hz_short.mp3","a","","","empty_block","","52","","","","null","null",""
"","","","","","html-keyboard-response","24","132421","0.0-15.0-4.0-1.0","7","1","2023-10-27 15:06:53","a725c3012b74bf33a1020a98cb69c237","87.124.141.135","Mozilla/5.0 (Macintosh; Intel Mac OS X 10_15_7) AppleWebKit/537.36 (KHTML, like Gecko) Chrome/118.0.0.0 Safari/537.36","Macintosh","Chrome","118.0.0.0","OS X","10_15_7","null","es-419,es;q=0.9,en;q=0.8","true","335","tones/440hz_short.mp3","k","","","empty_block","","52","","","","null","null",""
"","","","","","html-keyboard-response","25","135116","0.0-17.0-0.0","7","1","2023-10-27 15:06:53","a725c3012b74bf33a1020a98cb69c237","87.124.141.135","Mozilla/5.0 (Macintosh; Intel Mac OS X 10_15_7) AppleWebKit/537.36 (KHTML, like Gecko) Chrome/118.0.0.0 Safari/537.36","Macintosh","Chrome","118.0.0.0","OS X","10_15_7","null","es-419,es;q=0.9,en;q=0.8","true","null","<div style=""font-size:100px;"">X</div>","null","","","fixation","","","","","","","",""
"","","","","","audio-keyboard-response","26","135323","0.0-17.0-1.0","7","1","2023-10-27 15:06:53","a725c3012b74bf33a1020a98cb69c237","87.124.141.135","Mozilla/5.0 (Macintosh; Intel Mac OS X 10_15_7) AppleWebKit/537.36 (KHTML, like Gecko) Chrome/118.0.0.0 Safari/537.36","Macintosh","Chrome","118.0.0.0","OS X","10_15_7","null","es-419,es;q=0.9,en;q=0.8","true","null","tones/880hz_short.mp3","null","","","tone_number_task","50","41","tones/880hz_short.mp3","200","100","null","null",""
"","","","","","html-keyboard-response","27","135623","0.0-17.0-4.0-0.0","7","1","2023-10-27 15:06:53","a725c3012b74bf33a1020a98cb69c237","87.124.141.135","Mozilla/5.0 (Macintosh; Intel Mac OS X 10_15_7) AppleWebKit/537.36 (KHTML, like Gecko) Chrome/118.0.0.0 Safari/537.36","Macintosh","Chrome","118.0.0.0","OS X","10_15_7","null","es-419,es;q=0.9,en;q=0.8","true","294","tones/880hz_short.mp3","s","","","empty_block","","41","","","","null","null",""
"","","","","","html-keyboard-response","28","135953","0.0-17.0-4.0-1.0","7","1","2023-10-27 15:06:53","a725c3012b74bf33a1020a98cb69c237","87.124.141.135","Mozilla/5.0 (Macintosh; Intel Mac OS X 10_15_7) AppleWebKit/537.36 (KHTML, like Gecko) Chrome/118.0.0.0 Safari/537.36","Macintosh","Chrome","118.0.0.0","OS X","10_15_7","null","es-419,es;q=0.9,en;q=0.8","true","327","tones/880hz_short.mp3","j","","","empty_block","","41","","","","null","null",""
"","","","","","html-button-response","29","143075","0.0-19.0","7","1","2023-10-27 15:06:53","a725c3012b74bf33a1020a98cb69c237","87.124.141.135","Mozilla/5.0 (Macintosh; Intel Mac OS X 10_15_7) AppleWebKit/537.36 (KHTML, like Gecko) Chrome/118.0.0.0 Safari/537.36","Macintosh","Chrome","118.0.0.0","OS X","10_15_7","null","es-419,es;q=0.9,en;q=0.8","true","7117","
  <h1> Muy bien </h1>
  <p> Ahora, en vez de ser presentados en dígitos, los números vendrán escritos en palabras. </p>
  <p> Por ejemplo, en vez de 44 te aparecerá ""cuarenta y cuatro"". </p>
  ","0","","","","","","","","","","",""
"","","","","","html-keyboard-response","30","145770","0.0-20.0-0.0","7","1","2023-10-27 15:06:53","a725c3012b74bf33a1020a98cb69c237","87.124.141.135","Mozilla/5.0 (Macintosh; Intel Mac OS X 10_15_7) AppleWebKit/537.36 (KHTML, like Gecko) Chrome/118.0.0.0 Safari/537.36","Macintosh","Chrome","118.0.0.0","OS X","10_15_7","null","es-419,es;q=0.9,en;q=0.8","true","null","<div style=""font-size:100px;"">X</div>","null","","","fixation","","","","","","","",""
"","","","","","audio-keyboard-response","31","146312","0.0-20.0-1.0","7","1","2023-10-27 15:06:53","a725c3012b74bf33a1020a98cb69c237","87.124.141.135","Mozilla/5.0 (Macintosh; Intel Mac OS X 10_15_7) AppleWebKit/537.36 (KHTML, like Gecko) Chrome/118.0.0.0 Safari/537.36","Macintosh","Chrome","118.0.0.0","OS X","10_15_7","null","es-419,es;q=0.9,en;q=0.8","true","533","tones/880hz_short.mp3","s","","","tone_number_task","1000","treinta y ocho","tones/880hz_short.mp3","1150","60","null","null",""
"","","","","","html-keyboard-response","32","146786","0.0-20.0-2.0-0.0","7","1","2023-10-27 15:06:53","a725c3012b74bf33a1020a98cb69c237","87.124.141.135","Mozilla/5.0 (Macintosh; Intel Mac OS X 10_15_7) AppleWebKit/537.36 (KHTML, like Gecko) Chrome/118.0.0.0 Safari/537.36","Macintosh","Chrome","118.0.0.0","OS X","10_15_7","null","es-419,es;q=0.9,en;q=0.8","true","null","","null","","","delay_block","","","","","","null","null",""
"","","","","","html-keyboard-response","33","146946","0.0-20.0-2.0-1.0","7","1","2023-10-27 15:06:53","a725c3012b74bf33a1020a98cb69c237","87.124.141.135","Mozilla/5.0 (Macintosh; Intel Mac OS X 10_15_7) AppleWebKit/537.36 (KHTML, like Gecko) Chrome/118.0.0.0 Safari/537.36","Macintosh","Chrome","118.0.0.0","OS X","10_15_7","null","es-419,es;q=0.9,en;q=0.8","true","null","<p id=""stimulus"" style=""font-size:60px;"">treinta y ocho</p>","null","","","tone_number_task_remaining_before_delay","","treinta y ocho","","617","60","null","null",""
"","","","","","html-keyboard-response","34","147460","0.0-20.0-5.0-0.0","7","1","2023-10-27 15:06:53","a725c3012b74bf33a1020a98cb69c237","87.124.141.135","Mozilla/5.0 (Macintosh; Intel Mac OS X 10_15_7) AppleWebKit/537.36 (KHTML, like Gecko) Chrome/118.0.0.0 Safari/537.36","Macintosh","Chrome","118.0.0.0","OS X","10_15_7","null","es-419,es;q=0.9,en;q=0.8","true","510","<p id=""stimulus"" style=""font-size:60px;"">treinta y ocho</p>","j","","","empty_block","","treinta y ocho","","","","null","null",""
"","","","","","html-button-response","35","158265","0.0-22.0","7","1","2023-10-27 15:06:53","a725c3012b74bf33a1020a98cb69c237","87.124.141.135","Mozilla/5.0 (Macintosh; Intel Mac OS X 10_15_7) AppleWebKit/537.36 (KHTML, like Gecko) Chrome/118.0.0.0 Safari/537.36","Macintosh","Chrome","118.0.0.0","OS X","10_15_7","null","es-419,es;q=0.9,en;q=0.8","true","10802","
  <h1> Fin del Entrenamiento </h1>
  <p> ¡Felicitaciones, terminaste el entrenamiento! Ahora vamos a comenzar con el experimento. </p>
  <p> Es importante tener en cuenta que consta de cuatro bloques.</p>
  <p> Podés aprovechar los momentos entre bloques para tomar un breve descanso o tomar agua entre cada uno</p>
  <p> Recordá que tenés que responder lo más rápido que puedas, pero sin equivocarte. </p>
  ","0","","","","","","","","","","",""
"","","","","","external-html","36","175324","0.0-23.0","7","1","2023-10-27 15:06:53","a725c3012b74bf33a1020a98cb69c237","87.124.141.135","Mozilla/5.0 (Macintosh; Intel Mac OS X 10_15_7) AppleWebKit/537.36 (KHTML, like Gecko) Chrome/118.0.0.0 Safari/537.36","Macintosh","Chrome","118.0.0.0","OS X","10_15_7","null","es-419,es;q=0.9,en;q=0.8","true","16775","","","","instructions/instructions_words_first.html","","","","","","","","",""
"","","","","","call-function","37","175327","0.0-24.0","7","1","2023-10-27 15:06:53","a725c3012b74bf33a1020a98cb69c237","87.124.141.135","Mozilla/5.0 (Macintosh; Intel Mac OS X 10_15_7) AppleWebKit/537.36 (KHTML, like Gecko) Chrome/118.0.0.0 Safari/537.36","Macintosh","Chrome","118.0.0.0","OS X","10_15_7","null","es-419,es;q=0.9,en;q=0.8","true","","","","","","","","","","","","","",""
"","","","","","html-keyboard-response","38","178020","0.0-25.0","7","1","2023-10-27 15:06:53","a725c3012b74bf33a1020a98cb69c237","87.124.141.135","Mozilla/5.0 (Macintosh; Intel Mac OS X 10_15_7) AppleWebKit/537.36 (KHTML, like Gecko) Chrome/118.0.0.0 Safari/537.36","Macintosh","Chrome","118.0.0.0","OS X","10_15_7","null","es-419,es;q=0.9,en;q=0.8","true","null","<div style=""font-size:100px;"">X</div>","null","","","fixation","","","","","","","",""
"","","","","","audio-keyboard-response","39","178426","0.0-26.0","7","1","2023-10-27 15:06:53","a725c3012b74bf33a1020a98cb69c237","87.124.141.135","Mozilla/5.0 (Macintosh; Intel Mac OS X 10_15_7) AppleWebKit/537.36 (KHTML, like Gecko) Chrome/118.0.0.0 Safari/537.36","Macintosh","Chrome","118.0.0.0","OS X","10_15_7","null","es-419,es;q=0.9,en;q=0.8","true","400","tones/880hz_short.mp3","s","","","tone_number_task","992.5","treinta y ocho","tones/880hz_short.mp3","1142.5","60","2","0",""
"","","","","","html-keyboard-response","40","179025","0.0-27.0-0.0","7","1","2023-10-27 15:06:53","a725c3012b74bf33a1020a98cb69c237","87.124.141.135","Mozilla/5.0 (Macintosh; Intel Mac OS X 10_15_7) AppleWebKit/537.36 (KHTML, like Gecko) Chrome/118.0.0.0 Safari/537.36","Macintosh","Chrome","118.0.0.0","OS X","10_15_7","null","es-419,es;q=0.9,en;q=0.8","true","null","","null","","","delay_block","","","","","","2","0",""
"","","","","","html-keyboard-response","41","179185","0.0-27.0-1.0","7","1","2023-10-27 15:06:53","a725c3012b74bf33a1020a98cb69c237","87.124.141.135","Mozilla/5.0 (Macintosh; Intel Mac OS X 10_15_7) AppleWebKit/537.36 (KHTML, like Gecko) Chrome/118.0.0.0 Safari/537.36","Macintosh","Chrome","118.0.0.0","OS X","10_15_7","null","es-419,es;q=0.9,en;q=0.8","true","null","<p id=""stimulus"" style=""font-size:60px;"">treinta y ocho</p>","null","","","tone_number_task_remaining_before_delay","","treinta y ocho","","742.5","60","2","0",""
"","","","","","html-keyboard-response","42","179591","0.0-30.0-0.0","7","1","2023-10-27 15:06:53","a725c3012b74bf33a1020a98cb69c237","87.124.141.135","Mozilla/5.0 (Macintosh; Intel Mac OS X 10_15_7) AppleWebKit/537.36 (KHTML, like Gecko) Chrome/118.0.0.0 Safari/537.36","Macintosh","Chrome","118.0.0.0","OS X","10_15_7","null","es-419,es;q=0.9,en;q=0.8","true","401","<p id=""stimulus"" style=""font-size:60px;"">treinta y ocho</p>","j","","","empty_block","","treinta y ocho","","","","2","0",""
"","","","","","html-keyboard-response","43","182290","0.0-31.0","7","1","2023-10-27 15:06:53","a725c3012b74bf33a1020a98cb69c237","87.124.141.135","Mozilla/5.0 (Macintosh; Intel Mac OS X 10_15_7) AppleWebKit/537.36 (KHTML, like Gecko) Chrome/118.0.0.0 Safari/537.36","Macintosh","Chrome","118.0.0.0","OS X","10_15_7","null","es-419,es;q=0.9,en;q=0.8","true","null","<div style=""font-size:100px;"">X</div>","null","","","fixation","","","","","","","",""
"","","","","","audio-keyboard-response","44","182946","0.0-32.0","7","1","2023-10-27 15:06:53","a725c3012b74bf33a1020a98cb69c237","87.124.141.135","Mozilla/5.0 (Macintosh; Intel Mac OS X 10_15_7) AppleWebKit/537.36 (KHTML, like Gecko) Chrome/118.0.0.0 Safari/537.36","Macintosh","Chrome","118.0.0.0","OS X","10_15_7","null","es-419,es;q=0.9,en;q=0.8","true","651","tones/880hz_short.mp3","s","","","tone_number_task","1025","sesenta y siete","tones/880hz_short.mp3","1175","60","2","1",""
"","","","","","html-keyboard-response","45","183326","0.0-33.0-0.0","7","1","2023-10-27 15:06:53","a725c3012b74bf33a1020a98cb69c237","87.124.141.135","Mozilla/5.0 (Macintosh; Intel Mac OS X 10_15_7) AppleWebKit/537.36 (KHTML, like Gecko) Chrome/118.0.0.0 Safari/537.36","Macintosh","Chrome","118.0.0.0","OS X","10_15_7","null","es-419,es;q=0.9,en;q=0.8","true","null","","null","","","delay_block","","","","","","2","1",""
"","","","","","html-keyboard-response","46","183487","0.0-33.0-1.0","7","1","2023-10-27 15:06:53","a725c3012b74bf33a1020a98cb69c237","87.124.141.135","Mozilla/5.0 (Macintosh; Intel Mac OS X 10_15_7) AppleWebKit/537.36 (KHTML, like Gecko) Chrome/118.0.0.0 Safari/537.36","Macintosh","Chrome","118.0.0.0","OS X","10_15_7","null","es-419,es;q=0.9,en;q=0.8","true","null","<p id=""stimulus"" style=""font-size:60px;"">sesenta y siete</p>","null","","","tone_number_task_remaining_before_delay","","sesenta y siete","","524","60","2","1",""
"","","","","","html-keyboard-response","47","183906","0.0-36.0-0.0","7","1","2023-10-27 15:06:53","a725c3012b74bf33a1020a98cb69c237","87.124.141.135","Mozilla/5.0 (Macintosh; Intel Mac OS X 10_15_7) AppleWebKit/537.36 (KHTML, like Gecko) Chrome/118.0.0.0 Safari/537.36","Macintosh","Chrome","118.0.0.0","OS X","10_15_7","null","es-419,es;q=0.9,en;q=0.8","true","412","<p id=""stimulus"" style=""font-size:60px;"">sesenta y siete</p>","k","","","empty_block","","sesenta y siete","","","","2","1",""
"","","","","","html-keyboard-response","48","186605","0.0-37.0","7","1","2023-10-27 15:06:53","a725c3012b74bf33a1020a98cb69c237","87.124.141.135","Mozilla/5.0 (Macintosh; Intel Mac OS X 10_15_7) AppleWebKit/537.36 (KHTML, like Gecko) Chrome/118.0.0.0 Safari/537.36","Macintosh","Chrome","118.0.0.0","OS X","10_15_7","null","es-419,es;q=0.9,en;q=0.8","true","null","<div style=""font-size:100px;"">X</div>","null","","","fixation","","","","","","","",""
"","","","","","audio-keyboard-response","49","186868","0.0-38.0","7","1","2023-10-27 15:06:53","a725c3012b74bf33a1020a98cb69c237","87.124.141.135","Mozilla/5.0 (Macintosh; Intel Mac OS X 10_15_7) AppleWebKit/537.36 (KHTML, like Gecko) Chrome/118.0.0.0 Safari/537.36","Macintosh","Chrome","118.0.0.0","OS X","10_15_7","null","es-419,es;q=0.9,en;q=0.8","true","null","tones/880hz_short.mp3","null","","","tone_number_task","102.5","veintinueve","tones/880hz_short.mp3","252.5","60","2","2",""
"","","","","","html-keyboard-response","50","187241","0.0-41.0-0.0","7","1","2023-10-27 15:06:53","a725c3012b74bf33a1020a98cb69c237","87.124.141.135","Mozilla/5.0 (Macintosh; Intel Mac OS X 10_15_7) AppleWebKit/537.36 (KHTML, like Gecko) Chrome/118.0.0.0 Safari/537.36","Macintosh","Chrome","118.0.0.0","OS X","10_15_7","null","es-419,es;q=0.9,en;q=0.8","true","368","tones/880hz_short.mp3","s","","","empty_block","","veintinueve","","","","2","2",""
"","","","","","html-keyboard-response","51","187717","0.0-41.0-1.0","7","1","2023-10-27 15:06:53","a725c3012b74bf33a1020a98cb69c237","87.124.141.135","Mozilla/5.0 (Macintosh; Intel Mac OS X 10_15_7) AppleWebKit/537.36 (KHTML, like Gecko) Chrome/118.0.0.0 Safari/537.36","Macintosh","Chrome","118.0.0.0","OS X","10_15_7","null","es-419,es;q=0.9,en;q=0.8","true","471","tones/880hz_short.mp3","j","","","empty_block","","veintinueve","","","","2","2",""
"","","","","","html-keyboard-response","52","190417","0.0-43.0","7","1","2023-10-27 15:06:53","a725c3012b74bf33a1020a98cb69c237","87.124.141.135","Mozilla/5.0 (Macintosh; Intel Mac OS X 10_15_7) AppleWebKit/537.36 (KHTML, like Gecko) Chrome/118.0.0.0 Safari/537.36","Macintosh","Chrome","118.0.0.0","OS X","10_15_7","null","es-419,es;q=0.9,en;q=0.8","true","null","<div style=""font-size:100px;"">X</div>","null","","","fixation","","","","","","","",""
"","","","","","audio-keyboard-response","53","190578","0.0-44.0","7","1","2023-10-27 15:06:53","a725c3012b74bf33a1020a98cb69c237","87.124.141.135","Mozilla/5.0 (Macintosh; Intel Mac OS X 10_15_7) AppleWebKit/537.36 (KHTML, like Gecko) Chrome/118.0.0.0 Safari/537.36","Macintosh","Chrome","118.0.0.0","OS X","10_15_7","null","es-419,es;q=0.9,en;q=0.8","true","null","tones/440hz_short.mp3","null","","","tone_number_task","0","cincuenta y seis","tones/440hz_short.mp3","150","60","2","3",""
"","","","","","html-keyboard-response","54","190990","0.0-47.0-0.0","7","1","2023-10-27 15:06:53","a725c3012b74bf33a1020a98cb69c237","87.124.141.135","Mozilla/5.0 (Macintosh; Intel Mac OS X 10_15_7) AppleWebKit/537.36 (KHTML, like Gecko) Chrome/118.0.0.0 Safari/537.36","Macintosh","Chrome","118.0.0.0","OS X","10_15_7","null","es-419,es;q=0.9,en;q=0.8","true","406","tones/440hz_short.mp3","s","","","empty_block","","cincuenta y seis","","","","2","3",""
"","","","","","html-keyboard-response","55","191527","0.0-47.0-1.0","7","1","2023-10-27 15:06:53","a725c3012b74bf33a1020a98cb69c237","87.124.141.135","Mozilla/5.0 (Macintosh; Intel Mac OS X 10_15_7) AppleWebKit/537.36 (KHTML, like Gecko) Chrome/118.0.0.0 Safari/537.36","Macintosh","Chrome","118.0.0.0","OS X","10_15_7","null","es-419,es;q=0.9,en;q=0.8","true","531","tones/440hz_short.mp3","k","","","empty_block","","cincuenta y seis","","","","2","3",""
"","","","","","html-keyboard-response","56","194227","0.0-49.0","7","1","2023-10-27 15:06:53","a725c3012b74bf33a1020a98cb69c237","87.124.141.135","Mozilla/5.0 (Macintosh; Intel Mac OS X 10_15_7) AppleWebKit/537.36 (KHTML, like Gecko) Chrome/118.0.0.0 Safari/537.36","Macintosh","Chrome","118.0.0.0","OS X","10_15_7","null","es-419,es;q=0.9,en;q=0.8","true","null","<div style=""font-size:100px;"">X</div>","null","","","fixation","","","","","","","",""
"","","","","","audio-keyboard-response","57","194390","0.0-50.0","7","1","2023-10-27 15:06:53","a725c3012b74bf33a1020a98cb69c237","87.124.141.135","Mozilla/5.0 (Macintosh; Intel Mac OS X 10_15_7) AppleWebKit/537.36 (KHTML, like Gecko) Chrome/118.0.0.0 Safari/537.36","Macintosh","Chrome","118.0.0.0","OS X","10_15_7","null","es-419,es;q=0.9,en;q=0.8","true","null","tones/440hz_short.mp3","null","","","tone_number_task","0","veintiseis","tones/440hz_short.mp3","150","60","2","4",""
"","","","","","html-keyboard-response","58","194735","0.0-53.0-0.0","7","1","2023-10-27 15:06:53","a725c3012b74bf33a1020a98cb69c237","87.124.141.135","Mozilla/5.0 (Macintosh; Intel Mac OS X 10_15_7) AppleWebKit/537.36 (KHTML, like Gecko) Chrome/118.0.0.0 Safari/537.36","Macintosh","Chrome","118.0.0.0","OS X","10_15_7","null","es-419,es;q=0.9,en;q=0.8","true","340","tones/440hz_short.mp3","a","","","empty_block","","veintiseis","","","","2","4",""
"","","","","","html-keyboard-response","59","195259","0.0-53.0-1.0","7","1","2023-10-27 15:06:53","a725c3012b74bf33a1020a98cb69c237","87.124.141.135","Mozilla/5.0 (Macintosh; Intel Mac OS X 10_15_7) AppleWebKit/537.36 (KHTML, like Gecko) Chrome/118.0.0.0 Safari/537.36","Macintosh","Chrome","118.0.0.0","OS X","10_15_7","null","es-419,es;q=0.9,en;q=0.8","true","518","tones/440hz_short.mp3","j","","","empty_block","","veintiseis","","","","2","4",""
"","","","","","html-keyboard-response","60","197958","0.0-55.0","7","1","2023-10-27 15:06:53","a725c3012b74bf33a1020a98cb69c237","87.124.141.135","Mozilla/5.0 (Macintosh; Intel Mac OS X 10_15_7) AppleWebKit/537.36 (KHTML, like Gecko) Chrome/118.0.0.0 Safari/537.36","Macintosh","Chrome","118.0.0.0","OS X","10_15_7","null","es-419,es;q=0.9,en;q=0.8","true","null","<div style=""font-size:100px;"">X</div>","null","","","fixation","","","","","","","",""
"","","","","","audio-keyboard-response","61","198216","0.0-56.0","7","1","2023-10-27 15:06:53","a725c3012b74bf33a1020a98cb69c237","87.124.141.135","Mozilla/5.0 (Macintosh; Intel Mac OS X 10_15_7) AppleWebKit/537.36 (KHTML, like Gecko) Chrome/118.0.0.0 Safari/537.36","Macintosh","Chrome","118.0.0.0","OS X","10_15_7","null","es-419,es;q=0.9,en;q=0.8","true","null","tones/440hz_short.mp3","null","","","tone_number_task","102.5","sesenta y dos","tones/440hz_short.mp3","252.5","60","2","5",""
"","","","","","html-keyboard-response","62","198710","0.0-59.0-0.0","7","1","2023-10-27 15:06:53","a725c3012b74bf33a1020a98cb69c237","87.124.141.135","Mozilla/5.0 (Macintosh; Intel Mac OS X 10_15_7) AppleWebKit/537.36 (KHTML, like Gecko) Chrome/118.0.0.0 Safari/537.36","Macintosh","Chrome","118.0.0.0","OS X","10_15_7","null","es-419,es;q=0.9,en;q=0.8","true","491","tones/440hz_short.mp3","a","","","empty_block","","sesenta y dos","","","","2","5",""
"","","","","","html-keyboard-response","63","199241","0.0-59.0-1.0","7","1","2023-10-27 15:06:53","a725c3012b74bf33a1020a98cb69c237","87.124.141.135","Mozilla/5.0 (Macintosh; Intel Mac OS X 10_15_7) AppleWebKit/537.36 (KHTML, like Gecko) Chrome/118.0.0.0 Safari/537.36","Macintosh","Chrome","118.0.0.0","OS X","10_15_7","null","es-419,es;q=0.9,en;q=0.8","true","525","tones/440hz_short.mp3","k","","","empty_block","","sesenta y dos","","","","2","5",""
"","","","","","html-keyboard-response","64","201937","0.0-61.0","7","1","2023-10-27 15:06:53","a725c3012b74bf33a1020a98cb69c237","87.124.141.135","Mozilla/5.0 (Macintosh; Intel Mac OS X 10_15_7) AppleWebKit/537.36 (KHTML, like Gecko) Chrome/118.0.0.0 Safari/537.36","Macintosh","Chrome","118.0.0.0","OS X","10_15_7","null","es-419,es;q=0.9,en;q=0.8","true","null","<div style=""font-size:100px;"">X</div>","null","","","fixation","","","","","","","",""
"","","","","","audio-keyboard-response","65","202381","0.0-62.0","7","1","2023-10-27 15:06:53","a725c3012b74bf33a1020a98cb69c237","87.124.141.135","Mozilla/5.0 (Macintosh; Intel Mac OS X 10_15_7) AppleWebKit/537.36 (KHTML, like Gecko) Chrome/118.0.0.0 Safari/537.36","Macintosh","Chrome","118.0.0.0","OS X","10_15_7","null","es-419,es;q=0.9,en;q=0.8","true","443","tones/440hz_short.mp3","a","","","tone_number_task","992.5","cincuenta y ocho","tones/440hz_short.mp3","1142.5","60","2","6",""
"","","","","","html-keyboard-response","66","202938","0.0-63.0-0.0","7","1","2023-10-27 15:06:53","a725c3012b74bf33a1020a98cb69c237","87.124.141.135","Mozilla/5.0 (Macintosh; Intel Mac OS X 10_15_7) AppleWebKit/537.36 (KHTML, like Gecko) Chrome/118.0.0.0 Safari/537.36","Macintosh","Chrome","118.0.0.0","OS X","10_15_7","null","es-419,es;q=0.9,en;q=0.8","true","null","","null","","","delay_block","","","","","","2","6",""
"","","","","","html-keyboard-response","67","203097","0.0-63.0-1.0","7","1","2023-10-27 15:06:53","a725c3012b74bf33a1020a98cb69c237","87.124.141.135","Mozilla/5.0 (Macintosh; Intel Mac OS X 10_15_7) AppleWebKit/537.36 (KHTML, like Gecko) Chrome/118.0.0.0 Safari/537.36","Macintosh","Chrome","118.0.0.0","OS X","10_15_7","null","es-419,es;q=0.9,en;q=0.8","true","null","<p id=""stimulus"" style=""font-size:60px;"">cincuenta y ocho</p>","null","","","tone_number_task_remaining_before_delay","","cincuenta y ocho","","699.5","60","2","6",""
"","","","","","html-keyboard-response","68","203449","0.0-66.0-0.0","7","1","2023-10-27 15:06:53","a725c3012b74bf33a1020a98cb69c237","87.124.141.135","Mozilla/5.0 (Macintosh; Intel Mac OS X 10_15_7) AppleWebKit/537.36 (KHTML, like Gecko) Chrome/118.0.0.0 Safari/537.36","Macintosh","Chrome","118.0.0.0","OS X","10_15_7","null","es-419,es;q=0.9,en;q=0.8","true","342","<p id=""stimulus"" style=""font-size:60px;"">cincuenta y ocho</p>","k","","","empty_block","","cincuenta y ocho","","","","2","6",""
"","","","","","html-keyboard-response","69","206148","0.0-67.0","7","1","2023-10-27 15:06:53","a725c3012b74bf33a1020a98cb69c237","87.124.141.135","Mozilla/5.0 (Macintosh; Intel Mac OS X 10_15_7) AppleWebKit/537.36 (KHTML, like Gecko) Chrome/118.0.0.0 Safari/537.36","Macintosh","Chrome","118.0.0.0","OS X","10_15_7","null","es-419,es;q=0.9,en;q=0.8","true","null","<div style=""font-size:100px;"">X</div>","null","","","fixation","","","","","","","",""
"","","","","","audio-keyboard-response","70","206510","0.0-68.0","7","1","2023-10-27 15:06:53","a725c3012b74bf33a1020a98cb69c237","87.124.141.135","Mozilla/5.0 (Macintosh; Intel Mac OS X 10_15_7) AppleWebKit/537.36 (KHTML, like Gecko) Chrome/118.0.0.0 Safari/537.36","Macintosh","Chrome","118.0.0.0","OS X","10_15_7","null","es-419,es;q=0.9,en;q=0.8","true","357","tones/880hz_short.mp3","s","","","tone_number_task","992.5","veintisiete","tones/880hz_short.mp3","1142.5","60","2","7",""
"","","","","","html-keyboard-response","71","207153","0.0-69.0-0.0","7","1","2023-10-27 15:06:53","a725c3012b74bf33a1020a98cb69c237","87.124.141.135","Mozilla/5.0 (Macintosh; Intel Mac OS X 10_15_7) AppleWebKit/537.36 (KHTML, like Gecko) Chrome/118.0.0.0 Safari/537.36","Macintosh","Chrome","118.0.0.0","OS X","10_15_7","null","es-419,es;q=0.9,en;q=0.8","true","null","","null","","","delay_block","","","","","","2","7",""
"","","","","","html-keyboard-response","72","207315","0.0-69.0-1.0","7","1","2023-10-27 15:06:53","a725c3012b74bf33a1020a98cb69c237","87.124.141.135","Mozilla/5.0 (Macintosh; Intel Mac OS X 10_15_7) AppleWebKit/537.36 (KHTML, like Gecko) Chrome/118.0.0.0 Safari/537.36","Macintosh","Chrome","118.0.0.0","OS X","10_15_7","null","es-419,es;q=0.9,en;q=0.8","true","null","<p id=""stimulus"" style=""font-size:60px;"">veintisiete</p>","null","","","tone_number_task_remaining_before_delay","","veintisiete","","785.5","60","2","7",""
"","","","","","html-keyboard-response","73","207740","0.0-72.0-0.0","7","1","2023-10-27 15:06:53","a725c3012b74bf33a1020a98cb69c237","87.124.141.135","Mozilla/5.0 (Macintosh; Intel Mac OS X 10_15_7) AppleWebKit/537.36 (KHTML, like Gecko) Chrome/118.0.0.0 Safari/537.36","Macintosh","Chrome","118.0.0.0","OS X","10_15_7","null","es-419,es;q=0.9,en;q=0.8","true","418","<p id=""stimulus"" style=""font-size:60px;"">veintisiete</p>","j","","","empty_block","","veintisiete","","","","2","7",""
"","","","","","html-keyboard-response","74","210441","0.0-73.0","7","1","2023-10-27 15:06:53","a725c3012b74bf33a1020a98cb69c237","87.124.141.135","Mozilla/5.0 (Macintosh; Intel Mac OS X 10_15_7) AppleWebKit/537.36 (KHTML, like Gecko) Chrome/118.0.0.0 Safari/537.36","Macintosh","Chrome","118.0.0.0","OS X","10_15_7","null","es-419,es;q=0.9,en;q=0.8","true","null","<div style=""font-size:100px;"">X</div>","null","","","fixation","","","","","","","",""
"","","","","","audio-keyboard-response","75","210959","0.0-74.0","7","1","2023-10-27 15:06:53","a725c3012b74bf33a1020a98cb69c237","87.124.141.135","Mozilla/5.0 (Macintosh; Intel Mac OS X 10_15_7) AppleWebKit/537.36 (KHTML, like Gecko) Chrome/118.0.0.0 Safari/537.36","Macintosh","Chrome","118.0.0.0","OS X","10_15_7","null","es-419,es;q=0.9,en;q=0.8","true","512","tones/880hz_short.mp3","s","","","tone_number_task","992.5","sesenta y tres","tones/880hz_short.mp3","1142.5","60","2","8",""
"","","","","","html-keyboard-response","76","211445","0.0-75.0-0.0","7","1","2023-10-27 15:06:53","a725c3012b74bf33a1020a98cb69c237","87.124.141.135","Mozilla/5.0 (Macintosh; Intel Mac OS X 10_15_7) AppleWebKit/537.36 (KHTML, like Gecko) Chrome/118.0.0.0 Safari/537.36","Macintosh","Chrome","118.0.0.0","OS X","10_15_7","null","es-419,es;q=0.9,en;q=0.8","true","null","","null","","","delay_block","","","","","","2","8",""
"","","","","","html-keyboard-response","77","211604","0.0-75.0-1.0","7","1","2023-10-27 15:06:53","a725c3012b74bf33a1020a98cb69c237","87.124.141.135","Mozilla/5.0 (Macintosh; Intel Mac OS X 10_15_7) AppleWebKit/537.36 (KHTML, like Gecko) Chrome/118.0.0.0 Safari/537.36","Macintosh","Chrome","118.0.0.0","OS X","10_15_7","null","es-419,es;q=0.9,en;q=0.8","true","null","<p id=""stimulus"" style=""font-size:60px;"">sesenta y tres</p>","null","","","tone_number_task_remaining_before_delay","","sesenta y tres","","630.5","60","2","8",""
"","","","","","html-keyboard-response","78","211999","0.0-78.0-0.0","7","1","2023-10-27 15:06:53","a725c3012b74bf33a1020a98cb69c237","87.124.141.135","Mozilla/5.0 (Macintosh; Intel Mac OS X 10_15_7) AppleWebKit/537.36 (KHTML, like Gecko) Chrome/118.0.0.0 Safari/537.36","Macintosh","Chrome","118.0.0.0","OS X","10_15_7","null","es-419,es;q=0.9,en;q=0.8","true","387","<p id=""stimulus"" style=""font-size:60px;"">sesenta y tres</p>","k","","","empty_block","","sesenta y tres","","","","2","8",""
"","","","","","html-keyboard-response","79","214701","0.0-79.0","7","1","2023-10-27 15:06:53","a725c3012b74bf33a1020a98cb69c237","87.124.141.135","Mozilla/5.0 (Macintosh; Intel Mac OS X 10_15_7) AppleWebKit/537.36 (KHTML, like Gecko) Chrome/118.0.0.0 Safari/537.36","Macintosh","Chrome","118.0.0.0","OS X","10_15_7","null","es-419,es;q=0.9,en;q=0.8","true","null","<div style=""font-size:100px;"">X</div>","null","","","fixation","","","","","","","",""
"","","","","","audio-keyboard-response","80","214865","0.0-80.0","7","1","2023-10-27 15:06:53","a725c3012b74bf33a1020a98cb69c237","87.124.141.135","Mozilla/5.0 (Macintosh; Intel Mac OS X 10_15_7) AppleWebKit/537.36 (KHTML, like Gecko) Chrome/118.0.0.0 Safari/537.36","Macintosh","Chrome","118.0.0.0","OS X","10_15_7","null","es-419,es;q=0.9,en;q=0.8","true","null","tones/440hz_short.mp3","null","","","tone_number_task","0","cuarenta y cuatro","tones/440hz_short.mp3","150","60","2","9",""
"","","","","","html-keyboard-response","81","215126","0.0-83.0-0.0","7","1","2023-10-27 15:06:53","a725c3012b74bf33a1020a98cb69c237","87.124.141.135","Mozilla/5.0 (Macintosh; Intel Mac OS X 10_15_7) AppleWebKit/537.36 (KHTML, like Gecko) Chrome/118.0.0.0 Safari/537.36","Macintosh","Chrome","118.0.0.0","OS X","10_15_7","null","es-419,es;q=0.9,en;q=0.8","true","254","tones/440hz_short.mp3","a","","","empty_block","","cuarenta y cuatro","","","","2","9",""
"","","","","","html-keyboard-response","82","215648","0.0-83.0-1.0","7","1","2023-10-27 15:06:53","a725c3012b74bf33a1020a98cb69c237","87.124.141.135","Mozilla/5.0 (Macintosh; Intel Mac OS X 10_15_7) AppleWebKit/537.36 (KHTML, like Gecko) Chrome/118.0.0.0 Safari/537.36","Macintosh","Chrome","118.0.0.0","OS X","10_15_7","null","es-419,es;q=0.9,en;q=0.8","true","515","tones/440hz_short.mp3","j","","","empty_block","","cuarenta y cuatro","","","","2","9",""
"","","","","","html-keyboard-response","83","218346","0.0-85.0","7","1","2023-10-27 15:06:53","a725c3012b74bf33a1020a98cb69c237","87.124.141.135","Mozilla/5.0 (Macintosh; Intel Mac OS X 10_15_7) AppleWebKit/537.36 (KHTML, like Gecko) Chrome/118.0.0.0 Safari/537.36","Macintosh","Chrome","118.0.0.0","OS X","10_15_7","null","es-419,es;q=0.9,en;q=0.8","true","null","<div style=""font-size:100px;"">X</div>","null","","","fixation","","","","","","","",""
"","","","","","audio-keyboard-response","84","219085","0.0-86.0","7","1","2023-10-27 15:06:53","a725c3012b74bf33a1020a98cb69c237","87.124.141.135","Mozilla/5.0 (Macintosh; Intel Mac OS X 10_15_7) AppleWebKit/537.36 (KHTML, like Gecko) Chrome/118.0.0.0 Safari/537.36","Macintosh","Chrome","118.0.0.0","OS X","10_15_7","null","es-419,es;q=0.9,en;q=0.8","true","731","tones/880hz_short.mp3","s","","","tone_number_task","1025","treinta","tones/880hz_short.mp3","1175","60","2","10",""
"","","","","","html-keyboard-response","85","219390","0.0-87.0-0.0","7","1","2023-10-27 15:06:53","a725c3012b74bf33a1020a98cb69c237","87.124.141.135","Mozilla/5.0 (Macintosh; Intel Mac OS X 10_15_7) AppleWebKit/537.36 (KHTML, like Gecko) Chrome/118.0.0.0 Safari/537.36","Macintosh","Chrome","118.0.0.0","OS X","10_15_7","null","es-419,es;q=0.9,en;q=0.8","true","null","","null","","","delay_block","","","","","","2","10",""
"","","","","","html-keyboard-response","86","219550","0.0-87.0-1.0","7","1","2023-10-27 15:06:53","a725c3012b74bf33a1020a98cb69c237","87.124.141.135","Mozilla/5.0 (Macintosh; Intel Mac OS X 10_15_7) AppleWebKit/537.36 (KHTML, like Gecko) Chrome/118.0.0.0 Safari/537.36","Macintosh","Chrome","118.0.0.0","OS X","10_15_7","null","es-419,es;q=0.9,en;q=0.8","true","null","<p id=""stimulus"" style=""font-size:60px;"">treinta</p>","null","","","tone_number_task_remaining_before_delay","","treinta","","444","60","2","10",""
"","","","","","html-keyboard-response","87","220039","0.0-90.0-0.0","7","1","2023-10-27 15:06:53","a725c3012b74bf33a1020a98cb69c237","87.124.141.135","Mozilla/5.0 (Macintosh; Intel Mac OS X 10_15_7) AppleWebKit/537.36 (KHTML, like Gecko) Chrome/118.0.0.0 Safari/537.36","Macintosh","Chrome","118.0.0.0","OS X","10_15_7","null","es-419,es;q=0.9,en;q=0.8","true","481","<p id=""stimulus"" style=""font-size:60px;"">treinta</p>","j","","","empty_block","","treinta","","","","2","10",""
"","","","","","html-keyboard-response","88","222740","0.0-91.0","7","1","2023-10-27 15:06:53","a725c3012b74bf33a1020a98cb69c237","87.124.141.135","Mozilla/5.0 (Macintosh; Intel Mac OS X 10_15_7) AppleWebKit/537.36 (KHTML, like Gecko) Chrome/118.0.0.0 Safari/537.36","Macintosh","Chrome","118.0.0.0","OS X","10_15_7","null","es-419,es;q=0.9,en;q=0.8","true","null","<div style=""font-size:100px;"">X</div>","null","","","fixation","","","","","","","",""
"","","","","","audio-keyboard-response","89","223001","0.0-92.0","7","1","2023-10-27 15:06:53","a725c3012b74bf33a1020a98cb69c237","87.124.141.135","Mozilla/5.0 (Macintosh; Intel Mac OS X 10_15_7) AppleWebKit/537.36 (KHTML, like Gecko) Chrome/118.0.0.0 Safari/537.36","Macintosh","Chrome","118.0.0.0","OS X","10_15_7","null","es-419,es;q=0.9,en;q=0.8","true","null","tones/440hz_short.mp3","null","","","tone_number_task","102.5","sesenta y cinco","tones/440hz_short.mp3","252.5","60","2","11",""
"","","","","","html-keyboard-response","90","223278","0.0-95.0-0.0","7","1","2023-10-27 15:06:53","a725c3012b74bf33a1020a98cb69c237","87.124.141.135","Mozilla/5.0 (Macintosh; Intel Mac OS X 10_15_7) AppleWebKit/537.36 (KHTML, like Gecko) Chrome/118.0.0.0 Safari/537.36","Macintosh","Chrome","118.0.0.0","OS X","10_15_7","null","es-419,es;q=0.9,en;q=0.8","true","267","tones/440hz_short.mp3","a","","","empty_block","","sesenta y cinco","","","","2","11",""
"","","","","","html-keyboard-response","91","224480","0.0-95.0-1.0","7","1","2023-10-27 15:06:53","a725c3012b74bf33a1020a98cb69c237","87.124.141.135","Mozilla/5.0 (Macintosh; Intel Mac OS X 10_15_7) AppleWebKit/537.36 (KHTML, like Gecko) Chrome/118.0.0.0 Safari/537.36","Macintosh","Chrome","118.0.0.0","OS X","10_15_7","null","es-419,es;q=0.9,en;q=0.8","true","1195","tones/440hz_short.mp3","k","","","empty_block","","sesenta y cinco","","","","2","11",""
"","","","","","html-keyboard-response","92","227181","0.0-97.0","7","1","2023-10-27 15:06:53","a725c3012b74bf33a1020a98cb69c237","87.124.141.135","Mozilla/5.0 (Macintosh; Intel Mac OS X 10_15_7) AppleWebKit/537.36 (KHTML, like Gecko) Chrome/118.0.0.0 Safari/537.36","Macintosh","Chrome","118.0.0.0","OS X","10_15_7","null","es-419,es;q=0.9,en;q=0.8","true","null","<div style=""font-size:100px;"">X</div>","null","","","fixation","","","","","","","",""
"","","","","","audio-keyboard-response","93","227762","0.0-98.0","7","1","2023-10-27 15:06:53","a725c3012b74bf33a1020a98cb69c237","87.124.141.135","Mozilla/5.0 (Macintosh; Intel Mac OS X 10_15_7) AppleWebKit/537.36 (KHTML, like Gecko) Chrome/118.0.0.0 Safari/537.36","Macintosh","Chrome","118.0.0.0","OS X","10_15_7","null","es-419,es;q=0.9,en;q=0.8","true","565","tones/880hz_short.mp3","s","","","tone_number_task","1025","veintisiete","tones/880hz_short.mp3","1175","60","2","12",""
"","","","","","html-keyboard-response","94","228232","0.0-99.0-0.0","7","1","2023-10-27 15:06:53","a725c3012b74bf33a1020a98cb69c237","87.124.141.135","Mozilla/5.0 (Macintosh; Intel Mac OS X 10_15_7) AppleWebKit/537.36 (KHTML, like Gecko) Chrome/118.0.0.0 Safari/537.36","Macintosh","Chrome","118.0.0.0","OS X","10_15_7","null","es-419,es;q=0.9,en;q=0.8","true","null","","null","","","delay_block","","","","","","2","12",""
"","","","","","html-keyboard-response","95","228396","0.0-99.0-1.0","7","1","2023-10-27 15:06:53","a725c3012b74bf33a1020a98cb69c237","87.124.141.135","Mozilla/5.0 (Macintosh; Intel Mac OS X 10_15_7) AppleWebKit/537.36 (KHTML, like Gecko) Chrome/118.0.0.0 Safari/537.36","Macintosh","Chrome","118.0.0.0","OS X","10_15_7","null","es-419,es;q=0.9,en;q=0.8","true","null","<p id=""stimulus"" style=""font-size:60px;"">veintisiete</p>","null","","","tone_number_task_remaining_before_delay","","veintisiete","","610","60","2","12",""
"","","","","","html-keyboard-response","96","228789","0.0-102.0-0.0","7","1","2023-10-27 15:06:53","a725c3012b74bf33a1020a98cb69c237","87.124.141.135","Mozilla/5.0 (Macintosh; Intel Mac OS X 10_15_7) AppleWebKit/537.36 (KHTML, like Gecko) Chrome/118.0.0.0 Safari/537.36","Macintosh","Chrome","118.0.0.0","OS X","10_15_7","null","es-419,es;q=0.9,en;q=0.8","true","384","<p id=""stimulus"" style=""font-size:60px;"">veintisiete</p>","j","","","empty_block","","veintisiete","","","","2","12",""
"","","","","","html-keyboard-response","97","231488","0.0-103.0","7","1","2023-10-27 15:06:53","a725c3012b74bf33a1020a98cb69c237","87.124.141.135","Mozilla/5.0 (Macintosh; Intel Mac OS X 10_15_7) AppleWebKit/537.36 (KHTML, like Gecko) Chrome/118.0.0.0 Safari/537.36","Macintosh","Chrome","118.0.0.0","OS X","10_15_7","null","es-419,es;q=0.9,en;q=0.8","true","null","<div style=""font-size:100px;"">X</div>","null","","","fixation","","","","","","","",""
"","","","","","audio-keyboard-response","98","231967","0.0-104.0","7","1","2023-10-27 15:06:53","a725c3012b74bf33a1020a98cb69c237","87.124.141.135","Mozilla/5.0 (Macintosh; Intel Mac OS X 10_15_7) AppleWebKit/537.36 (KHTML, like Gecko) Chrome/118.0.0.0 Safari/537.36","Macintosh","Chrome","118.0.0.0","OS X","10_15_7","null","es-419,es;q=0.9,en;q=0.8","true","475","tones/880hz_short.mp3","s","","","tone_number_task","1025","veinticuatro","tones/880hz_short.mp3","1175","60","2","13",""
"","","","","","html-keyboard-response","99","232526","0.0-105.0-0.0","7","1","2023-10-27 15:06:53","a725c3012b74bf33a1020a98cb69c237","87.124.141.135","Mozilla/5.0 (Macintosh; Intel Mac OS X 10_15_7) AppleWebKit/537.36 (KHTML, like Gecko) Chrome/118.0.0.0 Safari/537.36","Macintosh","Chrome","118.0.0.0","OS X","10_15_7","null","es-419,es;q=0.9,en;q=0.8","true","null","","null","","","delay_block","","","","","","2","13",""
"","","","","","html-keyboard-response","100","232692","0.0-105.0-1.0","7","1","2023-10-27 15:06:53","a725c3012b74bf33a1020a98cb69c237","87.124.141.135","Mozilla/5.0 (Macintosh; Intel Mac OS X 10_15_7) AppleWebKit/537.36 (KHTML, like Gecko) Chrome/118.0.0.0 Safari/537.36","Macintosh","Chrome","118.0.0.0","OS X","10_15_7","null","es-419,es;q=0.9,en;q=0.8","true","null","<p id=""stimulus"" style=""font-size:60px;"">veinticuatro</p>","null","","","tone_number_task_remaining_before_delay","","veinticuatro","","700","60","2","13",""
"","","","","","html-keyboard-response","101","233086","0.0-108.0-0.0","7","1","2023-10-27 15:06:53","a725c3012b74bf33a1020a98cb69c237","87.124.141.135","Mozilla/5.0 (Macintosh; Intel Mac OS X 10_15_7) AppleWebKit/537.36 (KHTML, like Gecko) Chrome/118.0.0.0 Safari/537.36","Macintosh","Chrome","118.0.0.0","OS X","10_15_7","null","es-419,es;q=0.9,en;q=0.8","true","385","<p id=""stimulus"" style=""font-size:60px;"">veinticuatro</p>","j","","","empty_block","","veinticuatro","","","","2","13",""
"","","","","","html-keyboard-response","102","235788","0.0-109.0","7","1","2023-10-27 15:06:53","a725c3012b74bf33a1020a98cb69c237","87.124.141.135","Mozilla/5.0 (Macintosh; Intel Mac OS X 10_15_7) AppleWebKit/537.36 (KHTML, like Gecko) Chrome/118.0.0.0 Safari/537.36","Macintosh","Chrome","118.0.0.0","OS X","10_15_7","null","es-419,es;q=0.9,en;q=0.8","true","null","<div style=""font-size:100px;"">X</div>","null","","","fixation","","","","","","","",""
"","","","","","audio-keyboard-response","103","236282","0.0-110.0","7","1","2023-10-27 15:06:53","a725c3012b74bf33a1020a98cb69c237","87.124.141.135","Mozilla/5.0 (Macintosh; Intel Mac OS X 10_15_7) AppleWebKit/537.36 (KHTML, like Gecko) Chrome/118.0.0.0 Safari/537.36","Macintosh","Chrome","118.0.0.0","OS X","10_15_7","null","es-419,es;q=0.9,en;q=0.8","true","485","tones/880hz_short.mp3","s","","","tone_number_task","1025","sesenta y tres","tones/880hz_short.mp3","1175","60","2","14",""
"","","","","","html-keyboard-response","104","236830","0.0-111.0-0.0","7","1","2023-10-27 15:06:53","a725c3012b74bf33a1020a98cb69c237","87.124.141.135","Mozilla/5.0 (Macintosh; Intel Mac OS X 10_15_7) AppleWebKit/537.36 (KHTML, like Gecko) Chrome/118.0.0.0 Safari/537.36","Macintosh","Chrome","118.0.0.0","OS X","10_15_7","null","es-419,es;q=0.9,en;q=0.8","true","null","","null","","","delay_block","","","","","","2","14",""
"","","","","","html-keyboard-response","105","236991","0.0-111.0-1.0","7","1","2023-10-27 15:06:53","a725c3012b74bf33a1020a98cb69c237","87.124.141.135","Mozilla/5.0 (Macintosh; Intel Mac OS X 10_15_7) AppleWebKit/537.36 (KHTML, like Gecko) Chrome/118.0.0.0 Safari/537.36","Macintosh","Chrome","118.0.0.0","OS X","10_15_7","null","es-419,es;q=0.9,en;q=0.8","true","null","<p id=""stimulus"" style=""font-size:60px;"">sesenta y tres</p>","null","","","tone_number_task_remaining_before_delay","","sesenta y tres","","690","60","2","14",""
"","","","","","html-keyboard-response","106","237477","0.0-114.0-0.0","7","1","2023-10-27 15:06:53","a725c3012b74bf33a1020a98cb69c237","87.124.141.135","Mozilla/5.0 (Macintosh; Intel Mac OS X 10_15_7) AppleWebKit/537.36 (KHTML, like Gecko) Chrome/118.0.0.0 Safari/537.36","Macintosh","Chrome","118.0.0.0","OS X","10_15_7","null","es-419,es;q=0.9,en;q=0.8","true","478","<p id=""stimulus"" style=""font-size:60px;"">sesenta y tres</p>","k","","","empty_block","","sesenta y tres","","","","2","14",""
"","","","","","html-keyboard-response","107","240180","0.0-115.0","7","1","2023-10-27 15:06:53","a725c3012b74bf33a1020a98cb69c237","87.124.141.135","Mozilla/5.0 (Macintosh; Intel Mac OS X 10_15_7) AppleWebKit/537.36 (KHTML, like Gecko) Chrome/118.0.0.0 Safari/537.36","Macintosh","Chrome","118.0.0.0","OS X","10_15_7","null","es-419,es;q=0.9,en;q=0.8","true","null","<div style=""font-size:100px;"">X</div>","null","","","fixation","","","","","","","",""
"","","","","","audio-keyboard-response","108","240344","0.0-116.0","7","1","2023-10-27 15:06:53","a725c3012b74bf33a1020a98cb69c237","87.124.141.135","Mozilla/5.0 (Macintosh; Intel Mac OS X 10_15_7) AppleWebKit/537.36 (KHTML, like Gecko) Chrome/118.0.0.0 Safari/537.36","Macintosh","Chrome","118.0.0.0","OS X","10_15_7","null","es-419,es;q=0.9,en;q=0.8","true","null","tones/440hz_short.mp3","null","","","tone_number_task","0","sesenta y siete","tones/440hz_short.mp3","150","60","2","15",""
"","","","","","html-keyboard-response","109","240912","0.0-119.0-0.0","7","1","2023-10-27 15:06:53","a725c3012b74bf33a1020a98cb69c237","87.124.141.135","Mozilla/5.0 (Macintosh; Intel Mac OS X 10_15_7) AppleWebKit/537.36 (KHTML, like Gecko) Chrome/118.0.0.0 Safari/537.36","Macintosh","Chrome","118.0.0.0","OS X","10_15_7","null","es-419,es;q=0.9,en;q=0.8","true","557","tones/440hz_short.mp3","s","","","empty_block","","sesenta y siete","","","","2","15",""
"","","","","","html-keyboard-response","110","241753","0.0-119.0-1.0","7","1","2023-10-27 15:06:53","a725c3012b74bf33a1020a98cb69c237","87.124.141.135","Mozilla/5.0 (Macintosh; Intel Mac OS X 10_15_7) AppleWebKit/537.36 (KHTML, like Gecko) Chrome/118.0.0.0 Safari/537.36","Macintosh","Chrome","118.0.0.0","OS X","10_15_7","null","es-419,es;q=0.9,en;q=0.8","true","833","tones/440hz_short.mp3","j","","","empty_block","","sesenta y siete","","","","2","15",""
"","","","","","html-keyboard-response","111","244457","0.0-121.0","7","1","2023-10-27 15:06:53","a725c3012b74bf33a1020a98cb69c237","87.124.141.135","Mozilla/5.0 (Macintosh; Intel Mac OS X 10_15_7) AppleWebKit/537.36 (KHTML, like Gecko) Chrome/118.0.0.0 Safari/537.36","Macintosh","Chrome","118.0.0.0","OS X","10_15_7","null","es-419,es;q=0.9,en;q=0.8","true","null","<div style=""font-size:100px;"">X</div>","null","","","fixation","","","","","","","",""
"","","","","","audio-keyboard-response","112","244727","0.0-122.0","7","1","2023-10-27 15:06:53","a725c3012b74bf33a1020a98cb69c237","87.124.141.135","Mozilla/5.0 (Macintosh; Intel Mac OS X 10_15_7) AppleWebKit/537.36 (KHTML, like Gecko) Chrome/118.0.0.0 Safari/537.36","Macintosh","Chrome","118.0.0.0","OS X","10_15_7","null","es-419,es;q=0.9,en;q=0.8","true","261","tones/440hz_short.mp3","a","","","tone_number_task","992.5","cincuenta y ocho","tones/440hz_short.mp3","1142.5","60","2","16",""
"","","","","","html-keyboard-response","113","245470","0.0-123.0-0.0","7","1","2023-10-27 15:06:53","a725c3012b74bf33a1020a98cb69c237","87.124.141.135","Mozilla/5.0 (Macintosh; Intel Mac OS X 10_15_7) AppleWebKit/537.36 (KHTML, like Gecko) Chrome/118.0.0.0 Safari/537.36","Macintosh","Chrome","118.0.0.0","OS X","10_15_7","null","es-419,es;q=0.9,en;q=0.8","true","null","","null","","","delay_block","","","","","","2","16",""
"","","","","","html-keyboard-response","114","245635","0.0-123.0-1.0","7","1","2023-10-27 15:06:53","a725c3012b74bf33a1020a98cb69c237","87.124.141.135","Mozilla/5.0 (Macintosh; Intel Mac OS X 10_15_7) AppleWebKit/537.36 (KHTML, like Gecko) Chrome/118.0.0.0 Safari/537.36","Macintosh","Chrome","118.0.0.0","OS X","10_15_7","null","es-419,es;q=0.9,en;q=0.8","true","null","<p id=""stimulus"" style=""font-size:60px;"">cincuenta y ocho</p>","null","","","tone_number_task_remaining_before_delay","","cincuenta y ocho","","881.5","60","2","16",""
"","","","","","html-keyboard-response","115","246039","0.0-126.0-0.0","7","1","2023-10-27 15:06:53","a725c3012b74bf33a1020a98cb69c237","87.124.141.135","Mozilla/5.0 (Macintosh; Intel Mac OS X 10_15_7) AppleWebKit/537.36 (KHTML, like Gecko) Chrome/118.0.0.0 Safari/537.36","Macintosh","Chrome","118.0.0.0","OS X","10_15_7","null","es-419,es;q=0.9,en;q=0.8","true","392","<p id=""stimulus"" style=""font-size:60px;"">cincuenta y ocho</p>","k","","","empty_block","","cincuenta y ocho","","","","2","16",""
"","","","","","html-keyboard-response","116","248742","0.0-127.0","7","1","2023-10-27 15:06:53","a725c3012b74bf33a1020a98cb69c237","87.124.141.135","Mozilla/5.0 (Macintosh; Intel Mac OS X 10_15_7) AppleWebKit/537.36 (KHTML, like Gecko) Chrome/118.0.0.0 Safari/537.36","Macintosh","Chrome","118.0.0.0","OS X","10_15_7","null","es-419,es;q=0.9,en;q=0.8","true","null","<div style=""font-size:100px;"">X</div>","null","","","fixation","","","","","","","",""
"","","","","","audio-keyboard-response","117","249188","0.0-128.0","7","1","2023-10-27 15:06:53","a725c3012b74bf33a1020a98cb69c237","87.124.141.135","Mozilla/5.0 (Macintosh; Intel Mac OS X 10_15_7) AppleWebKit/537.36 (KHTML, like Gecko) Chrome/118.0.0.0 Safari/537.36","Macintosh","Chrome","118.0.0.0","OS X","10_15_7","null","es-419,es;q=0.9,en;q=0.8","true","437","tones/880hz_short.mp3","s","","","tone_number_task","992.5","cuarenta y nueve","tones/880hz_short.mp3","1142.5","60","2","17",""
"","","","","","html-keyboard-response","118","249755","0.0-129.0-0.0","7","1","2023-10-27 15:06:53","a725c3012b74bf33a1020a98cb69c237","87.124.141.135","Mozilla/5.0 (Macintosh; Intel Mac OS X 10_15_7) AppleWebKit/537.36 (KHTML, like Gecko) Chrome/118.0.0.0 Safari/537.36","Macintosh","Chrome","118.0.0.0","OS X","10_15_7","null","es-419,es;q=0.9,en;q=0.8","true","null","","null","","","delay_block","","","","","","2","17",""
"","","","","","html-keyboard-response","119","249922","0.0-129.0-1.0","7","1","2023-10-27 15:06:53","a725c3012b74bf33a1020a98cb69c237","87.124.141.135","Mozilla/5.0 (Macintosh; Intel Mac OS X 10_15_7) AppleWebKit/537.36 (KHTML, like Gecko) Chrome/118.0.0.0 Safari/537.36","Macintosh","Chrome","118.0.0.0","OS X","10_15_7","null","es-419,es;q=0.9,en;q=0.8","true","null","<p id=""stimulus"" style=""font-size:60px;"">cuarenta y nueve</p>","null","","","tone_number_task_remaining_before_delay","","cuarenta y nueve","","705.5","60","2","17",""
"","","","","","html-keyboard-response","120","250266","0.0-132.0-0.0","7","1","2023-10-27 15:06:53","a725c3012b74bf33a1020a98cb69c237","87.124.141.135","Mozilla/5.0 (Macintosh; Intel Mac OS X 10_15_7) AppleWebKit/537.36 (KHTML, like Gecko) Chrome/118.0.0.0 Safari/537.36","Macintosh","Chrome","118.0.0.0","OS X","10_15_7","null","es-419,es;q=0.9,en;q=0.8","true","333","<p id=""stimulus"" style=""font-size:60px;"">cuarenta y nueve</p>","j","","","empty_block","","cuarenta y nueve","","","","2","17",""
"","","","","","html-keyboard-response","121","252970","0.0-133.0","7","1","2023-10-27 15:06:53","a725c3012b74bf33a1020a98cb69c237","87.124.141.135","Mozilla/5.0 (Macintosh; Intel Mac OS X 10_15_7) AppleWebKit/537.36 (KHTML, like Gecko) Chrome/118.0.0.0 Safari/537.36","Macintosh","Chrome","118.0.0.0","OS X","10_15_7","null","es-419,es;q=0.9,en;q=0.8","true","null","<div style=""font-size:100px;"">X</div>","null","","","fixation","","","","","","","",""
"","","","","","audio-keyboard-response","122","253550","0.0-134.0","7","1","2023-10-27 15:06:53","a725c3012b74bf33a1020a98cb69c237","87.124.141.135","Mozilla/5.0 (Macintosh; Intel Mac OS X 10_15_7) AppleWebKit/537.36 (KHTML, like Gecko) Chrome/118.0.0.0 Safari/537.36","Macintosh","Chrome","118.0.0.0","OS X","10_15_7","null","es-419,es;q=0.9,en;q=0.8","true","571","tones/440hz_short.mp3","a","","","tone_number_task","992.5","veintiseis","tones/440hz_short.mp3","1142.5","60","2","18",""
"","","","","","html-keyboard-response","123","253983","0.0-135.0-0.0","7","1","2023-10-27 15:06:53","a725c3012b74bf33a1020a98cb69c237","87.124.141.135","Mozilla/5.0 (Macintosh; Intel Mac OS X 10_15_7) AppleWebKit/537.36 (KHTML, like Gecko) Chrome/118.0.0.0 Safari/537.36","Macintosh","Chrome","118.0.0.0","OS X","10_15_7","null","es-419,es;q=0.9,en;q=0.8","true","null","","null","","","delay_block","","","","","","2","18",""
"","","","","","html-keyboard-response","124","254147","0.0-135.0-1.0","7","1","2023-10-27 15:06:53","a725c3012b74bf33a1020a98cb69c237","87.124.141.135","Mozilla/5.0 (Macintosh; Intel Mac OS X 10_15_7) AppleWebKit/537.36 (KHTML, like Gecko) Chrome/118.0.0.0 Safari/537.36","Macintosh","Chrome","118.0.0.0","OS X","10_15_7","null","es-419,es;q=0.9,en;q=0.8","true","null","<p id=""stimulus"" style=""font-size:60px;"">veintiseis</p>","null","","","tone_number_task_remaining_before_delay","","veintiseis","","571.5","60","2","18",""
"","","","","","html-keyboard-response","125","254533","0.0-138.0-0.0","7","1","2023-10-27 15:06:53","a725c3012b74bf33a1020a98cb69c237","87.124.141.135","Mozilla/5.0 (Macintosh; Intel Mac OS X 10_15_7) AppleWebKit/537.36 (KHTML, like Gecko) Chrome/118.0.0.0 Safari/537.36","Macintosh","Chrome","118.0.0.0","OS X","10_15_7","null","es-419,es;q=0.9,en;q=0.8","true","375","<p id=""stimulus"" style=""font-size:60px;"">veintiseis</p>","j","","","empty_block","","veintiseis","","","","2","18",""
"","","","","","html-keyboard-response","126","257234","0.0-139.0","7","1","2023-10-27 15:06:53","a725c3012b74bf33a1020a98cb69c237","87.124.141.135","Mozilla/5.0 (Macintosh; Intel Mac OS X 10_15_7) AppleWebKit/537.36 (KHTML, like Gecko) Chrome/118.0.0.0 Safari/537.36","Macintosh","Chrome","118.0.0.0","OS X","10_15_7","null","es-419,es;q=0.9,en;q=0.8","true","null","<div style=""font-size:100px;"">X</div>","null","","","fixation","","","","","","","",""
"","","","","","audio-keyboard-response","127","257402","0.0-140.0","7","1","2023-10-27 15:06:53","a725c3012b74bf33a1020a98cb69c237","87.124.141.135","Mozilla/5.0 (Macintosh; Intel Mac OS X 10_15_7) AppleWebKit/537.36 (KHTML, like Gecko) Chrome/118.0.0.0 Safari/537.36","Macintosh","Chrome","118.0.0.0","OS X","10_15_7","null","es-419,es;q=0.9,en;q=0.8","true","null","tones/880hz_short.mp3","null","","","tone_number_task","0","treinta y nueve","tones/880hz_short.mp3","150","60","2","19",""
"","","","","","html-keyboard-response","128","257984","0.0-143.0-0.0","7","1","2023-10-27 15:06:53","a725c3012b74bf33a1020a98cb69c237","87.124.141.135","Mozilla/5.0 (Macintosh; Intel Mac OS X 10_15_7) AppleWebKit/537.36 (KHTML, like Gecko) Chrome/118.0.0.0 Safari/537.36","Macintosh","Chrome","118.0.0.0","OS X","10_15_7","null","es-419,es;q=0.9,en;q=0.8","true","570","tones/880hz_short.mp3","s","","","empty_block","","treinta y nueve","","","","2","19",""
"","","","","","html-keyboard-response","129","258666","0.0-143.0-1.0","7","1","2023-10-27 15:06:53","a725c3012b74bf33a1020a98cb69c237","87.124.141.135","Mozilla/5.0 (Macintosh; Intel Mac OS X 10_15_7) AppleWebKit/537.36 (KHTML, like Gecko) Chrome/118.0.0.0 Safari/537.36","Macintosh","Chrome","118.0.0.0","OS X","10_15_7","null","es-419,es;q=0.9,en;q=0.8","true","672","tones/880hz_short.mp3","j","","","empty_block","","treinta y nueve","","","","2","19",""
"","","","","","html-keyboard-response","130","261369","0.0-145.0","7","1","2023-10-27 15:06:53","a725c3012b74bf33a1020a98cb69c237","87.124.141.135","Mozilla/5.0 (Macintosh; Intel Mac OS X 10_15_7) AppleWebKit/537.36 (KHTML, like Gecko) Chrome/118.0.0.0 Safari/537.36","Macintosh","Chrome","118.0.0.0","OS X","10_15_7","null","es-419,es;q=0.9,en;q=0.8","true","null","<div style=""font-size:100px;"">X</div>","null","","","fixation","","","","","","","",""
"","","","","","audio-keyboard-response","131","261534","0.0-146.0","7","1","2023-10-27 15:06:53","a725c3012b74bf33a1020a98cb69c237","87.124.141.135","Mozilla/5.0 (Macintosh; Intel Mac OS X 10_15_7) AppleWebKit/537.36 (KHTML, like Gecko) Chrome/118.0.0.0 Safari/537.36","Macintosh","Chrome","118.0.0.0","OS X","10_15_7","null","es-419,es;q=0.9,en;q=0.8","true","null","tones/880hz_short.mp3","null","","","tone_number_task","0","cuarenta y siete","tones/880hz_short.mp3","150","60","2","20",""
"","","","","","html-keyboard-response","132","261866","0.0-149.0-0.0","7","1","2023-10-27 15:06:53","a725c3012b74bf33a1020a98cb69c237","87.124.141.135","Mozilla/5.0 (Macintosh; Intel Mac OS X 10_15_7) AppleWebKit/537.36 (KHTML, like Gecko) Chrome/118.0.0.0 Safari/537.36","Macintosh","Chrome","118.0.0.0","OS X","10_15_7","null","es-419,es;q=0.9,en;q=0.8","true","322","tones/880hz_short.mp3","s","","","empty_block","","cuarenta y siete","","","","2","20",""
"","","","","","html-keyboard-response","133","262236","0.0-149.0-1.0","7","1","2023-10-27 15:06:53","a725c3012b74bf33a1020a98cb69c237","87.124.141.135","Mozilla/5.0 (Macintosh; Intel Mac OS X 10_15_7) AppleWebKit/537.36 (KHTML, like Gecko) Chrome/118.0.0.0 Safari/537.36","Macintosh","Chrome","118.0.0.0","OS X","10_15_7","null","es-419,es;q=0.9,en;q=0.8","true","362","tones/880hz_short.mp3","k","","","empty_block","","cuarenta y siete","","","","2","20",""
"","","","","","html-keyboard-response","134","264937","0.0-151.0","7","1","2023-10-27 15:06:53","a725c3012b74bf33a1020a98cb69c237","87.124.141.135","Mozilla/5.0 (Macintosh; Intel Mac OS X 10_15_7) AppleWebKit/537.36 (KHTML, like Gecko) Chrome/118.0.0.0 Safari/537.36","Macintosh","Chrome","118.0.0.0","OS X","10_15_7","null","es-419,es;q=0.9,en;q=0.8","true","null","<div style=""font-size:100px;"">X</div>","null","","","fixation","","","","","","","",""
"","","","","","audio-keyboard-response","135","265202","0.0-152.0","7","1","2023-10-27 15:06:53","a725c3012b74bf33a1020a98cb69c237","87.124.141.135","Mozilla/5.0 (Macintosh; Intel Mac OS X 10_15_7) AppleWebKit/537.36 (KHTML, like Gecko) Chrome/118.0.0.0 Safari/537.36","Macintosh","Chrome","118.0.0.0","OS X","10_15_7","null","es-419,es;q=0.9,en;q=0.8","true","null","tones/440hz_short.mp3","null","","","tone_number_task","102.5","cuarenta y seis","tones/440hz_short.mp3","252.5","60","2","21",""
"","","","","","html-keyboard-response","136","265504","0.0-155.0-0.0","7","1","2023-10-27 15:06:53","a725c3012b74bf33a1020a98cb69c237","87.124.141.135","Mozilla/5.0 (Macintosh; Intel Mac OS X 10_15_7) AppleWebKit/537.36 (KHTML, like Gecko) Chrome/118.0.0.0 Safari/537.36","Macintosh","Chrome","118.0.0.0","OS X","10_15_7","null","es-419,es;q=0.9,en;q=0.8","true","291","tones/440hz_short.mp3","a","","","empty_block","","cuarenta y seis","","","","2","21",""
"","","","","","html-keyboard-response","137","265971","0.0-155.0-1.0","7","1","2023-10-27 15:06:53","a725c3012b74bf33a1020a98cb69c237","87.124.141.135","Mozilla/5.0 (Macintosh; Intel Mac OS X 10_15_7) AppleWebKit/537.36 (KHTML, like Gecko) Chrome/118.0.0.0 Safari/537.36","Macintosh","Chrome","118.0.0.0","OS X","10_15_7","null","es-419,es;q=0.9,en;q=0.8","true","456","tones/440hz_short.mp3","k","","","empty_block","","cuarenta y seis","","","","2","21",""
"","","","","","html-keyboard-response","138","268675","0.0-157.0","7","1","2023-10-27 15:06:53","a725c3012b74bf33a1020a98cb69c237","87.124.141.135","Mozilla/5.0 (Macintosh; Intel Mac OS X 10_15_7) AppleWebKit/537.36 (KHTML, like Gecko) Chrome/118.0.0.0 Safari/537.36","Macintosh","Chrome","118.0.0.0","OS X","10_15_7","null","es-419,es;q=0.9,en;q=0.8","true","null","<div style=""font-size:100px;"">X</div>","null","","","fixation","","","","","","","",""
"","","","","","audio-keyboard-response","139","268941","0.0-158.0","7","1","2023-10-27 15:06:53","a725c3012b74bf33a1020a98cb69c237","87.124.141.135","Mozilla/5.0 (Macintosh; Intel Mac OS X 10_15_7) AppleWebKit/537.36 (KHTML, like Gecko) Chrome/118.0.0.0 Safari/537.36","Macintosh","Chrome","118.0.0.0","OS X","10_15_7","null","es-419,es;q=0.9,en;q=0.8","true","null","tones/440hz_short.mp3","null","","","tone_number_task","102.5","cuarenta y siete","tones/440hz_short.mp3","252.5","60","2","22",""
"","","","","","html-keyboard-response","140","269356","0.0-161.0-0.0","7","1","2023-10-27 15:06:53","a725c3012b74bf33a1020a98cb69c237","87.124.141.135","Mozilla/5.0 (Macintosh; Intel Mac OS X 10_15_7) AppleWebKit/537.36 (KHTML, like Gecko) Chrome/118.0.0.0 Safari/537.36","Macintosh","Chrome","118.0.0.0","OS X","10_15_7","null","es-419,es;q=0.9,en;q=0.8","true","404","tones/440hz_short.mp3","a","","","empty_block","","cuarenta y siete","","","","2","22",""
"","","","","","html-keyboard-response","141","269747","0.0-161.0-1.0","7","1","2023-10-27 15:06:53","a725c3012b74bf33a1020a98cb69c237","87.124.141.135","Mozilla/5.0 (Macintosh; Intel Mac OS X 10_15_7) AppleWebKit/537.36 (KHTML, like Gecko) Chrome/118.0.0.0 Safari/537.36","Macintosh","Chrome","118.0.0.0","OS X","10_15_7","null","es-419,es;q=0.9,en;q=0.8","true","380","tones/440hz_short.mp3","k","","","empty_block","","cuarenta y siete","","","","2","22",""
"","","","","","html-keyboard-response","142","272448","0.0-163.0","7","1","2023-10-27 15:06:53","a725c3012b74bf33a1020a98cb69c237","87.124.141.135","Mozilla/5.0 (Macintosh; Intel Mac OS X 10_15_7) AppleWebKit/537.36 (KHTML, like Gecko) Chrome/118.0.0.0 Safari/537.36","Macintosh","Chrome","118.0.0.0","OS X","10_15_7","null","es-419,es;q=0.9,en;q=0.8","true","null","<div style=""font-size:100px;"">X</div>","null","","","fixation","","","","","","","",""
"","","","","","audio-keyboard-response","143","272918","0.0-164.0","7","1","2023-10-27 15:06:53","a725c3012b74bf33a1020a98cb69c237","87.124.141.135","Mozilla/5.0 (Macintosh; Intel Mac OS X 10_15_7) AppleWebKit/537.36 (KHTML, like Gecko) Chrome/118.0.0.0 Safari/537.36","Macintosh","Chrome","118.0.0.0","OS X","10_15_7","null","es-419,es;q=0.9,en;q=0.8","true","459","tones/880hz_short.mp3","s","","","tone_number_task","992.5","sesenta y tres","tones/880hz_short.mp3","1142.5","60","2","23",""
"","","","","","html-keyboard-response","144","273459","0.0-165.0-0.0","7","1","2023-10-27 15:06:53","a725c3012b74bf33a1020a98cb69c237","87.124.141.135","Mozilla/5.0 (Macintosh; Intel Mac OS X 10_15_7) AppleWebKit/537.36 (KHTML, like Gecko) Chrome/118.0.0.0 Safari/537.36","Macintosh","Chrome","118.0.0.0","OS X","10_15_7","null","es-419,es;q=0.9,en;q=0.8","true","null","","null","","","delay_block","","","","","","2","23",""
"","","","","","html-keyboard-response","145","273623","0.0-165.0-1.0","7","1","2023-10-27 15:06:53","a725c3012b74bf33a1020a98cb69c237","87.124.141.135","Mozilla/5.0 (Macintosh; Intel Mac OS X 10_15_7) AppleWebKit/537.36 (KHTML, like Gecko) Chrome/118.0.0.0 Safari/537.36","Macintosh","Chrome","118.0.0.0","OS X","10_15_7","null","es-419,es;q=0.9,en;q=0.8","true","null","<p id=""stimulus"" style=""font-size:60px;"">sesenta y tres</p>","null","","","tone_number_task_remaining_before_delay","","sesenta y tres","","683.5","60","2","23",""
"","","","","","html-keyboard-response","146","274021","0.0-168.0-0.0","7","1","2023-10-27 15:06:53","a725c3012b74bf33a1020a98cb69c237","87.124.141.135","Mozilla/5.0 (Macintosh; Intel Mac OS X 10_15_7) AppleWebKit/537.36 (KHTML, like Gecko) Chrome/118.0.0.0 Safari/537.36","Macintosh","Chrome","118.0.0.0","OS X","10_15_7","null","es-419,es;q=0.9,en;q=0.8","true","387","<p id=""stimulus"" style=""font-size:60px;"">sesenta y tres</p>","k","","","empty_block","","sesenta y tres","","","","2","23",""
"","","","","","html-keyboard-response","147","276726","0.0-169.0","7","1","2023-10-27 15:06:53","a725c3012b74bf33a1020a98cb69c237","87.124.141.135","Mozilla/5.0 (Macintosh; Intel Mac OS X 10_15_7) AppleWebKit/537.36 (KHTML, like Gecko) Chrome/118.0.0.0 Safari/537.36","Macintosh","Chrome","118.0.0.0","OS X","10_15_7","null","es-419,es;q=0.9,en;q=0.8","true","null","<div style=""font-size:100px;"">X</div>","null","","","fixation","","","","","","","",""
"","","","","","audio-keyboard-response","148","277207","0.0-170.0","7","1","2023-10-27 15:06:53","a725c3012b74bf33a1020a98cb69c237","87.124.141.135","Mozilla/5.0 (Macintosh; Intel Mac OS X 10_15_7) AppleWebKit/537.36 (KHTML, like Gecko) Chrome/118.0.0.0 Safari/537.36","Macintosh","Chrome","118.0.0.0","OS X","10_15_7","null","es-419,es;q=0.9,en;q=0.8","true","469","tones/880hz_short.mp3","s","","","tone_number_task","1025","sesenta y siete","tones/880hz_short.mp3","1175","60","2","24",""
"","","","","","html-keyboard-response","149","277776","0.0-171.0-0.0","7","1","2023-10-27 15:06:53","a725c3012b74bf33a1020a98cb69c237","87.124.141.135","Mozilla/5.0 (Macintosh; Intel Mac OS X 10_15_7) AppleWebKit/537.36 (KHTML, like Gecko) Chrome/118.0.0.0 Safari/537.36","Macintosh","Chrome","118.0.0.0","OS X","10_15_7","null","es-419,es;q=0.9,en;q=0.8","true","null","","null","","","delay_block","","","","","","2","24",""
"","","","","","html-keyboard-response","150","277942","0.0-171.0-1.0","7","1","2023-10-27 15:06:53","a725c3012b74bf33a1020a98cb69c237","87.124.141.135","Mozilla/5.0 (Macintosh; Intel Mac OS X 10_15_7) AppleWebKit/537.36 (KHTML, like Gecko) Chrome/118.0.0.0 Safari/537.36","Macintosh","Chrome","118.0.0.0","OS X","10_15_7","null","es-419,es;q=0.9,en;q=0.8","true","null","<p id=""stimulus"" style=""font-size:60px;"">sesenta y siete</p>","null","","","tone_number_task_remaining_before_delay","","sesenta y siete","","706","60","2","24",""
"","","","","","html-keyboard-response","151","278280","0.0-174.0-0.0","7","1","2023-10-27 15:06:53","a725c3012b74bf33a1020a98cb69c237","87.124.141.135","Mozilla/5.0 (Macintosh; Intel Mac OS X 10_15_7) AppleWebKit/537.36 (KHTML, like Gecko) Chrome/118.0.0.0 Safari/537.36","Macintosh","Chrome","118.0.0.0","OS X","10_15_7","null","es-419,es;q=0.9,en;q=0.8","true","326","<p id=""stimulus"" style=""font-size:60px;"">sesenta y siete</p>","k","","","empty_block","","sesenta y siete","","","","2","24",""
"","","","","","html-keyboard-response","152","280985","0.0-175.0","7","1","2023-10-27 15:06:53","a725c3012b74bf33a1020a98cb69c237","87.124.141.135","Mozilla/5.0 (Macintosh; Intel Mac OS X 10_15_7) AppleWebKit/537.36 (KHTML, like Gecko) Chrome/118.0.0.0 Safari/537.36","Macintosh","Chrome","118.0.0.0","OS X","10_15_7","null","es-419,es;q=0.9,en;q=0.8","true","null","<div style=""font-size:100px;"">X</div>","null","","","fixation","","","","","","","",""
"","","","","","audio-keyboard-response","153","281252","0.0-176.0","7","1","2023-10-27 15:06:53","a725c3012b74bf33a1020a98cb69c237","87.124.141.135","Mozilla/5.0 (Macintosh; Intel Mac OS X 10_15_7) AppleWebKit/537.36 (KHTML, like Gecko) Chrome/118.0.0.0 Safari/537.36","Macintosh","Chrome","118.0.0.0","OS X","10_15_7","null","es-419,es;q=0.9,en;q=0.8","true","null","tones/880hz_short.mp3","null","","","tone_number_task","102.5","cuarenta y siete","tones/880hz_short.mp3","252.5","60","2","25",""
"","","","","","html-keyboard-response","154","281752","0.0-179.0-0.0","7","1","2023-10-27 15:06:53","a725c3012b74bf33a1020a98cb69c237","87.124.141.135","Mozilla/5.0 (Macintosh; Intel Mac OS X 10_15_7) AppleWebKit/537.36 (KHTML, like Gecko) Chrome/118.0.0.0 Safari/537.36","Macintosh","Chrome","118.0.0.0","OS X","10_15_7","null","es-419,es;q=0.9,en;q=0.8","true","489","tones/880hz_short.mp3","s","","","empty_block","","cuarenta y siete","","","","2","25",""
"","","","","","html-keyboard-response","155","282100","0.0-179.0-1.0","7","1","2023-10-27 15:06:53","a725c3012b74bf33a1020a98cb69c237","87.124.141.135","Mozilla/5.0 (Macintosh; Intel Mac OS X 10_15_7) AppleWebKit/537.36 (KHTML, like Gecko) Chrome/118.0.0.0 Safari/537.36","Macintosh","Chrome","118.0.0.0","OS X","10_15_7","null","es-419,es;q=0.9,en;q=0.8","true","337","tones/880hz_short.mp3","k","","","empty_block","","cuarenta y siete","","","","2","25",""
"","","","","","html-keyboard-response","156","284803","0.0-181.0","7","1","2023-10-27 15:06:53","a725c3012b74bf33a1020a98cb69c237","87.124.141.135","Mozilla/5.0 (Macintosh; Intel Mac OS X 10_15_7) AppleWebKit/537.36 (KHTML, like Gecko) Chrome/118.0.0.0 Safari/537.36","Macintosh","Chrome","118.0.0.0","OS X","10_15_7","null","es-419,es;q=0.9,en;q=0.8","true","null","<div style=""font-size:100px;"">X</div>","null","","","fixation","","","","","","","",""
"","","","","","audio-keyboard-response","157","285279","0.0-182.0","7","1","2023-10-27 15:06:53","a725c3012b74bf33a1020a98cb69c237","87.124.141.135","Mozilla/5.0 (Macintosh; Intel Mac OS X 10_15_7) AppleWebKit/537.36 (KHTML, like Gecko) Chrome/118.0.0.0 Safari/537.36","Macintosh","Chrome","118.0.0.0","OS X","10_15_7","null","es-419,es;q=0.9,en;q=0.8","true","464","tones/880hz_short.mp3","s","","","tone_number_task","1025","veintiseis","tones/880hz_short.mp3","1175","60","2","26",""
"","","","","","html-keyboard-response","158","285853","0.0-183.0-0.0","7","1","2023-10-27 15:06:53","a725c3012b74bf33a1020a98cb69c237","87.124.141.135","Mozilla/5.0 (Macintosh; Intel Mac OS X 10_15_7) AppleWebKit/537.36 (KHTML, like Gecko) Chrome/118.0.0.0 Safari/537.36","Macintosh","Chrome","118.0.0.0","OS X","10_15_7","null","es-419,es;q=0.9,en;q=0.8","true","null","","null","","","delay_block","","","","","","2","26",""
"","","","","","html-keyboard-response","159","286017","0.0-183.0-1.0","7","1","2023-10-27 15:06:53","a725c3012b74bf33a1020a98cb69c237","87.124.141.135","Mozilla/5.0 (Macintosh; Intel Mac OS X 10_15_7) AppleWebKit/537.36 (KHTML, like Gecko) Chrome/118.0.0.0 Safari/537.36","Macintosh","Chrome","118.0.0.0","OS X","10_15_7","null","es-419,es;q=0.9,en;q=0.8","true","143","<p id=""stimulus"" style=""font-size:60px;"">veintiseis</p>","k","","","tone_number_task_remaining_before_delay","","veintiseis","","711","60","2","26",""
"","","","","","html-keyboard-response","160","288721","0.0-187.0","7","1","2023-10-27 15:06:53","a725c3012b74bf33a1020a98cb69c237","87.124.141.135","Mozilla/5.0 (Macintosh; Intel Mac OS X 10_15_7) AppleWebKit/537.36 (KHTML, like Gecko) Chrome/118.0.0.0 Safari/537.36","Macintosh","Chrome","118.0.0.0","OS X","10_15_7","null","es-419,es;q=0.9,en;q=0.8","true","null","<div style=""font-size:100px;"">X</div>","null","","","fixation","","","","","","","",""
"","","","","","audio-keyboard-response","161","288988","0.0-188.0","7","1","2023-10-27 15:06:53","a725c3012b74bf33a1020a98cb69c237","87.124.141.135","Mozilla/5.0 (Macintosh; Intel Mac OS X 10_15_7) AppleWebKit/537.36 (KHTML, like Gecko) Chrome/118.0.0.0 Safari/537.36","Macintosh","Chrome","118.0.0.0","OS X","10_15_7","null","es-419,es;q=0.9,en;q=0.8","true","null","tones/440hz_short.mp3","null","","","tone_number_task","102.5","cincuenta y siete","tones/440hz_short.mp3","252.5","60","2","27",""
"","","","","","html-keyboard-response","162","289402","0.0-191.0-0.0","7","1","2023-10-27 15:06:53","a725c3012b74bf33a1020a98cb69c237","87.124.141.135","Mozilla/5.0 (Macintosh; Intel Mac OS X 10_15_7) AppleWebKit/537.36 (KHTML, like Gecko) Chrome/118.0.0.0 Safari/537.36","Macintosh","Chrome","118.0.0.0","OS X","10_15_7","null","es-419,es;q=0.9,en;q=0.8","true","402","tones/440hz_short.mp3","a","","","empty_block","","cincuenta y siete","","","","2","27",""
"","","","","","html-keyboard-response","163","289959","0.0-191.0-1.0","7","1","2023-10-27 15:06:53","a725c3012b74bf33a1020a98cb69c237","87.124.141.135","Mozilla/5.0 (Macintosh; Intel Mac OS X 10_15_7) AppleWebKit/537.36 (KHTML, like Gecko) Chrome/118.0.0.0 Safari/537.36","Macintosh","Chrome","118.0.0.0","OS X","10_15_7","null","es-419,es;q=0.9,en;q=0.8","true","548","tones/440hz_short.mp3","k","","","empty_block","","cincuenta y siete","","","","2","27",""
"","","","","","html-keyboard-response","164","292664","0.0-193.0","7","1","2023-10-27 15:06:53","a725c3012b74bf33a1020a98cb69c237","87.124.141.135","Mozilla/5.0 (Macintosh; Intel Mac OS X 10_15_7) AppleWebKit/537.36 (KHTML, like Gecko) Chrome/118.0.0.0 Safari/537.36","Macintosh","Chrome","118.0.0.0","OS X","10_15_7","null","es-419,es;q=0.9,en;q=0.8","true","null","<div style=""font-size:100px;"">X</div>","null","","","fixation","","","","","","","",""
"","","","","","audio-keyboard-response","165","292934","0.0-194.0","7","1","2023-10-27 15:06:53","a725c3012b74bf33a1020a98cb69c237","87.124.141.135","Mozilla/5.0 (Macintosh; Intel Mac OS X 10_15_7) AppleWebKit/537.36 (KHTML, like Gecko) Chrome/118.0.0.0 Safari/537.36","Macintosh","Chrome","118.0.0.0","OS X","10_15_7","null","es-419,es;q=0.9,en;q=0.8","true","null","tones/880hz_short.mp3","null","","","tone_number_task","102.5","cincuenta y seis","tones/880hz_short.mp3","252.5","60","2","28",""
"","","","","","html-keyboard-response","166","293683","0.0-197.0-0.0","7","1","2023-10-27 15:06:53","a725c3012b74bf33a1020a98cb69c237","87.124.141.135","Mozilla/5.0 (Macintosh; Intel Mac OS X 10_15_7) AppleWebKit/537.36 (KHTML, like Gecko) Chrome/118.0.0.0 Safari/537.36","Macintosh","Chrome","118.0.0.0","OS X","10_15_7","null","es-419,es;q=0.9,en;q=0.8","true","735","tones/880hz_short.mp3","s","","","empty_block","","cincuenta y seis","","","","2","28",""
"","","","","","html-keyboard-response","167","294230","0.0-197.0-1.0","7","1","2023-10-27 15:06:53","a725c3012b74bf33a1020a98cb69c237","87.124.141.135","Mozilla/5.0 (Macintosh; Intel Mac OS X 10_15_7) AppleWebKit/537.36 (KHTML, like Gecko) Chrome/118.0.0.0 Safari/537.36","Macintosh","Chrome","118.0.0.0","OS X","10_15_7","null","es-419,es;q=0.9,en;q=0.8","true","536","tones/880hz_short.mp3","k","","","empty_block","","cincuenta y seis","","","","2","28",""
"","","","","","html-keyboard-response","168","296931","0.0-199.0","7","1","2023-10-27 15:06:53","a725c3012b74bf33a1020a98cb69c237","87.124.141.135","Mozilla/5.0 (Macintosh; Intel Mac OS X 10_15_7) AppleWebKit/537.36 (KHTML, like Gecko) Chrome/118.0.0.0 Safari/537.36","Macintosh","Chrome","118.0.0.0","OS X","10_15_7","null","es-419,es;q=0.9,en;q=0.8","true","null","<div style=""font-size:100px;"">X</div>","null","","","fixation","","","","","","","",""
"","","","","","audio-keyboard-response","169","297097","0.0-200.0","7","1","2023-10-27 15:06:53","a725c3012b74bf33a1020a98cb69c237","87.124.141.135","Mozilla/5.0 (Macintosh; Intel Mac OS X 10_15_7) AppleWebKit/537.36 (KHTML, like Gecko) Chrome/118.0.0.0 Safari/537.36","Macintosh","Chrome","118.0.0.0","OS X","10_15_7","null","es-419,es;q=0.9,en;q=0.8","true","null","tones/440hz_short.mp3","null","","","tone_number_task","0","treinta y uno","tones/440hz_short.mp3","150","60","2","29",""
"","","","","","html-keyboard-response","170","297884","0.0-203.0-0.0","7","1","2023-10-27 15:06:53","a725c3012b74bf33a1020a98cb69c237","87.124.141.135","Mozilla/5.0 (Macintosh; Intel Mac OS X 10_15_7) AppleWebKit/537.36 (KHTML, like Gecko) Chrome/118.0.0.0 Safari/537.36","Macintosh","Chrome","118.0.0.0","OS X","10_15_7","null","es-419,es;q=0.9,en;q=0.8","true","776","tones/440hz_short.mp3","a","","","empty_block","","treinta y uno","","","","2","29",""
"","","","","","html-keyboard-response","171","298267","0.0-203.0-1.0","7","1","2023-10-27 15:06:53","a725c3012b74bf33a1020a98cb69c237","87.124.141.135","Mozilla/5.0 (Macintosh; Intel Mac OS X 10_15_7) AppleWebKit/537.36 (KHTML, like Gecko) Chrome/118.0.0.0 Safari/537.36","Macintosh","Chrome","118.0.0.0","OS X","10_15_7","null","es-419,es;q=0.9,en;q=0.8","true","373","tones/440hz_short.mp3","j","","","empty_block","","treinta y uno","","","","2","29",""
"","","","","","html-keyboard-response","172","300971","0.0-205.0","7","1","2023-10-27 15:06:53","a725c3012b74bf33a1020a98cb69c237","87.124.141.135","Mozilla/5.0 (Macintosh; Intel Mac OS X 10_15_7) AppleWebKit/537.36 (KHTML, like Gecko) Chrome/118.0.0.0 Safari/537.36","Macintosh","Chrome","118.0.0.0","OS X","10_15_7","null","es-419,es;q=0.9,en;q=0.8","true","null","<div style=""font-size:100px;"">X</div>","null","","","fixation","","","","","","","",""
"","","","","","audio-keyboard-response","173","301432","0.0-206.0","7","1","2023-10-27 15:06:53","a725c3012b74bf33a1020a98cb69c237","87.124.141.135","Mozilla/5.0 (Macintosh; Intel Mac OS X 10_15_7) AppleWebKit/537.36 (KHTML, like Gecko) Chrome/118.0.0.0 Safari/537.36","Macintosh","Chrome","118.0.0.0","OS X","10_15_7","null","es-419,es;q=0.9,en;q=0.8","true","453","tones/440hz_short.mp3","a","","","tone_number_task","992.5","cincuenta y cinco","tones/440hz_short.mp3","1142.5","60","2","30",""
"","","","","","html-keyboard-response","174","301984","0.0-207.0-0.0","7","1","2023-10-27 15:06:53","a725c3012b74bf33a1020a98cb69c237","87.124.141.135","Mozilla/5.0 (Macintosh; Intel Mac OS X 10_15_7) AppleWebKit/537.36 (KHTML, like Gecko) Chrome/118.0.0.0 Safari/537.36","Macintosh","Chrome","118.0.0.0","OS X","10_15_7","null","es-419,es;q=0.9,en;q=0.8","true","null","","null","","","delay_block","","","","","","2","30",""
"","","","","","html-keyboard-response","175","302151","0.0-207.0-1.0","7","1","2023-10-27 15:06:53","a725c3012b74bf33a1020a98cb69c237","87.124.141.135","Mozilla/5.0 (Macintosh; Intel Mac OS X 10_15_7) AppleWebKit/537.36 (KHTML, like Gecko) Chrome/118.0.0.0 Safari/537.36","Macintosh","Chrome","118.0.0.0","OS X","10_15_7","null","es-419,es;q=0.9,en;q=0.8","true","null","<p id=""stimulus"" style=""font-size:60px;"">cincuenta y cinco</p>","null","","","tone_number_task_remaining_before_delay","","cincuenta y cinco","","689.5","60","2","30",""
"","","","","","html-keyboard-response","176","302655","0.0-210.0-0.0","7","1","2023-10-27 15:06:53","a725c3012b74bf33a1020a98cb69c237","87.124.141.135","Mozilla/5.0 (Macintosh; Intel Mac OS X 10_15_7) AppleWebKit/537.36 (KHTML, like Gecko) Chrome/118.0.0.0 Safari/537.36","Macintosh","Chrome","118.0.0.0","OS X","10_15_7","null","es-419,es;q=0.9,en;q=0.8","true","491","<p id=""stimulus"" style=""font-size:60px;"">cincuenta y cinco</p>","k","","","empty_block","","cincuenta y cinco","","","","2","30",""
"","","","","","html-keyboard-response","177","305360","0.0-211.0","7","1","2023-10-27 15:06:53","a725c3012b74bf33a1020a98cb69c237","87.124.141.135","Mozilla/5.0 (Macintosh; Intel Mac OS X 10_15_7) AppleWebKit/537.36 (KHTML, like Gecko) Chrome/118.0.0.0 Safari/537.36","Macintosh","Chrome","118.0.0.0","OS X","10_15_7","null","es-419,es;q=0.9,en;q=0.8","true","null","<div style=""font-size:100px;"">X</div>","null","","","fixation","","","","","","","",""
"","","","","","audio-keyboard-response","178","305922","0.0-212.0","7","1","2023-10-27 15:06:53","a725c3012b74bf33a1020a98cb69c237","87.124.141.135","Mozilla/5.0 (Macintosh; Intel Mac OS X 10_15_7) AppleWebKit/537.36 (KHTML, like Gecko) Chrome/118.0.0.0 Safari/537.36","Macintosh","Chrome","118.0.0.0","OS X","10_15_7","null","es-419,es;q=0.9,en;q=0.8","true","555","tones/880hz_short.mp3","s","","","tone_number_task","992.5","cincuenta y dos","tones/880hz_short.mp3","1142.5","60","2","31",""
"","","","","","html-keyboard-response","179","306374","0.0-213.0-0.0","7","1","2023-10-27 15:06:53","a725c3012b74bf33a1020a98cb69c237","87.124.141.135","Mozilla/5.0 (Macintosh; Intel Mac OS X 10_15_7) AppleWebKit/537.36 (KHTML, like Gecko) Chrome/118.0.0.0 Safari/537.36","Macintosh","Chrome","118.0.0.0","OS X","10_15_7","null","es-419,es;q=0.9,en;q=0.8","true","null","","null","","","delay_block","","","","","","2","31",""
"","","","","","html-keyboard-response","180","306542","0.0-213.0-1.0","7","1","2023-10-27 15:06:53","a725c3012b74bf33a1020a98cb69c237","87.124.141.135","Mozilla/5.0 (Macintosh; Intel Mac OS X 10_15_7) AppleWebKit/537.36 (KHTML, like Gecko) Chrome/118.0.0.0 Safari/537.36","Macintosh","Chrome","118.0.0.0","OS X","10_15_7","null","es-419,es;q=0.9,en;q=0.8","true","null","<p id=""stimulus"" style=""font-size:60px;"">cincuenta y dos</p>","null","","","tone_number_task_remaining_before_delay","","cincuenta y dos","","587.5","60","2","31",""
"","","","","","html-keyboard-response","181","306930","0.0-216.0-0.0","7","1","2023-10-27 15:06:53","a725c3012b74bf33a1020a98cb69c237","87.124.141.135","Mozilla/5.0 (Macintosh; Intel Mac OS X 10_15_7) AppleWebKit/537.36 (KHTML, like Gecko) Chrome/118.0.0.0 Safari/537.36","Macintosh","Chrome","118.0.0.0","OS X","10_15_7","null","es-419,es;q=0.9,en;q=0.8","true","375","<p id=""stimulus"" style=""font-size:60px;"">cincuenta y dos</p>","k","","","empty_block","","cincuenta y dos","","","","2","31",""
"","","","","","html-keyboard-response","182","309636","0.0-217.0","7","1","2023-10-27 15:06:53","a725c3012b74bf33a1020a98cb69c237","87.124.141.135","Mozilla/5.0 (Macintosh; Intel Mac OS X 10_15_7) AppleWebKit/537.36 (KHTML, like Gecko) Chrome/118.0.0.0 Safari/537.36","Macintosh","Chrome","118.0.0.0","OS X","10_15_7","null","es-419,es;q=0.9,en;q=0.8","true","null","<div style=""font-size:100px;"">X</div>","null","","","fixation","","","","","","","",""
"","","","","","audio-keyboard-response","183","309804","0.0-218.0","7","1","2023-10-27 15:06:53","a725c3012b74bf33a1020a98cb69c237","87.124.141.135","Mozilla/5.0 (Macintosh; Intel Mac OS X 10_15_7) AppleWebKit/537.36 (KHTML, like Gecko) Chrome/118.0.0.0 Safari/537.36","Macintosh","Chrome","118.0.0.0","OS X","10_15_7","null","es-419,es;q=0.9,en;q=0.8","true","null","tones/880hz_short.mp3","null","","","tone_number_task","0","veintiseis","tones/880hz_short.mp3","150","60","2","32",""
"","","","","","html-keyboard-response","184","310792","0.0-221.0-0.0","7","1","2023-10-27 15:06:53","a725c3012b74bf33a1020a98cb69c237","87.124.141.135","Mozilla/5.0 (Macintosh; Intel Mac OS X 10_15_7) AppleWebKit/537.36 (KHTML, like Gecko) Chrome/118.0.0.0 Safari/537.36","Macintosh","Chrome","118.0.0.0","OS X","10_15_7","null","es-419,es;q=0.9,en;q=0.8","true","973","tones/880hz_short.mp3","s","","","empty_block","","veintiseis","","","","2","32",""
"","","","","","html-keyboard-response","185","311127","0.0-221.0-1.0","7","1","2023-10-27 15:06:53","a725c3012b74bf33a1020a98cb69c237","87.124.141.135","Mozilla/5.0 (Macintosh; Intel Mac OS X 10_15_7) AppleWebKit/537.36 (KHTML, like Gecko) Chrome/118.0.0.0 Safari/537.36","Macintosh","Chrome","118.0.0.0","OS X","10_15_7","null","es-419,es;q=0.9,en;q=0.8","true","327","tones/880hz_short.mp3","j","","","empty_block","","veintiseis","","","","2","32",""
"","","","","","html-keyboard-response","186","313834","0.0-223.0","7","1","2023-10-27 15:06:53","a725c3012b74bf33a1020a98cb69c237","87.124.141.135","Mozilla/5.0 (Macintosh; Intel Mac OS X 10_15_7) AppleWebKit/537.36 (KHTML, like Gecko) Chrome/118.0.0.0 Safari/537.36","Macintosh","Chrome","118.0.0.0","OS X","10_15_7","null","es-419,es;q=0.9,en;q=0.8","true","null","<div style=""font-size:100px;"">X</div>","null","","","fixation","","","","","","","",""
"","","","","","audio-keyboard-response","187","314361","0.0-224.0","7","1","2023-10-27 15:06:53","a725c3012b74bf33a1020a98cb69c237","87.124.141.135","Mozilla/5.0 (Macintosh; Intel Mac OS X 10_15_7) AppleWebKit/537.36 (KHTML, like Gecko) Chrome/118.0.0.0 Safari/537.36","Macintosh","Chrome","118.0.0.0","OS X","10_15_7","null","es-419,es;q=0.9,en;q=0.8","true","517","tones/880hz_short.mp3","s","","","tone_number_task","1025","treinta y cuatro","tones/880hz_short.mp3","1175","60","2","33",""
"","","","","","html-keyboard-response","188","314884","0.0-225.0-0.0","7","1","2023-10-27 15:06:53","a725c3012b74bf33a1020a98cb69c237","87.124.141.135","Mozilla/5.0 (Macintosh; Intel Mac OS X 10_15_7) AppleWebKit/537.36 (KHTML, like Gecko) Chrome/118.0.0.0 Safari/537.36","Macintosh","Chrome","118.0.0.0","OS X","10_15_7","null","es-419,es;q=0.9,en;q=0.8","true","null","","null","","","delay_block","","","","","","2","33",""
"","","","","","html-keyboard-response","189","315051","0.0-225.0-1.0","7","1","2023-10-27 15:06:53","a725c3012b74bf33a1020a98cb69c237","87.124.141.135","Mozilla/5.0 (Macintosh; Intel Mac OS X 10_15_7) AppleWebKit/537.36 (KHTML, like Gecko) Chrome/118.0.0.0 Safari/537.36","Macintosh","Chrome","118.0.0.0","OS X","10_15_7","null","es-419,es;q=0.9,en;q=0.8","true","null","<p id=""stimulus"" style=""font-size:60px;"">treinta y cuatro</p>","null","","","tone_number_task_remaining_before_delay","","treinta y cuatro","","658","60","2","33",""
"","","","","","html-keyboard-response","190","315484","0.0-228.0-0.0","7","1","2023-10-27 15:06:53","a725c3012b74bf33a1020a98cb69c237","87.124.141.135","Mozilla/5.0 (Macintosh; Intel Mac OS X 10_15_7) AppleWebKit/537.36 (KHTML, like Gecko) Chrome/118.0.0.0 Safari/537.36","Macintosh","Chrome","118.0.0.0","OS X","10_15_7","null","es-419,es;q=0.9,en;q=0.8","true","419","<p id=""stimulus"" style=""font-size:60px;"">treinta y cuatro</p>","j","","","empty_block","","treinta y cuatro","","","","2","33",""
"","","","","","html-keyboard-response","191","318190","0.0-229.0","7","1","2023-10-27 15:06:53","a725c3012b74bf33a1020a98cb69c237","87.124.141.135","Mozilla/5.0 (Macintosh; Intel Mac OS X 10_15_7) AppleWebKit/537.36 (KHTML, like Gecko) Chrome/118.0.0.0 Safari/537.36","Macintosh","Chrome","118.0.0.0","OS X","10_15_7","null","es-419,es;q=0.9,en;q=0.8","true","null","<div style=""font-size:100px;"">X</div>","null","","","fixation","","","","","","","",""
"","","","","","audio-keyboard-response","192","318457","0.0-230.0","7","1","2023-10-27 15:06:53","a725c3012b74bf33a1020a98cb69c237","87.124.141.135","Mozilla/5.0 (Macintosh; Intel Mac OS X 10_15_7) AppleWebKit/537.36 (KHTML, like Gecko) Chrome/118.0.0.0 Safari/537.36","Macintosh","Chrome","118.0.0.0","OS X","10_15_7","null","es-419,es;q=0.9,en;q=0.8","true","null","tones/440hz_short.mp3","null","","","tone_number_task","102.5","cuarenta y nueve","tones/440hz_short.mp3","252.5","60","2","34",""
"","","","","","html-keyboard-response","193","318993","0.0-233.0-0.0","7","1","2023-10-27 15:06:53","a725c3012b74bf33a1020a98cb69c237","87.124.141.135","Mozilla/5.0 (Macintosh; Intel Mac OS X 10_15_7) AppleWebKit/537.36 (KHTML, like Gecko) Chrome/118.0.0.0 Safari/537.36","Macintosh","Chrome","118.0.0.0","OS X","10_15_7","null","es-419,es;q=0.9,en;q=0.8","true","523","tones/440hz_short.mp3","a","","","empty_block","","cuarenta y nueve","","","","2","34",""
"","","","","","html-keyboard-response","194","319352","0.0-233.0-1.0","7","1","2023-10-27 15:06:53","a725c3012b74bf33a1020a98cb69c237","87.124.141.135","Mozilla/5.0 (Macintosh; Intel Mac OS X 10_15_7) AppleWebKit/537.36 (KHTML, like Gecko) Chrome/118.0.0.0 Safari/537.36","Macintosh","Chrome","118.0.0.0","OS X","10_15_7","null","es-419,es;q=0.9,en;q=0.8","true","349","tones/440hz_short.mp3","k","","","empty_block","","cuarenta y nueve","","","","2","34",""
"","","","","","html-keyboard-response","195","322058","0.0-235.0","7","1","2023-10-27 15:06:53","a725c3012b74bf33a1020a98cb69c237","87.124.141.135","Mozilla/5.0 (Macintosh; Intel Mac OS X 10_15_7) AppleWebKit/537.36 (KHTML, like Gecko) Chrome/118.0.0.0 Safari/537.36","Macintosh","Chrome","118.0.0.0","OS X","10_15_7","null","es-419,es;q=0.9,en;q=0.8","true","null","<div style=""font-size:100px;"">X</div>","null","","","fixation","","","","","","","",""
"","","","","","audio-keyboard-response","196","322575","0.0-236.0","7","1","2023-10-27 15:06:53","a725c3012b74bf33a1020a98cb69c237","87.124.141.135","Mozilla/5.0 (Macintosh; Intel Mac OS X 10_15_7) AppleWebKit/537.36 (KHTML, like Gecko) Chrome/118.0.0.0 Safari/537.36","Macintosh","Chrome","118.0.0.0","OS X","10_15_7","null","es-419,es;q=0.9,en;q=0.8","true","501","tones/880hz_short.mp3","s","","","tone_number_task","1025","cuarenta y dos","tones/880hz_short.mp3","1175","60","2","35",""
"","","","","","html-keyboard-response","197","323114","0.0-237.0-0.0","7","1","2023-10-27 15:06:53","a725c3012b74bf33a1020a98cb69c237","87.124.141.135","Mozilla/5.0 (Macintosh; Intel Mac OS X 10_15_7) AppleWebKit/537.36 (KHTML, like Gecko) Chrome/118.0.0.0 Safari/537.36","Macintosh","Chrome","118.0.0.0","OS X","10_15_7","null","es-419,es;q=0.9,en;q=0.8","true","null","","null","","","delay_block","","","","","","2","35",""
"","","","","","html-keyboard-response","198","323283","0.0-237.0-1.0","7","1","2023-10-27 15:06:53","a725c3012b74bf33a1020a98cb69c237","87.124.141.135","Mozilla/5.0 (Macintosh; Intel Mac OS X 10_15_7) AppleWebKit/537.36 (KHTML, like Gecko) Chrome/118.0.0.0 Safari/537.36","Macintosh","Chrome","118.0.0.0","OS X","10_15_7","null","es-419,es;q=0.9,en;q=0.8","true","null","<p id=""stimulus"" style=""font-size:60px;"">cuarenta y dos</p>","null","","","tone_number_task_remaining_before_delay","","cuarenta y dos","","674","60","2","35",""
"","","","","","html-keyboard-response","199","324058","0.0-240.0-0.0","7","1","2023-10-27 15:06:53","a725c3012b74bf33a1020a98cb69c237","87.124.141.135","Mozilla/5.0 (Macintosh; Intel Mac OS X 10_15_7) AppleWebKit/537.36 (KHTML, like Gecko) Chrome/118.0.0.0 Safari/537.36","Macintosh","Chrome","118.0.0.0","OS X","10_15_7","null","es-419,es;q=0.9,en;q=0.8","true","763","<p id=""stimulus"" style=""font-size:60px;"">cuarenta y dos</p>","j","","","empty_block","","cuarenta y dos","","","","2","35",""
"","","","","","html-keyboard-response","200","326764","0.0-241.0","7","1","2023-10-27 15:06:53","a725c3012b74bf33a1020a98cb69c237","87.124.141.135","Mozilla/5.0 (Macintosh; Intel Mac OS X 10_15_7) AppleWebKit/537.36 (KHTML, like Gecko) Chrome/118.0.0.0 Safari/537.36","Macintosh","Chrome","118.0.0.0","OS X","10_15_7","null","es-419,es;q=0.9,en;q=0.8","true","null","<div style=""font-size:100px;"">X</div>","null","","","fixation","","","","","","","",""
"","","","","","audio-keyboard-response","201","327566","0.0-242.0","7","1","2023-10-27 15:06:53","a725c3012b74bf33a1020a98cb69c237","87.124.141.135","Mozilla/5.0 (Macintosh; Intel Mac OS X 10_15_7) AppleWebKit/537.36 (KHTML, like Gecko) Chrome/118.0.0.0 Safari/537.36","Macintosh","Chrome","118.0.0.0","OS X","10_15_7","null","es-419,es;q=0.9,en;q=0.8","true","789","tones/440hz_short.mp3","a","","","tone_number_task","1025","veintitres","tones/440hz_short.mp3","1175","60","2","36",""
"","","","","","html-keyboard-response","202","327818","0.0-243.0-0.0","7","1","2023-10-27 15:06:53","a725c3012b74bf33a1020a98cb69c237","87.124.141.135","Mozilla/5.0 (Macintosh; Intel Mac OS X 10_15_7) AppleWebKit/537.36 (KHTML, like Gecko) Chrome/118.0.0.0 Safari/537.36","Macintosh","Chrome","118.0.0.0","OS X","10_15_7","null","es-419,es;q=0.9,en;q=0.8","true","null","","null","","","delay_block","","","","","","2","36",""
"","","","","","html-keyboard-response","203","327986","0.0-243.0-1.0","7","1","2023-10-27 15:06:53","a725c3012b74bf33a1020a98cb69c237","87.124.141.135","Mozilla/5.0 (Macintosh; Intel Mac OS X 10_15_7) AppleWebKit/537.36 (KHTML, like Gecko) Chrome/118.0.0.0 Safari/537.36","Macintosh","Chrome","118.0.0.0","OS X","10_15_7","null","es-419,es;q=0.9,en;q=0.8","true","null","<p id=""stimulus"" style=""font-size:60px;"">veintitres</p>","null","","","tone_number_task_remaining_before_delay","","veintitres","","386","60","2","36",""
"","","","","","html-keyboard-response","204","328424","0.0-246.0-0.0","7","1","2023-10-27 15:06:53","a725c3012b74bf33a1020a98cb69c237","87.124.141.135","Mozilla/5.0 (Macintosh; Intel Mac OS X 10_15_7) AppleWebKit/537.36 (KHTML, like Gecko) Chrome/118.0.0.0 Safari/537.36","Macintosh","Chrome","118.0.0.0","OS X","10_15_7","null","es-419,es;q=0.9,en;q=0.8","true","423","<p id=""stimulus"" style=""font-size:60px;"">veintitres</p>","j","","","empty_block","","veintitres","","","","2","36",""
"","","","","","html-keyboard-response","205","331133","0.0-247.0","7","1","2023-10-27 15:06:53","a725c3012b74bf33a1020a98cb69c237","87.124.141.135","Mozilla/5.0 (Macintosh; Intel Mac OS X 10_15_7) AppleWebKit/537.36 (KHTML, like Gecko) Chrome/118.0.0.0 Safari/537.36","Macintosh","Chrome","118.0.0.0","OS X","10_15_7","null","es-419,es;q=0.9,en;q=0.8","true","null","<div style=""font-size:100px;"">X</div>","null","","","fixation","","","","","","","",""
"","","","","","audio-keyboard-response","206","331400","0.0-248.0","7","1","2023-10-27 15:06:53","a725c3012b74bf33a1020a98cb69c237","87.124.141.135","Mozilla/5.0 (Macintosh; Intel Mac OS X 10_15_7) AppleWebKit/537.36 (KHTML, like Gecko) Chrome/118.0.0.0 Safari/537.36","Macintosh","Chrome","118.0.0.0","OS X","10_15_7","null","es-419,es;q=0.9,en;q=0.8","true","null","tones/440hz_short.mp3","null","","","tone_number_task","102.5","veintisiete","tones/440hz_short.mp3","252.5","60","2","37",""
"","","","","","html-keyboard-response","207","331866","0.0-251.0-0.0","7","1","2023-10-27 15:06:53","a725c3012b74bf33a1020a98cb69c237","87.124.141.135","Mozilla/5.0 (Macintosh; Intel Mac OS X 10_15_7) AppleWebKit/537.36 (KHTML, like Gecko) Chrome/118.0.0.0 Safari/537.36","Macintosh","Chrome","118.0.0.0","OS X","10_15_7","null","es-419,es;q=0.9,en;q=0.8","true","451","tones/440hz_short.mp3","a","","","empty_block","","veintisiete","","","","2","37",""
