"success","timeout","failed_images","failed_audio","failed_video","trial_type","trial_index","time_elapsed","internal_node_id","run_id","condition","recorded_at","source_code_version","ip","user_agent","device","browser","browser_version","platform","platform_version","referer","accept_language","check","rt","stimulus","response","question_order","url","task","delay","number","audioFile","trial_duration","font_size","block","round","value"
"true","false","[]","[]","[]","preload","0","599","0.0-0.0","26","1","2023-10-31 20:53:31","a725c3012b74bf33a1020a98cb69c237","186.13.97.175","Mozilla/5.0 (Windows NT 10.0; Win64; x64) AppleWebKit/537.36 (KHTML, like Gecko) Chrome/118.0.0.0 Safari/537.36","WebKit","Chrome","118.0.0.0","Windows","10.0","null","en-US,en;q=0.9,es-AR;q=0.8,es;q=0.7","true","","","","","","","","","","","","","",""
"true","","","","","fullscreen","1","5776","0.0-1.0","26","1","2023-10-31 20:53:31","a725c3012b74bf33a1020a98cb69c237","186.13.97.175","Mozilla/5.0 (Windows NT 10.0; Win64; x64) AppleWebKit/537.36 (KHTML, like Gecko) Chrome/118.0.0.0 Safari/537.36","WebKit","Chrome","118.0.0.0","Windows","10.0","null","en-US,en;q=0.9,es-AR;q=0.8,es;q=0.7","true","","","","","","","","","","","","","",""
"","","","","","html-button-response","2","8242","0.0-2.0","26","1","2023-10-31 20:53:31","a725c3012b74bf33a1020a98cb69c237","186.13.97.175","Mozilla/5.0 (Windows NT 10.0; Win64; x64) AppleWebKit/537.36 (KHTML, like Gecko) Chrome/118.0.0.0 Safari/537.36","WebKit","Chrome","118.0.0.0","Windows","10.0","null","en-US,en;q=0.9,es-AR;q=0.8,es;q=0.7","true","2465","<p style=""font-size:24px; color:red;"">Cosas importantes a tener en cuenta antes de comenzar el experimento:</p>","0","","","","","","","","","","",""
"","","","","","html-button-response","3","17682","0.0-3.0","26","1","2023-10-31 20:53:31","a725c3012b74bf33a1020a98cb69c237","186.13.97.175","Mozilla/5.0 (Windows NT 10.0; Win64; x64) AppleWebKit/537.36 (KHTML, like Gecko) Chrome/118.0.0.0 Safari/537.36","WebKit","Chrome","118.0.0.0","Windows","10.0","null","en-US,en;q=0.9,es-AR;q=0.8,es;q=0.7","true","9439","<p style=""font-size:24px;"">El experimento dura aproximadamente 15 minutos.</p><p style=""font-size:24px;"">Por favor, no cierres la ventana del navegador durante el experimento.</p><p style=""font-size:24px;"">Si se completa de forma parcial, no se guardará ningún resultado.</p>","0","","","","","","","","","","",""
"","","","","","html-button-response","4","22600","0.0-4.0","26","1","2023-10-31 20:53:31","a725c3012b74bf33a1020a98cb69c237","186.13.97.175","Mozilla/5.0 (Windows NT 10.0; Win64; x64) AppleWebKit/537.36 (KHTML, like Gecko) Chrome/118.0.0.0 Safari/537.36","WebKit","Chrome","118.0.0.0","Windows","10.0","null","en-US,en;q=0.9,es-AR;q=0.8,es;q=0.7","true","4917","<p style=""font-size:24px;"">El experimento contiene estímulos sonoros.</p>","0","","","","","","","","","","",""
"","","","","","audio-button-response","5","29352","0.0-5.0-0.0","26","1","2023-10-31 20:53:31","a725c3012b74bf33a1020a98cb69c237","186.13.97.175","Mozilla/5.0 (Windows NT 10.0; Win64; x64) AppleWebKit/537.36 (KHTML, like Gecko) Chrome/118.0.0.0 Safari/537.36","WebKit","Chrome","118.0.0.0","Windows","10.0","null","en-US,en;q=0.9,es-AR;q=0.8,es;q=0.7","true","6420","tones/440hz_short.mp3","0","","","","","","","","","","",""
"","","","","","audio-button-response","6","51037","0.0-5.1-0.1","26","1","2023-10-31 20:53:31","a725c3012b74bf33a1020a98cb69c237","186.13.97.175","Mozilla/5.0 (Windows NT 10.0; Win64; x64) AppleWebKit/537.36 (KHTML, like Gecko) Chrome/118.0.0.0 Safari/537.36","WebKit","Chrome","118.0.0.0","Windows","10.0","null","en-US,en;q=0.9,es-AR;q=0.8,es;q=0.7","true","21130","tones/440hz_short.mp3","0","","","","","","","","","","",""
"","","","","","audio-button-response","7","51817","0.0-5.2-0.2","26","1","2023-10-31 20:53:31","a725c3012b74bf33a1020a98cb69c237","186.13.97.175","Mozilla/5.0 (Windows NT 10.0; Win64; x64) AppleWebKit/537.36 (KHTML, like Gecko) Chrome/118.0.0.0 Safari/537.36","WebKit","Chrome","118.0.0.0","Windows","10.0","null","en-US,en;q=0.9,es-AR;q=0.8,es;q=0.7","true","781","tones/440hz_short.mp3","0","","","","","","","","","","",""
"","","","","","audio-button-response","8","53718","0.0-5.3-0.3","26","1","2023-10-31 20:53:31","a725c3012b74bf33a1020a98cb69c237","186.13.97.175","Mozilla/5.0 (Windows NT 10.0; Win64; x64) AppleWebKit/537.36 (KHTML, like Gecko) Chrome/118.0.0.0 Safari/537.36","WebKit","Chrome","118.0.0.0","Windows","10.0","null","en-US,en;q=0.9,es-AR;q=0.8,es;q=0.7","true","1898","tones/440hz_short.mp3","1","","","","","","","","","","",""
"","","","","","audio-button-response","9","55137","0.0-6.0-0.0","26","1","2023-10-31 20:53:31","a725c3012b74bf33a1020a98cb69c237","186.13.97.175","Mozilla/5.0 (Windows NT 10.0; Win64; x64) AppleWebKit/537.36 (KHTML, like Gecko) Chrome/118.0.0.0 Safari/537.36","WebKit","Chrome","118.0.0.0","Windows","10.0","null","en-US,en;q=0.9,es-AR;q=0.8,es;q=0.7","true","1419","tones/880hz_short.mp3","1","","","","","","","","","","",""
"","","","","","survey-html-form","10","58938","0.0-7.0","26","1","2023-10-31 20:53:31","a725c3012b74bf33a1020a98cb69c237","186.13.97.175","Mozilla/5.0 (Windows NT 10.0; Win64; x64) AppleWebKit/537.36 (KHTML, like Gecko) Chrome/118.0.0.0 Safari/537.36","WebKit","Chrome","118.0.0.0","Windows","10.0","null","en-US,en;q=0.9,es-AR;q=0.8,es;q=0.7","true","3796","","{""response"":""28""}","","","","","","","","","","",""
"","","","","","survey-multi-choice","11","64304","0.0-8.0","26","1","2023-10-31 20:53:31","a725c3012b74bf33a1020a98cb69c237","186.13.97.175","Mozilla/5.0 (Windows NT 10.0; Win64; x64) AppleWebKit/537.36 (KHTML, like Gecko) Chrome/118.0.0.0 Safari/537.36","WebKit","Chrome","118.0.0.0","Windows","10.0","null","en-US,en;q=0.9,es-AR;q=0.8,es;q=0.7","true","5363","","{""gender"":""Hombre"",""hand"":""Derecha""}","[0,1]","","","","","","","","","",""
"","","","","","external-html","12","146648","0.0-9.0","26","1","2023-10-31 20:53:31","a725c3012b74bf33a1020a98cb69c237","186.13.97.175","Mozilla/5.0 (Windows NT 10.0; Win64; x64) AppleWebKit/537.36 (KHTML, like Gecko) Chrome/118.0.0.0 Safari/537.36","WebKit","Chrome","118.0.0.0","Windows","10.0","null","en-US,en;q=0.9,es-AR;q=0.8,es;q=0.7","true","82004","","","","instructions/instructions.html","","","","","","","","",""
"","","","","","external-html","13","197527","0.0-10.0","26","1","2023-10-31 20:53:31","a725c3012b74bf33a1020a98cb69c237","186.13.97.175","Mozilla/5.0 (Windows NT 10.0; Win64; x64) AppleWebKit/537.36 (KHTML, like Gecko) Chrome/118.0.0.0 Safari/537.36","WebKit","Chrome","118.0.0.0","Windows","10.0","null","en-US,en;q=0.9,es-AR;q=0.8,es;q=0.7","true","50542","","","","instructions/animation.html","","","","","","","","",""
"","","","","","html-keyboard-response","14","200364","0.0-11.0-0.0","26","1","2023-10-31 20:53:31","a725c3012b74bf33a1020a98cb69c237","186.13.97.175","Mozilla/5.0 (Windows NT 10.0; Win64; x64) AppleWebKit/537.36 (KHTML, like Gecko) Chrome/118.0.0.0 Safari/537.36","WebKit","Chrome","118.0.0.0","Windows","10.0","null","en-US,en;q=0.9,es-AR;q=0.8,es;q=0.7","true","null","<div style=""font-size:100px;"">X</div>","null","","","fixation","","","","","","","",""
"","","","","","audio-keyboard-response","15","200967","0.0-11.0-1.0","26","1","2023-10-31 20:53:31","a725c3012b74bf33a1020a98cb69c237","186.13.97.175","Mozilla/5.0 (Windows NT 10.0; Win64; x64) AppleWebKit/537.36 (KHTML, like Gecko) Chrome/118.0.0.0 Safari/537.36","WebKit","Chrome","118.0.0.0","Windows","10.0","null","en-US,en;q=0.9,es-AR;q=0.8,es;q=0.7","true","520","tones/880hz_short.mp3","s","","","tone_number_task","1000","46","tones/880hz_short.mp3","1150","100","null","null",""
"","","","","","html-keyboard-response","16","201448","0.0-11.0-2.0-0.0","26","1","2023-10-31 20:53:31","a725c3012b74bf33a1020a98cb69c237","186.13.97.175","Mozilla/5.0 (Windows NT 10.0; Win64; x64) AppleWebKit/537.36 (KHTML, like Gecko) Chrome/118.0.0.0 Safari/537.36","WebKit","Chrome","118.0.0.0","Windows","10.0","null","en-US,en;q=0.9,es-AR;q=0.8,es;q=0.7","true","null","","null","","","delay_block","","","","","","null","null",""
"","","","","","html-keyboard-response","17","201601","0.0-11.0-2.0-1.0","26","1","2023-10-31 20:53:31","a725c3012b74bf33a1020a98cb69c237","186.13.97.175","Mozilla/5.0 (Windows NT 10.0; Win64; x64) AppleWebKit/537.36 (KHTML, like Gecko) Chrome/118.0.0.0 Safari/537.36","WebKit","Chrome","118.0.0.0","Windows","10.0","null","en-US,en;q=0.9,es-AR;q=0.8,es;q=0.7","true","null","<p id=""stimulus"" style=""font-size:100px;"">46</p>","null","","","tone_number_task_remaining_before_delay","","46","","630","100","null","null",""
"","","","","","html-keyboard-response","18","202183","0.0-11.0-5.0-0.0","26","1","2023-10-31 20:53:31","a725c3012b74bf33a1020a98cb69c237","186.13.97.175","Mozilla/5.0 (Windows NT 10.0; Win64; x64) AppleWebKit/537.36 (KHTML, like Gecko) Chrome/118.0.0.0 Safari/537.36","WebKit","Chrome","118.0.0.0","Windows","10.0","null","en-US,en;q=0.9,es-AR;q=0.8,es;q=0.7","true","581","<p id=""stimulus"" style=""font-size:100px;"">46</p>","k","","","empty_block","","46","","","","null","null",""
"","","","","","html-keyboard-response","19","205018","0.0-13.0-0.0","26","1","2023-10-31 20:53:31","a725c3012b74bf33a1020a98cb69c237","186.13.97.175","Mozilla/5.0 (Windows NT 10.0; Win64; x64) AppleWebKit/537.36 (KHTML, like Gecko) Chrome/118.0.0.0 Safari/537.36","WebKit","Chrome","118.0.0.0","Windows","10.0","null","en-US,en;q=0.9,es-AR;q=0.8,es;q=0.7","true","null","<div style=""font-size:100px;"">X</div>","null","","","fixation","","","","","","","",""
"","","","","","audio-keyboard-response","20","205468","0.0-13.0-1.0","26","1","2023-10-31 20:53:31","a725c3012b74bf33a1020a98cb69c237","186.13.97.175","Mozilla/5.0 (Windows NT 10.0; Win64; x64) AppleWebKit/537.36 (KHTML, like Gecko) Chrome/118.0.0.0 Safari/537.36","WebKit","Chrome","118.0.0.0","Windows","10.0","null","en-US,en;q=0.9,es-AR;q=0.8,es;q=0.7","true","450","tones/440hz_short.mp3","a","","","tone_number_task","500","41","tones/440hz_short.mp3","650","100","null","null",""
"","","","","","html-keyboard-response","21","205520","0.0-13.0-2.0-0.0","26","1","2023-10-31 20:53:31","a725c3012b74bf33a1020a98cb69c237","186.13.97.175","Mozilla/5.0 (Windows NT 10.0; Win64; x64) AppleWebKit/537.36 (KHTML, like Gecko) Chrome/118.0.0.0 Safari/537.36","WebKit","Chrome","118.0.0.0","Windows","10.0","null","en-US,en;q=0.9,es-AR;q=0.8,es;q=0.7","true","null","","null","","","delay_block","","","","","","null","null",""
"","","","","","html-keyboard-response","22","205673","0.0-13.0-2.0-1.0","26","1","2023-10-31 20:53:31","a725c3012b74bf33a1020a98cb69c237","186.13.97.175","Mozilla/5.0 (Windows NT 10.0; Win64; x64) AppleWebKit/537.36 (KHTML, like Gecko) Chrome/118.0.0.0 Safari/537.36","WebKit","Chrome","118.0.0.0","Windows","10.0","null","en-US,en;q=0.9,es-AR;q=0.8,es;q=0.7","true","null","<p id=""stimulus"" style=""font-size:100px;"">41</p>","null","","","tone_number_task_remaining_before_delay","","41","","200","100","null","null",""
"","","","","","html-keyboard-response","23","206127","0.0-13.0-5.0-0.0","26","1","2023-10-31 20:53:31","a725c3012b74bf33a1020a98cb69c237","186.13.97.175","Mozilla/5.0 (Windows NT 10.0; Win64; x64) AppleWebKit/537.36 (KHTML, like Gecko) Chrome/118.0.0.0 Safari/537.36","WebKit","Chrome","118.0.0.0","Windows","10.0","null","en-US,en;q=0.9,es-AR;q=0.8,es;q=0.7","true","452","<p id=""stimulus"" style=""font-size:100px;"">41</p>","j","","","empty_block","","41","","","","null","null",""
"","","","","","html-keyboard-response","24","208962","0.0-15.0-0.0","26","1","2023-10-31 20:53:31","a725c3012b74bf33a1020a98cb69c237","186.13.97.175","Mozilla/5.0 (Windows NT 10.0; Win64; x64) AppleWebKit/537.36 (KHTML, like Gecko) Chrome/118.0.0.0 Safari/537.36","WebKit","Chrome","118.0.0.0","Windows","10.0","null","en-US,en;q=0.9,es-AR;q=0.8,es;q=0.7","true","null","<div style=""font-size:100px;"">X</div>","null","","","fixation","","","","","","","",""
"","","","","","audio-keyboard-response","25","209264","0.0-15.0-1.0","26","1","2023-10-31 20:53:31","a725c3012b74bf33a1020a98cb69c237","186.13.97.175","Mozilla/5.0 (Windows NT 10.0; Win64; x64) AppleWebKit/537.36 (KHTML, like Gecko) Chrome/118.0.0.0 Safari/537.36","WebKit","Chrome","118.0.0.0","Windows","10.0","null","en-US,en;q=0.9,es-AR;q=0.8,es;q=0.7","true","null","tones/440hz_short.mp3","null","","","tone_number_task","150","32","tones/440hz_short.mp3","300","100","null","null",""
"","","","","","html-keyboard-response","26","210218","0.0-15.0-4.0-0.0","26","1","2023-10-31 20:53:31","a725c3012b74bf33a1020a98cb69c237","186.13.97.175","Mozilla/5.0 (Windows NT 10.0; Win64; x64) AppleWebKit/537.36 (KHTML, like Gecko) Chrome/118.0.0.0 Safari/537.36","WebKit","Chrome","118.0.0.0","Windows","10.0","null","en-US,en;q=0.9,es-AR;q=0.8,es;q=0.7","true","952","tones/440hz_short.mp3","a","","","empty_block","","32","","","","null","null",""
"","","","","","html-keyboard-response","27","210358","0.0-15.0-4.0-1.0","26","1","2023-10-31 20:53:31","a725c3012b74bf33a1020a98cb69c237","186.13.97.175","Mozilla/5.0 (Windows NT 10.0; Win64; x64) AppleWebKit/537.36 (KHTML, like Gecko) Chrome/118.0.0.0 Safari/537.36","WebKit","Chrome","118.0.0.0","Windows","10.0","null","en-US,en;q=0.9,es-AR;q=0.8,es;q=0.7","true","139","tones/440hz_short.mp3","j","","","empty_block","","32","","","","null","null",""
"","","","","","html-keyboard-response","28","213193","0.0-17.0-0.0","26","1","2023-10-31 20:53:31","a725c3012b74bf33a1020a98cb69c237","186.13.97.175","Mozilla/5.0 (Windows NT 10.0; Win64; x64) AppleWebKit/537.36 (KHTML, like Gecko) Chrome/118.0.0.0 Safari/537.36","WebKit","Chrome","118.0.0.0","Windows","10.0","null","en-US,en;q=0.9,es-AR;q=0.8,es;q=0.7","true","null","<div style=""font-size:100px;"">X</div>","null","","","fixation","","","","","","","",""
"","","","","","audio-keyboard-response","29","213395","0.0-17.0-1.0","26","1","2023-10-31 20:53:31","a725c3012b74bf33a1020a98cb69c237","186.13.97.175","Mozilla/5.0 (Windows NT 10.0; Win64; x64) AppleWebKit/537.36 (KHTML, like Gecko) Chrome/118.0.0.0 Safari/537.36","WebKit","Chrome","118.0.0.0","Windows","10.0","null","en-US,en;q=0.9,es-AR;q=0.8,es;q=0.7","true","null","tones/880hz_short.mp3","null","","","tone_number_task","50","38","tones/880hz_short.mp3","200","100","null","null",""
"","","","","","html-keyboard-response","30","214562","0.0-17.0-4.0-0.0","26","1","2023-10-31 20:53:31","a725c3012b74bf33a1020a98cb69c237","186.13.97.175","Mozilla/5.0 (Windows NT 10.0; Win64; x64) AppleWebKit/537.36 (KHTML, like Gecko) Chrome/118.0.0.0 Safari/537.36","WebKit","Chrome","118.0.0.0","Windows","10.0","null","en-US,en;q=0.9,es-AR;q=0.8,es;q=0.7","true","1165","tones/880hz_short.mp3","s","","","empty_block","","38","","","","null","null",""
"","","","","","html-keyboard-response","31","214726","0.0-17.0-4.0-1.0","26","1","2023-10-31 20:53:31","a725c3012b74bf33a1020a98cb69c237","186.13.97.175","Mozilla/5.0 (Windows NT 10.0; Win64; x64) AppleWebKit/537.36 (KHTML, like Gecko) Chrome/118.0.0.0 Safari/537.36","WebKit","Chrome","118.0.0.0","Windows","10.0","null","en-US,en;q=0.9,es-AR;q=0.8,es;q=0.7","true","163","tones/880hz_short.mp3","j","","","empty_block","","38","","","","null","null",""
"","","","","","html-button-response","32","225388","0.0-19.0","26","1","2023-10-31 20:53:31","a725c3012b74bf33a1020a98cb69c237","186.13.97.175","Mozilla/5.0 (Windows NT 10.0; Win64; x64) AppleWebKit/537.36 (KHTML, like Gecko) Chrome/118.0.0.0 Safari/537.36","WebKit","Chrome","118.0.0.0","Windows","10.0","null","en-US,en;q=0.9,es-AR;q=0.8,es;q=0.7","true","10659","
  <h1> Muy bien </h1>
  <p> Ahora, en vez de ser presentados en dígitos, los números vendrán escritos en palabras. </p>
  <p> Por ejemplo, en vez de 44 te aparecerá ""cuarenta y cuatro"". </p>
  ","0","","","","","","","","","","",""
"","","","","","html-keyboard-response","33","228223","0.0-20.0-0.0","26","1","2023-10-31 20:53:31","a725c3012b74bf33a1020a98cb69c237","186.13.97.175","Mozilla/5.0 (Windows NT 10.0; Win64; x64) AppleWebKit/537.36 (KHTML, like Gecko) Chrome/118.0.0.0 Safari/537.36","WebKit","Chrome","118.0.0.0","Windows","10.0","null","en-US,en;q=0.9,es-AR;q=0.8,es;q=0.7","true","null","<div style=""font-size:100px;"">X</div>","null","","","fixation","","","","","","","",""
"","","","","","audio-keyboard-response","34","229196","0.0-20.0-1.0","26","1","2023-10-31 20:53:31","a725c3012b74bf33a1020a98cb69c237","186.13.97.175","Mozilla/5.0 (Windows NT 10.0; Win64; x64) AppleWebKit/537.36 (KHTML, like Gecko) Chrome/118.0.0.0 Safari/537.36","WebKit","Chrome","118.0.0.0","Windows","10.0","null","en-US,en;q=0.9,es-AR;q=0.8,es;q=0.7","true","969","tones/880hz_short.mp3","s","","","tone_number_task","1000","veintisiete","tones/880hz_short.mp3","1150","60","null","null",""
"","","","","","html-keyboard-response","35","229230","0.0-20.0-2.0-0.0","26","1","2023-10-31 20:53:31","a725c3012b74bf33a1020a98cb69c237","186.13.97.175","Mozilla/5.0 (Windows NT 10.0; Win64; x64) AppleWebKit/537.36 (KHTML, like Gecko) Chrome/118.0.0.0 Safari/537.36","WebKit","Chrome","118.0.0.0","Windows","10.0","null","en-US,en;q=0.9,es-AR;q=0.8,es;q=0.7","true","null","","null","","","delay_block","","","","","","null","null",""
"","","","","","html-keyboard-response","36","229382","0.0-20.0-2.0-1.0","26","1","2023-10-31 20:53:31","a725c3012b74bf33a1020a98cb69c237","186.13.97.175","Mozilla/5.0 (Windows NT 10.0; Win64; x64) AppleWebKit/537.36 (KHTML, like Gecko) Chrome/118.0.0.0 Safari/537.36","WebKit","Chrome","118.0.0.0","Windows","10.0","null","en-US,en;q=0.9,es-AR;q=0.8,es;q=0.7","true","null","<p id=""stimulus"" style=""font-size:60px;"">veintisiete</p>","null","","","tone_number_task_remaining_before_delay","","veintisiete","","181","60","null","null",""
"","","","","","html-keyboard-response","37","230302","0.0-20.0-5.0-0.0","26","1","2023-10-31 20:53:31","a725c3012b74bf33a1020a98cb69c237","186.13.97.175","Mozilla/5.0 (Windows NT 10.0; Win64; x64) AppleWebKit/537.36 (KHTML, like Gecko) Chrome/118.0.0.0 Safari/537.36","WebKit","Chrome","118.0.0.0","Windows","10.0","null","en-US,en;q=0.9,es-AR;q=0.8,es;q=0.7","true","919","<p id=""stimulus"" style=""font-size:60px;"">veintisiete</p>","j","","","empty_block","","veintisiete","","","","null","null",""
"","","","","","html-button-response","38","330687","0.0-22.0","26","1","2023-10-31 20:53:31","a725c3012b74bf33a1020a98cb69c237","186.13.97.175","Mozilla/5.0 (Windows NT 10.0; Win64; x64) AppleWebKit/537.36 (KHTML, like Gecko) Chrome/118.0.0.0 Safari/537.36","WebKit","Chrome","118.0.0.0","Windows","10.0","null","en-US,en;q=0.9,es-AR;q=0.8,es;q=0.7","true","100383","
  <h1> Fin del Entrenamiento </h1>
  <p> ¡Felicitaciones, terminaste el entrenamiento! Ahora vamos a comenzar con el experimento. </p>
  <p> Es importante tener en cuenta que consta de cuatro bloques.</p>
  <p> Podés aprovechar los momentos entre bloques para tomar un breve descanso o tomar agua entre cada uno</p>
  <p> Recordá que tenés que responder lo más rápido que puedas, pero sin equivocarte. </p>
  ","0","","","","","","","","","","",""
"","","","","","external-html","39","343974","0.0-23.0","26","1","2023-10-31 20:53:31","a725c3012b74bf33a1020a98cb69c237","186.13.97.175","Mozilla/5.0 (Windows NT 10.0; Win64; x64) AppleWebKit/537.36 (KHTML, like Gecko) Chrome/118.0.0.0 Safari/537.36","WebKit","Chrome","118.0.0.0","Windows","10.0","null","en-US,en;q=0.9,es-AR;q=0.8,es;q=0.7","true","11982","","","","instructions/instructions_digits_first.html","","","","","","","","",""
"","","","","","call-function","40","343980","0.0-24.0","26","1","2023-10-31 20:53:31","a725c3012b74bf33a1020a98cb69c237","186.13.97.175","Mozilla/5.0 (Windows NT 10.0; Win64; x64) AppleWebKit/537.36 (KHTML, like Gecko) Chrome/118.0.0.0 Safari/537.36","WebKit","Chrome","118.0.0.0","Windows","10.0","null","en-US,en;q=0.9,es-AR;q=0.8,es;q=0.7","true","","","","","","","","","","","","","",""
"","","","","","html-keyboard-response","41","346814","0.0-25.0","26","1","2023-10-31 20:53:31","a725c3012b74bf33a1020a98cb69c237","186.13.97.175","Mozilla/5.0 (Windows NT 10.0; Win64; x64) AppleWebKit/537.36 (KHTML, like Gecko) Chrome/118.0.0.0 Safari/537.36","WebKit","Chrome","118.0.0.0","Windows","10.0","null","en-US,en;q=0.9,es-AR;q=0.8,es;q=0.7","true","null","<div style=""font-size:100px;"">X</div>","null","","","fixation","","","","","","","",""
"","","","","","audio-keyboard-response","42","346967","0.0-26.0","26","1","2023-10-31 20:53:31","a725c3012b74bf33a1020a98cb69c237","186.13.97.175","Mozilla/5.0 (Windows NT 10.0; Win64; x64) AppleWebKit/537.36 (KHTML, like Gecko) Chrome/118.0.0.0 Safari/537.36","WebKit","Chrome","118.0.0.0","Windows","10.0","null","en-US,en;q=0.9,es-AR;q=0.8,es;q=0.7","true","null","tones/440hz_short.mp3","null","","","tone_number_task","0","48","tones/440hz_short.mp3","150","100","0","0",""
"","","","","","html-keyboard-response","43","348170","0.0-29.0-0.0","26","1","2023-10-31 20:53:31","a725c3012b74bf33a1020a98cb69c237","186.13.97.175","Mozilla/5.0 (Windows NT 10.0; Win64; x64) AppleWebKit/537.36 (KHTML, like Gecko) Chrome/118.0.0.0 Safari/537.36","WebKit","Chrome","118.0.0.0","Windows","10.0","null","en-US,en;q=0.9,es-AR;q=0.8,es;q=0.7","true","null","tones/440hz_short.mp3","null","","","empty_block","","48","","","","0","0",""
"","","","","","html-keyboard-response","44","348911","0.0-29.0-1.0","26","1","2023-10-31 20:53:31","a725c3012b74bf33a1020a98cb69c237","186.13.97.175","Mozilla/5.0 (Windows NT 10.0; Win64; x64) AppleWebKit/537.36 (KHTML, like Gecko) Chrome/118.0.0.0 Safari/537.36","WebKit","Chrome","118.0.0.0","Windows","10.0","null","en-US,en;q=0.9,es-AR;q=0.8,es;q=0.7","true","739","tones/440hz_short.mp3","a","","","empty_block","","48","","","","0","0",""
"","","","","","html-keyboard-response","45","351745","0.0-31.0","26","1","2023-10-31 20:53:31","a725c3012b74bf33a1020a98cb69c237","186.13.97.175","Mozilla/5.0 (Windows NT 10.0; Win64; x64) AppleWebKit/537.36 (KHTML, like Gecko) Chrome/118.0.0.0 Safari/537.36","WebKit","Chrome","118.0.0.0","Windows","10.0","null","en-US,en;q=0.9,es-AR;q=0.8,es;q=0.7","true","null","<div style=""font-size:100px;"">X</div>","null","","","fixation","","","","","","","",""
"","","","","","audio-keyboard-response","46","351899","0.0-32.0","26","1","2023-10-31 20:53:31","a725c3012b74bf33a1020a98cb69c237","186.13.97.175","Mozilla/5.0 (Windows NT 10.0; Win64; x64) AppleWebKit/537.36 (KHTML, like Gecko) Chrome/118.0.0.0 Safari/537.36","WebKit","Chrome","118.0.0.0","Windows","10.0","null","en-US,en;q=0.9,es-AR;q=0.8,es;q=0.7","true","null","tones/440hz_short.mp3","null","","","tone_number_task","0","31","tones/440hz_short.mp3","150","100","0","1",""
"","","","","","html-keyboard-response","47","352731","0.0-35.0-0.0","26","1","2023-10-31 20:53:31","a725c3012b74bf33a1020a98cb69c237","186.13.97.175","Mozilla/5.0 (Windows NT 10.0; Win64; x64) AppleWebKit/537.36 (KHTML, like Gecko) Chrome/118.0.0.0 Safari/537.36","WebKit","Chrome","118.0.0.0","Windows","10.0","null","en-US,en;q=0.9,es-AR;q=0.8,es;q=0.7","true","831","tones/440hz_short.mp3","a","","","empty_block","","31","","","","0","1",""
"","","","","","html-keyboard-response","48","352797","0.0-35.0-1.0","26","1","2023-10-31 20:53:31","a725c3012b74bf33a1020a98cb69c237","186.13.97.175","Mozilla/5.0 (Windows NT 10.0; Win64; x64) AppleWebKit/537.36 (KHTML, like Gecko) Chrome/118.0.0.0 Safari/537.36","WebKit","Chrome","118.0.0.0","Windows","10.0","null","en-US,en;q=0.9,es-AR;q=0.8,es;q=0.7","true","63","tones/440hz_short.mp3","j","","","empty_block","","31","","","","0","1",""
"","","","","","html-keyboard-response","49","355631","0.0-37.0","26","1","2023-10-31 20:53:31","a725c3012b74bf33a1020a98cb69c237","186.13.97.175","Mozilla/5.0 (Windows NT 10.0; Win64; x64) AppleWebKit/537.36 (KHTML, like Gecko) Chrome/118.0.0.0 Safari/537.36","WebKit","Chrome","118.0.0.0","Windows","10.0","null","en-US,en;q=0.9,es-AR;q=0.8,es;q=0.7","true","null","<div style=""font-size:100px;"">X</div>","null","","","fixation","","","","","","","",""
"","","","","","audio-keyboard-response","50","356569","0.0-38.0","26","1","2023-10-31 20:53:31","a725c3012b74bf33a1020a98cb69c237","186.13.97.175","Mozilla/5.0 (Windows NT 10.0; Win64; x64) AppleWebKit/537.36 (KHTML, like Gecko) Chrome/118.0.0.0 Safari/537.36","WebKit","Chrome","118.0.0.0","Windows","10.0","null","en-US,en;q=0.9,es-AR;q=0.8,es;q=0.7","true","929","tones/880hz_short.mp3","s","","","tone_number_task","992.5","53","tones/880hz_short.mp3","1142.5","100","0","2",""
"","","","","","html-keyboard-response","51","356636","0.0-39.0-0.0","26","1","2023-10-31 20:53:31","a725c3012b74bf33a1020a98cb69c237","186.13.97.175","Mozilla/5.0 (Windows NT 10.0; Win64; x64) AppleWebKit/537.36 (KHTML, like Gecko) Chrome/118.0.0.0 Safari/537.36","WebKit","Chrome","118.0.0.0","Windows","10.0","null","en-US,en;q=0.9,es-AR;q=0.8,es;q=0.7","true","null","","null","","","delay_block","","","","","","0","2",""
"","","","","","html-keyboard-response","52","356788","0.0-39.0-1.0","26","1","2023-10-31 20:53:31","a725c3012b74bf33a1020a98cb69c237","186.13.97.175","Mozilla/5.0 (Windows NT 10.0; Win64; x64) AppleWebKit/537.36 (KHTML, like Gecko) Chrome/118.0.0.0 Safari/537.36","WebKit","Chrome","118.0.0.0","Windows","10.0","null","en-US,en;q=0.9,es-AR;q=0.8,es;q=0.7","true","null","<p id=""stimulus"" style=""font-size:100px;"">53</p>","null","","","tone_number_task_remaining_before_delay","","53","","213.5","100","0","2",""
"","","","","","html-keyboard-response","53","357330","0.0-42.0-0.0","26","1","2023-10-31 20:53:31","a725c3012b74bf33a1020a98cb69c237","186.13.97.175","Mozilla/5.0 (Windows NT 10.0; Win64; x64) AppleWebKit/537.36 (KHTML, like Gecko) Chrome/118.0.0.0 Safari/537.36","WebKit","Chrome","118.0.0.0","Windows","10.0","null","en-US,en;q=0.9,es-AR;q=0.8,es;q=0.7","true","540","<p id=""stimulus"" style=""font-size:100px;"">53</p>","k","","","empty_block","","53","","","","0","2",""
"","","","","","html-keyboard-response","54","360164","0.0-43.0","26","1","2023-10-31 20:53:31","a725c3012b74bf33a1020a98cb69c237","186.13.97.175","Mozilla/5.0 (Windows NT 10.0; Win64; x64) AppleWebKit/537.36 (KHTML, like Gecko) Chrome/118.0.0.0 Safari/537.36","WebKit","Chrome","118.0.0.0","Windows","10.0","null","en-US,en;q=0.9,es-AR;q=0.8,es;q=0.7","true","null","<div style=""font-size:100px;"">X</div>","null","","","fixation","","","","","","","",""
"","","","","","audio-keyboard-response","55","360800","0.0-44.0","26","1","2023-10-31 20:53:31","a725c3012b74bf33a1020a98cb69c237","186.13.97.175","Mozilla/5.0 (Windows NT 10.0; Win64; x64) AppleWebKit/537.36 (KHTML, like Gecko) Chrome/118.0.0.0 Safari/537.36","WebKit","Chrome","118.0.0.0","Windows","10.0","null","en-US,en;q=0.9,es-AR;q=0.8,es;q=0.7","true","630","tones/880hz_short.mp3","s","","","tone_number_task","992.5","27","tones/880hz_short.mp3","1142.5","100","0","3",""
"","","","","","html-keyboard-response","56","361164","0.0-45.0-0.0","26","1","2023-10-31 20:53:31","a725c3012b74bf33a1020a98cb69c237","186.13.97.175","Mozilla/5.0 (Windows NT 10.0; Win64; x64) AppleWebKit/537.36 (KHTML, like Gecko) Chrome/118.0.0.0 Safari/537.36","WebKit","Chrome","118.0.0.0","Windows","10.0","null","en-US,en;q=0.9,es-AR;q=0.8,es;q=0.7","true","null","","null","","","delay_block","","","","","","0","3",""
"","","","","","html-keyboard-response","57","361316","0.0-45.0-1.0","26","1","2023-10-31 20:53:31","a725c3012b74bf33a1020a98cb69c237","186.13.97.175","Mozilla/5.0 (Windows NT 10.0; Win64; x64) AppleWebKit/537.36 (KHTML, like Gecko) Chrome/118.0.0.0 Safari/537.36","WebKit","Chrome","118.0.0.0","Windows","10.0","null","en-US,en;q=0.9,es-AR;q=0.8,es;q=0.7","true","null","<p id=""stimulus"" style=""font-size:100px;"">27</p>","null","","","tone_number_task_remaining_before_delay","","27","","512.5","100","0","3",""
"","","","","","html-keyboard-response","58","361729","0.0-48.0-0.0","26","1","2023-10-31 20:53:31","a725c3012b74bf33a1020a98cb69c237","186.13.97.175","Mozilla/5.0 (Windows NT 10.0; Win64; x64) AppleWebKit/537.36 (KHTML, like Gecko) Chrome/118.0.0.0 Safari/537.36","WebKit","Chrome","118.0.0.0","Windows","10.0","null","en-US,en;q=0.9,es-AR;q=0.8,es;q=0.7","true","411","<p id=""stimulus"" style=""font-size:100px;"">27</p>","j","","","empty_block","","27","","","","0","3",""
"","","","","","html-keyboard-response","59","364564","0.0-49.0","26","1","2023-10-31 20:53:31","a725c3012b74bf33a1020a98cb69c237","186.13.97.175","Mozilla/5.0 (Windows NT 10.0; Win64; x64) AppleWebKit/537.36 (KHTML, like Gecko) Chrome/118.0.0.0 Safari/537.36","WebKit","Chrome","118.0.0.0","Windows","10.0","null","en-US,en;q=0.9,es-AR;q=0.8,es;q=0.7","true","null","<div style=""font-size:100px;"">X</div>","null","","","fixation","","","","","","","",""
"","","","","","audio-keyboard-response","60","365637","0.0-50.0","26","1","2023-10-31 20:53:31","a725c3012b74bf33a1020a98cb69c237","186.13.97.175","Mozilla/5.0 (Windows NT 10.0; Win64; x64) AppleWebKit/537.36 (KHTML, like Gecko) Chrome/118.0.0.0 Safari/537.36","WebKit","Chrome","118.0.0.0","Windows","10.0","null","en-US,en;q=0.9,es-AR;q=0.8,es;q=0.7","true","1071","tones/880hz_short.mp3","s","","","tone_number_task","1025","48","tones/880hz_short.mp3","1175","100","0","4",""
"","","","","","html-keyboard-response","61","365743","0.0-52.0-0.0","26","1","2023-10-31 20:53:31","a725c3012b74bf33a1020a98cb69c237","186.13.97.175","Mozilla/5.0 (Windows NT 10.0; Win64; x64) AppleWebKit/537.36 (KHTML, like Gecko) Chrome/118.0.0.0 Safari/537.36","WebKit","Chrome","118.0.0.0","Windows","10.0","null","en-US,en;q=0.9,es-AR;q=0.8,es;q=0.7","true","null","<p id=""stimulus"" style=""font-size:100px;"">48</p>","null","","","tone_number_task_remaining_after_delay","","48","","","100","0","4",""
"","","","","","html-keyboard-response","62","366518","0.0-54.0-0.0","26","1","2023-10-31 20:53:31","a725c3012b74bf33a1020a98cb69c237","186.13.97.175","Mozilla/5.0 (Windows NT 10.0; Win64; x64) AppleWebKit/537.36 (KHTML, like Gecko) Chrome/118.0.0.0 Safari/537.36","WebKit","Chrome","118.0.0.0","Windows","10.0","null","en-US,en;q=0.9,es-AR;q=0.8,es;q=0.7","true","773","<p id=""stimulus"" style=""font-size:100px;"">48</p>","k","","","empty_block","","48","","","","0","4",""
"","","","","","html-keyboard-response","63","369353","0.0-55.0","26","1","2023-10-31 20:53:31","a725c3012b74bf33a1020a98cb69c237","186.13.97.175","Mozilla/5.0 (Windows NT 10.0; Win64; x64) AppleWebKit/537.36 (KHTML, like Gecko) Chrome/118.0.0.0 Safari/537.36","WebKit","Chrome","118.0.0.0","Windows","10.0","null","en-US,en;q=0.9,es-AR;q=0.8,es;q=0.7","true","null","<div style=""font-size:100px;"">X</div>","null","","","fixation","","","","","","","",""
"","","","","","audio-keyboard-response","64","369506","0.0-56.0","26","1","2023-10-31 20:53:31","a725c3012b74bf33a1020a98cb69c237","186.13.97.175","Mozilla/5.0 (Windows NT 10.0; Win64; x64) AppleWebKit/537.36 (KHTML, like Gecko) Chrome/118.0.0.0 Safari/537.36","WebKit","Chrome","118.0.0.0","Windows","10.0","null","en-US,en;q=0.9,es-AR;q=0.8,es;q=0.7","true","null","tones/440hz_short.mp3","null","","","tone_number_task","0","65","tones/440hz_short.mp3","150","100","0","5",""
"","","","","","html-keyboard-response","65","370079","0.0-59.0-0.0","26","1","2023-10-31 20:53:31","a725c3012b74bf33a1020a98cb69c237","186.13.97.175","Mozilla/5.0 (Windows NT 10.0; Win64; x64) AppleWebKit/537.36 (KHTML, like Gecko) Chrome/118.0.0.0 Safari/537.36","WebKit","Chrome","118.0.0.0","Windows","10.0","null","en-US,en;q=0.9,es-AR;q=0.8,es;q=0.7","true","571","tones/440hz_short.mp3","a","","","empty_block","","65","","","","0","5",""
"","","","","","html-keyboard-response","66","370251","0.0-59.0-1.0","26","1","2023-10-31 20:53:31","a725c3012b74bf33a1020a98cb69c237","186.13.97.175","Mozilla/5.0 (Windows NT 10.0; Win64; x64) AppleWebKit/537.36 (KHTML, like Gecko) Chrome/118.0.0.0 Safari/537.36","WebKit","Chrome","118.0.0.0","Windows","10.0","null","en-US,en;q=0.9,es-AR;q=0.8,es;q=0.7","true","169","tones/440hz_short.mp3","k","","","empty_block","","65","","","","0","5",""
"","","","","","html-keyboard-response","67","373085","0.0-61.0","26","1","2023-10-31 20:53:31","a725c3012b74bf33a1020a98cb69c237","186.13.97.175","Mozilla/5.0 (Windows NT 10.0; Win64; x64) AppleWebKit/537.36 (KHTML, like Gecko) Chrome/118.0.0.0 Safari/537.36","WebKit","Chrome","118.0.0.0","Windows","10.0","null","en-US,en;q=0.9,es-AR;q=0.8,es;q=0.7","true","null","<div style=""font-size:100px;"">X</div>","null","","","fixation","","","","","","","",""
"","","","","","audio-keyboard-response","68","374264","0.0-62.0","26","1","2023-10-31 20:53:31","a725c3012b74bf33a1020a98cb69c237","186.13.97.175","Mozilla/5.0 (Windows NT 10.0; Win64; x64) AppleWebKit/537.36 (KHTML, like Gecko) Chrome/118.0.0.0 Safari/537.36","WebKit","Chrome","118.0.0.0","Windows","10.0","null","en-US,en;q=0.9,es-AR;q=0.8,es;q=0.7","true","null","tones/440hz_short.mp3","null","","","tone_number_task","1025","50","tones/440hz_short.mp3","1175","100","0","6",""
"","","","","","html-keyboard-response","69","374669","0.0-65.0-0.0","26","1","2023-10-31 20:53:31","a725c3012b74bf33a1020a98cb69c237","186.13.97.175","Mozilla/5.0 (Windows NT 10.0; Win64; x64) AppleWebKit/537.36 (KHTML, like Gecko) Chrome/118.0.0.0 Safari/537.36","WebKit","Chrome","118.0.0.0","Windows","10.0","null","en-US,en;q=0.9,es-AR;q=0.8,es;q=0.7","true","402","tones/440hz_short.mp3","a","","","empty_block","","50","","","","0","6",""
"","","","","","html-keyboard-response","70","375066","0.0-65.0-1.0","26","1","2023-10-31 20:53:31","a725c3012b74bf33a1020a98cb69c237","186.13.97.175","Mozilla/5.0 (Windows NT 10.0; Win64; x64) AppleWebKit/537.36 (KHTML, like Gecko) Chrome/118.0.0.0 Safari/537.36","WebKit","Chrome","118.0.0.0","Windows","10.0","null","en-US,en;q=0.9,es-AR;q=0.8,es;q=0.7","true","395","tones/440hz_short.mp3","k","","","empty_block","","50","","","","0","6",""
"","","","","","html-keyboard-response","71","377900","0.0-67.0","26","1","2023-10-31 20:53:31","a725c3012b74bf33a1020a98cb69c237","186.13.97.175","Mozilla/5.0 (Windows NT 10.0; Win64; x64) AppleWebKit/537.36 (KHTML, like Gecko) Chrome/118.0.0.0 Safari/537.36","WebKit","Chrome","118.0.0.0","Windows","10.0","null","en-US,en;q=0.9,es-AR;q=0.8,es;q=0.7","true","null","<div style=""font-size:100px;"">X</div>","null","","","fixation","","","","","","","",""
"","","","","","audio-keyboard-response","72","378156","0.0-68.0","26","1","2023-10-31 20:53:31","a725c3012b74bf33a1020a98cb69c237","186.13.97.175","Mozilla/5.0 (Windows NT 10.0; Win64; x64) AppleWebKit/537.36 (KHTML, like Gecko) Chrome/118.0.0.0 Safari/537.36","WebKit","Chrome","118.0.0.0","Windows","10.0","null","en-US,en;q=0.9,es-AR;q=0.8,es;q=0.7","true","null","tones/440hz_short.mp3","null","","","tone_number_task","102.5","37","tones/440hz_short.mp3","252.5","100","0","7",""
"","","","","","html-keyboard-response","73","378937","0.0-71.0-0.0","26","1","2023-10-31 20:53:31","a725c3012b74bf33a1020a98cb69c237","186.13.97.175","Mozilla/5.0 (Windows NT 10.0; Win64; x64) AppleWebKit/537.36 (KHTML, like Gecko) Chrome/118.0.0.0 Safari/537.36","WebKit","Chrome","118.0.0.0","Windows","10.0","null","en-US,en;q=0.9,es-AR;q=0.8,es;q=0.7","true","779","tones/440hz_short.mp3","a","","","empty_block","","37","","","","0","7",""
"","","","","","html-keyboard-response","74","379056","0.0-71.0-1.0","26","1","2023-10-31 20:53:31","a725c3012b74bf33a1020a98cb69c237","186.13.97.175","Mozilla/5.0 (Windows NT 10.0; Win64; x64) AppleWebKit/537.36 (KHTML, like Gecko) Chrome/118.0.0.0 Safari/537.36","WebKit","Chrome","118.0.0.0","Windows","10.0","null","en-US,en;q=0.9,es-AR;q=0.8,es;q=0.7","true","117","tones/440hz_short.mp3","j","","","empty_block","","37","","","","0","7",""
"","","","","","html-keyboard-response","75","381891","0.0-73.0","26","1","2023-10-31 20:53:31","a725c3012b74bf33a1020a98cb69c237","186.13.97.175","Mozilla/5.0 (Windows NT 10.0; Win64; x64) AppleWebKit/537.36 (KHTML, like Gecko) Chrome/118.0.0.0 Safari/537.36","WebKit","Chrome","118.0.0.0","Windows","10.0","null","en-US,en;q=0.9,es-AR;q=0.8,es;q=0.7","true","null","<div style=""font-size:100px;"">X</div>","null","","","fixation","","","","","","","",""
"","","","","","audio-keyboard-response","76","382146","0.0-74.0","26","1","2023-10-31 20:53:31","a725c3012b74bf33a1020a98cb69c237","186.13.97.175","Mozilla/5.0 (Windows NT 10.0; Win64; x64) AppleWebKit/537.36 (KHTML, like Gecko) Chrome/118.0.0.0 Safari/537.36","WebKit","Chrome","118.0.0.0","Windows","10.0","null","en-US,en;q=0.9,es-AR;q=0.8,es;q=0.7","true","null","tones/440hz_short.mp3","null","","","tone_number_task","102.5","26","tones/440hz_short.mp3","252.5","100","0","8",""
"","","","","","html-keyboard-response","77","382630","0.0-77.0-0.0","26","1","2023-10-31 20:53:31","a725c3012b74bf33a1020a98cb69c237","186.13.97.175","Mozilla/5.0 (Windows NT 10.0; Win64; x64) AppleWebKit/537.36 (KHTML, like Gecko) Chrome/118.0.0.0 Safari/537.36","WebKit","Chrome","118.0.0.0","Windows","10.0","null","en-US,en;q=0.9,es-AR;q=0.8,es;q=0.7","true","482","tones/440hz_short.mp3","a","","","empty_block","","26","","","","0","8",""
"","","","","","html-keyboard-response","78","382803","0.0-77.0-1.0","26","1","2023-10-31 20:53:31","a725c3012b74bf33a1020a98cb69c237","186.13.97.175","Mozilla/5.0 (Windows NT 10.0; Win64; x64) AppleWebKit/537.36 (KHTML, like Gecko) Chrome/118.0.0.0 Safari/537.36","WebKit","Chrome","118.0.0.0","Windows","10.0","null","en-US,en;q=0.9,es-AR;q=0.8,es;q=0.7","true","171","tones/440hz_short.mp3","j","","","empty_block","","26","","","","0","8",""
"","","","","","html-keyboard-response","79","385638","0.0-79.0","26","1","2023-10-31 20:53:31","a725c3012b74bf33a1020a98cb69c237","186.13.97.175","Mozilla/5.0 (Windows NT 10.0; Win64; x64) AppleWebKit/537.36 (KHTML, like Gecko) Chrome/118.0.0.0 Safari/537.36","WebKit","Chrome","118.0.0.0","Windows","10.0","null","en-US,en;q=0.9,es-AR;q=0.8,es;q=0.7","true","null","<div style=""font-size:100px;"">X</div>","null","","","fixation","","","","","","","",""
"","","","","","audio-keyboard-response","80","385893","0.0-80.0","26","1","2023-10-31 20:53:31","a725c3012b74bf33a1020a98cb69c237","186.13.97.175","Mozilla/5.0 (Windows NT 10.0; Win64; x64) AppleWebKit/537.36 (KHTML, like Gecko) Chrome/118.0.0.0 Safari/537.36","WebKit","Chrome","118.0.0.0","Windows","10.0","null","en-US,en;q=0.9,es-AR;q=0.8,es;q=0.7","true","null","tones/880hz_short.mp3","null","","","tone_number_task","102.5","38","tones/880hz_short.mp3","252.5","100","0","9",""
"","","","","","html-keyboard-response","81","386474","0.0-83.0-0.0","26","1","2023-10-31 20:53:31","a725c3012b74bf33a1020a98cb69c237","186.13.97.175","Mozilla/5.0 (Windows NT 10.0; Win64; x64) AppleWebKit/537.36 (KHTML, like Gecko) Chrome/118.0.0.0 Safari/537.36","WebKit","Chrome","118.0.0.0","Windows","10.0","null","en-US,en;q=0.9,es-AR;q=0.8,es;q=0.7","true","577","tones/880hz_short.mp3","s","","","empty_block","","38","","","","0","9",""
"","","","","","html-keyboard-response","82","386608","0.0-83.0-1.0","26","1","2023-10-31 20:53:31","a725c3012b74bf33a1020a98cb69c237","186.13.97.175","Mozilla/5.0 (Windows NT 10.0; Win64; x64) AppleWebKit/537.36 (KHTML, like Gecko) Chrome/118.0.0.0 Safari/537.36","WebKit","Chrome","118.0.0.0","Windows","10.0","null","en-US,en;q=0.9,es-AR;q=0.8,es;q=0.7","true","131","tones/880hz_short.mp3","j","","","empty_block","","38","","","","0","9",""
"","","","","","html-keyboard-response","83","389445","0.0-85.0","26","1","2023-10-31 20:53:31","a725c3012b74bf33a1020a98cb69c237","186.13.97.175","Mozilla/5.0 (Windows NT 10.0; Win64; x64) AppleWebKit/537.36 (KHTML, like Gecko) Chrome/118.0.0.0 Safari/537.36","WebKit","Chrome","118.0.0.0","Windows","10.0","null","en-US,en;q=0.9,es-AR;q=0.8,es;q=0.7","true","null","<div style=""font-size:100px;"">X</div>","null","","","fixation","","","","","","","",""
"","","","","","audio-keyboard-response","84","389701","0.0-86.0","26","1","2023-10-31 20:53:31","a725c3012b74bf33a1020a98cb69c237","186.13.97.175","Mozilla/5.0 (Windows NT 10.0; Win64; x64) AppleWebKit/537.36 (KHTML, like Gecko) Chrome/118.0.0.0 Safari/537.36","WebKit","Chrome","118.0.0.0","Windows","10.0","null","en-US,en;q=0.9,es-AR;q=0.8,es;q=0.7","true","null","tones/880hz_short.mp3","null","","","tone_number_task","102.5","35","tones/880hz_short.mp3","252.5","100","0","10",""
"","","","","","html-keyboard-response","85","390246","0.0-89.0-0.0","26","1","2023-10-31 20:53:31","a725c3012b74bf33a1020a98cb69c237","186.13.97.175","Mozilla/5.0 (Windows NT 10.0; Win64; x64) AppleWebKit/537.36 (KHTML, like Gecko) Chrome/118.0.0.0 Safari/537.36","WebKit","Chrome","118.0.0.0","Windows","10.0","null","en-US,en;q=0.9,es-AR;q=0.8,es;q=0.7","true","542","tones/880hz_short.mp3","s","","","empty_block","","35","","","","0","10",""
"","","","","","html-keyboard-response","86","390365","0.0-89.0-1.0","26","1","2023-10-31 20:53:31","a725c3012b74bf33a1020a98cb69c237","186.13.97.175","Mozilla/5.0 (Windows NT 10.0; Win64; x64) AppleWebKit/537.36 (KHTML, like Gecko) Chrome/118.0.0.0 Safari/537.36","WebKit","Chrome","118.0.0.0","Windows","10.0","null","en-US,en;q=0.9,es-AR;q=0.8,es;q=0.7","true","116","tones/880hz_short.mp3","j","","","empty_block","","35","","","","0","10",""
"","","","","","html-keyboard-response","87","393200","0.0-91.0","26","1","2023-10-31 20:53:31","a725c3012b74bf33a1020a98cb69c237","186.13.97.175","Mozilla/5.0 (Windows NT 10.0; Win64; x64) AppleWebKit/537.36 (KHTML, like Gecko) Chrome/118.0.0.0 Safari/537.36","WebKit","Chrome","118.0.0.0","Windows","10.0","null","en-US,en;q=0.9,es-AR;q=0.8,es;q=0.7","true","null","<div style=""font-size:100px;"">X</div>","null","","","fixation","","","","","","","",""
"","","","","","audio-keyboard-response","88","394032","0.0-92.0","26","1","2023-10-31 20:53:31","a725c3012b74bf33a1020a98cb69c237","186.13.97.175","Mozilla/5.0 (Windows NT 10.0; Win64; x64) AppleWebKit/537.36 (KHTML, like Gecko) Chrome/118.0.0.0 Safari/537.36","WebKit","Chrome","118.0.0.0","Windows","10.0","null","en-US,en;q=0.9,es-AR;q=0.8,es;q=0.7","true","819","tones/880hz_short.mp3","s","","","tone_number_task","1025","60","tones/880hz_short.mp3","1175","100","0","11",""
"","","","","","html-keyboard-response","89","394243","0.0-93.0-0.0","26","1","2023-10-31 20:53:31","a725c3012b74bf33a1020a98cb69c237","186.13.97.175","Mozilla/5.0 (Windows NT 10.0; Win64; x64) AppleWebKit/537.36 (KHTML, like Gecko) Chrome/118.0.0.0 Safari/537.36","WebKit","Chrome","118.0.0.0","Windows","10.0","null","en-US,en;q=0.9,es-AR;q=0.8,es;q=0.7","true","null","","null","","","delay_block","","","","","","0","11",""
"","","","","","html-keyboard-response","90","394397","0.0-93.0-1.0","26","1","2023-10-31 20:53:31","a725c3012b74bf33a1020a98cb69c237","186.13.97.175","Mozilla/5.0 (Windows NT 10.0; Win64; x64) AppleWebKit/537.36 (KHTML, like Gecko) Chrome/118.0.0.0 Safari/537.36","WebKit","Chrome","118.0.0.0","Windows","10.0","null","en-US,en;q=0.9,es-AR;q=0.8,es;q=0.7","true","null","<p id=""stimulus"" style=""font-size:100px;"">60</p>","null","","","tone_number_task_remaining_before_delay","","60","","356","100","0","11",""
"","","","","","html-keyboard-response","91","394900","0.0-96.0-0.0","26","1","2023-10-31 20:53:31","a725c3012b74bf33a1020a98cb69c237","186.13.97.175","Mozilla/5.0 (Windows NT 10.0; Win64; x64) AppleWebKit/537.36 (KHTML, like Gecko) Chrome/118.0.0.0 Safari/537.36","WebKit","Chrome","118.0.0.0","Windows","10.0","null","en-US,en;q=0.9,es-AR;q=0.8,es;q=0.7","true","500","<p id=""stimulus"" style=""font-size:100px;"">60</p>","k","","","empty_block","","60","","","","0","11",""
"","","","","","html-keyboard-response","92","397737","0.0-97.0","26","1","2023-10-31 20:53:31","a725c3012b74bf33a1020a98cb69c237","186.13.97.175","Mozilla/5.0 (Windows NT 10.0; Win64; x64) AppleWebKit/537.36 (KHTML, like Gecko) Chrome/118.0.0.0 Safari/537.36","WebKit","Chrome","118.0.0.0","Windows","10.0","null","en-US,en;q=0.9,es-AR;q=0.8,es;q=0.7","true","null","<div style=""font-size:100px;"">X</div>","null","","","fixation","","","","","","","",""
"","","","","","audio-keyboard-response","93","397892","0.0-98.0","26","1","2023-10-31 20:53:31","a725c3012b74bf33a1020a98cb69c237","186.13.97.175","Mozilla/5.0 (Windows NT 10.0; Win64; x64) AppleWebKit/537.36 (KHTML, like Gecko) Chrome/118.0.0.0 Safari/537.36","WebKit","Chrome","118.0.0.0","Windows","10.0","null","en-US,en;q=0.9,es-AR;q=0.8,es;q=0.7","true","null","tones/880hz_short.mp3","null","","","tone_number_task","0","38","tones/880hz_short.mp3","150","100","0","12",""
"","","","","","html-keyboard-response","94","398427","0.0-101.0-0.0","26","1","2023-10-31 20:53:31","a725c3012b74bf33a1020a98cb69c237","186.13.97.175","Mozilla/5.0 (Windows NT 10.0; Win64; x64) AppleWebKit/537.36 (KHTML, like Gecko) Chrome/118.0.0.0 Safari/537.36","WebKit","Chrome","118.0.0.0","Windows","10.0","null","en-US,en;q=0.9,es-AR;q=0.8,es;q=0.7","true","532","tones/880hz_short.mp3","s","","","empty_block","","38","","","","0","12",""
"","","","","","html-keyboard-response","95","398725","0.0-101.0-1.0","26","1","2023-10-31 20:53:31","a725c3012b74bf33a1020a98cb69c237","186.13.97.175","Mozilla/5.0 (Windows NT 10.0; Win64; x64) AppleWebKit/537.36 (KHTML, like Gecko) Chrome/118.0.0.0 Safari/537.36","WebKit","Chrome","118.0.0.0","Windows","10.0","null","en-US,en;q=0.9,es-AR;q=0.8,es;q=0.7","true","296","tones/880hz_short.mp3","j","","","empty_block","","38","","","","0","12",""
"","","","","","html-keyboard-response","96","401562","0.0-103.0","26","1","2023-10-31 20:53:31","a725c3012b74bf33a1020a98cb69c237","186.13.97.175","Mozilla/5.0 (Windows NT 10.0; Win64; x64) AppleWebKit/537.36 (KHTML, like Gecko) Chrome/118.0.0.0 Safari/537.36","WebKit","Chrome","118.0.0.0","Windows","10.0","null","en-US,en;q=0.9,es-AR;q=0.8,es;q=0.7","true","null","<div style=""font-size:100px;"">X</div>","null","","","fixation","","","","","","","",""
"","","","","","audio-keyboard-response","97","402107","0.0-104.0","26","1","2023-10-31 20:53:31","a725c3012b74bf33a1020a98cb69c237","186.13.97.175","Mozilla/5.0 (Windows NT 10.0; Win64; x64) AppleWebKit/537.36 (KHTML, like Gecko) Chrome/118.0.0.0 Safari/537.36","WebKit","Chrome","118.0.0.0","Windows","10.0","null","en-US,en;q=0.9,es-AR;q=0.8,es;q=0.7","true","540","tones/440hz_short.mp3","a","","","tone_number_task","1025","46","tones/440hz_short.mp3","1175","100","0","13",""
"","","","","","html-keyboard-response","98","402596","0.0-105.0-0.0","26","1","2023-10-31 20:53:31","a725c3012b74bf33a1020a98cb69c237","186.13.97.175","Mozilla/5.0 (Windows NT 10.0; Win64; x64) AppleWebKit/537.36 (KHTML, like Gecko) Chrome/118.0.0.0 Safari/537.36","WebKit","Chrome","118.0.0.0","Windows","10.0","null","en-US,en;q=0.9,es-AR;q=0.8,es;q=0.7","true","null","","null","","","delay_block","","","","","","0","13",""
"","","","","","html-keyboard-response","99","402750","0.0-105.0-1.0","26","1","2023-10-31 20:53:31","a725c3012b74bf33a1020a98cb69c237","186.13.97.175","Mozilla/5.0 (Windows NT 10.0; Win64; x64) AppleWebKit/537.36 (KHTML, like Gecko) Chrome/118.0.0.0 Safari/537.36","WebKit","Chrome","118.0.0.0","Windows","10.0","null","en-US,en;q=0.9,es-AR;q=0.8,es;q=0.7","true","null","<p id=""stimulus"" style=""font-size:100px;"">46</p>","null","","","tone_number_task_remaining_before_delay","","46","","635","100","0","13",""
"","","","","","html-keyboard-response","100","403562","0.0-108.0-0.0","26","1","2023-10-31 20:53:31","a725c3012b74bf33a1020a98cb69c237","186.13.97.175","Mozilla/5.0 (Windows NT 10.0; Win64; x64) AppleWebKit/537.36 (KHTML, like Gecko) Chrome/118.0.0.0 Safari/537.36","WebKit","Chrome","118.0.0.0","Windows","10.0","null","en-US,en;q=0.9,es-AR;q=0.8,es;q=0.7","true","807","<p id=""stimulus"" style=""font-size:100px;"">46</p>","k","","","empty_block","","46","","","","0","13",""
"","","","","","html-keyboard-response","101","406397","0.0-109.0","26","1","2023-10-31 20:53:31","a725c3012b74bf33a1020a98cb69c237","186.13.97.175","Mozilla/5.0 (Windows NT 10.0; Win64; x64) AppleWebKit/537.36 (KHTML, like Gecko) Chrome/118.0.0.0 Safari/537.36","WebKit","Chrome","118.0.0.0","Windows","10.0","null","en-US,en;q=0.9,es-AR;q=0.8,es;q=0.7","true","null","<div style=""font-size:100px;"">X</div>","null","","","fixation","","","","","","","",""
"","","","","","audio-keyboard-response","102","406551","0.0-110.0","26","1","2023-10-31 20:53:31","a725c3012b74bf33a1020a98cb69c237","186.13.97.175","Mozilla/5.0 (Windows NT 10.0; Win64; x64) AppleWebKit/537.36 (KHTML, like Gecko) Chrome/118.0.0.0 Safari/537.36","WebKit","Chrome","118.0.0.0","Windows","10.0","null","en-US,en;q=0.9,es-AR;q=0.8,es;q=0.7","true","null","tones/440hz_short.mp3","null","","","tone_number_task","0","40","tones/440hz_short.mp3","150","100","0","14",""
"","","","","","html-keyboard-response","103","407522","0.0-113.0-0.0","26","1","2023-10-31 20:53:31","a725c3012b74bf33a1020a98cb69c237","186.13.97.175","Mozilla/5.0 (Windows NT 10.0; Win64; x64) AppleWebKit/537.36 (KHTML, like Gecko) Chrome/118.0.0.0 Safari/537.36","WebKit","Chrome","118.0.0.0","Windows","10.0","null","en-US,en;q=0.9,es-AR;q=0.8,es;q=0.7","true","967","tones/440hz_short.mp3","a","","","empty_block","","40","","","","0","14",""
"","","","","","html-keyboard-response","104","408284","0.0-113.0-1.0","26","1","2023-10-31 20:53:31","a725c3012b74bf33a1020a98cb69c237","186.13.97.175","Mozilla/5.0 (Windows NT 10.0; Win64; x64) AppleWebKit/537.36 (KHTML, like Gecko) Chrome/118.0.0.0 Safari/537.36","WebKit","Chrome","118.0.0.0","Windows","10.0","null","en-US,en;q=0.9,es-AR;q=0.8,es;q=0.7","true","758","tones/440hz_short.mp3","j","","","empty_block","","40","","","","0","14",""
"","","","","","html-keyboard-response","105","411120","0.0-115.0","26","1","2023-10-31 20:53:31","a725c3012b74bf33a1020a98cb69c237","186.13.97.175","Mozilla/5.0 (Windows NT 10.0; Win64; x64) AppleWebKit/537.36 (KHTML, like Gecko) Chrome/118.0.0.0 Safari/537.36","WebKit","Chrome","118.0.0.0","Windows","10.0","null","en-US,en;q=0.9,es-AR;q=0.8,es;q=0.7","true","null","<div style=""font-size:100px;"">X</div>","null","","","fixation","","","","","","","",""
"","","","","","audio-keyboard-response","106","411779","0.0-116.0","26","1","2023-10-31 20:53:31","a725c3012b74bf33a1020a98cb69c237","186.13.97.175","Mozilla/5.0 (Windows NT 10.0; Win64; x64) AppleWebKit/537.36 (KHTML, like Gecko) Chrome/118.0.0.0 Safari/537.36","WebKit","Chrome","118.0.0.0","Windows","10.0","null","en-US,en;q=0.9,es-AR;q=0.8,es;q=0.7","true","650","tones/440hz_short.mp3","a","","","tone_number_task","1025","56","tones/440hz_short.mp3","1175","100","0","15",""
"","","","","","html-keyboard-response","107","412158","0.0-117.0-0.0","26","1","2023-10-31 20:53:31","a725c3012b74bf33a1020a98cb69c237","186.13.97.175","Mozilla/5.0 (Windows NT 10.0; Win64; x64) AppleWebKit/537.36 (KHTML, like Gecko) Chrome/118.0.0.0 Safari/537.36","WebKit","Chrome","118.0.0.0","Windows","10.0","null","en-US,en;q=0.9,es-AR;q=0.8,es;q=0.7","true","null","","null","","","delay_block","","","","","","0","15",""
"","","","","","html-keyboard-response","108","412313","0.0-117.0-1.0","26","1","2023-10-31 20:53:31","a725c3012b74bf33a1020a98cb69c237","186.13.97.175","Mozilla/5.0 (Windows NT 10.0; Win64; x64) AppleWebKit/537.36 (KHTML, like Gecko) Chrome/118.0.0.0 Safari/537.36","WebKit","Chrome","118.0.0.0","Windows","10.0","null","en-US,en;q=0.9,es-AR;q=0.8,es;q=0.7","true","null","<p id=""stimulus"" style=""font-size:100px;"">56</p>","null","","","tone_number_task_remaining_before_delay","","56","","525","100","0","15",""
"","","","","","html-keyboard-response","109","412811","0.0-120.0-0.0","26","1","2023-10-31 20:53:31","a725c3012b74bf33a1020a98cb69c237","186.13.97.175","Mozilla/5.0 (Windows NT 10.0; Win64; x64) AppleWebKit/537.36 (KHTML, like Gecko) Chrome/118.0.0.0 Safari/537.36","WebKit","Chrome","118.0.0.0","Windows","10.0","null","en-US,en;q=0.9,es-AR;q=0.8,es;q=0.7","true","495","<p id=""stimulus"" style=""font-size:100px;"">56</p>","k","","","empty_block","","56","","","","0","15",""
"","","","","","html-keyboard-response","110","415649","0.0-121.0","26","1","2023-10-31 20:53:31","a725c3012b74bf33a1020a98cb69c237","186.13.97.175","Mozilla/5.0 (Windows NT 10.0; Win64; x64) AppleWebKit/537.36 (KHTML, like Gecko) Chrome/118.0.0.0 Safari/537.36","WebKit","Chrome","118.0.0.0","Windows","10.0","null","en-US,en;q=0.9,es-AR;q=0.8,es;q=0.7","true","null","<div style=""font-size:100px;"">X</div>","null","","","fixation","","","","","","","",""
"","","","","","audio-keyboard-response","111","415803","0.0-122.0","26","1","2023-10-31 20:53:31","a725c3012b74bf33a1020a98cb69c237","186.13.97.175","Mozilla/5.0 (Windows NT 10.0; Win64; x64) AppleWebKit/537.36 (KHTML, like Gecko) Chrome/118.0.0.0 Safari/537.36","WebKit","Chrome","118.0.0.0","Windows","10.0","null","en-US,en;q=0.9,es-AR;q=0.8,es;q=0.7","true","null","tones/880hz_short.mp3","null","","","tone_number_task","0","39","tones/880hz_short.mp3","150","100","0","16",""
"","","","","","html-keyboard-response","112","416780","0.0-125.0-0.0","26","1","2023-10-31 20:53:31","a725c3012b74bf33a1020a98cb69c237","186.13.97.175","Mozilla/5.0 (Windows NT 10.0; Win64; x64) AppleWebKit/537.36 (KHTML, like Gecko) Chrome/118.0.0.0 Safari/537.36","WebKit","Chrome","118.0.0.0","Windows","10.0","null","en-US,en;q=0.9,es-AR;q=0.8,es;q=0.7","true","974","tones/880hz_short.mp3","s","","","empty_block","","39","","","","0","16",""
"","","","","","html-keyboard-response","113","417197","0.0-125.0-1.0","26","1","2023-10-31 20:53:31","a725c3012b74bf33a1020a98cb69c237","186.13.97.175","Mozilla/5.0 (Windows NT 10.0; Win64; x64) AppleWebKit/537.36 (KHTML, like Gecko) Chrome/118.0.0.0 Safari/537.36","WebKit","Chrome","118.0.0.0","Windows","10.0","null","en-US,en;q=0.9,es-AR;q=0.8,es;q=0.7","true","414","tones/880hz_short.mp3","j","","","empty_block","","39","","","","0","16",""
"","","","","","html-keyboard-response","114","420033","0.0-127.0","26","1","2023-10-31 20:53:31","a725c3012b74bf33a1020a98cb69c237","186.13.97.175","Mozilla/5.0 (Windows NT 10.0; Win64; x64) AppleWebKit/537.36 (KHTML, like Gecko) Chrome/118.0.0.0 Safari/537.36","WebKit","Chrome","118.0.0.0","Windows","10.0","null","en-US,en;q=0.9,es-AR;q=0.8,es;q=0.7","true","null","<div style=""font-size:100px;"">X</div>","null","","","fixation","","","","","","","",""
"","","","","","audio-keyboard-response","115","420290","0.0-128.0","26","1","2023-10-31 20:53:31","a725c3012b74bf33a1020a98cb69c237","186.13.97.175","Mozilla/5.0 (Windows NT 10.0; Win64; x64) AppleWebKit/537.36 (KHTML, like Gecko) Chrome/118.0.0.0 Safari/537.36","WebKit","Chrome","118.0.0.0","Windows","10.0","null","en-US,en;q=0.9,es-AR;q=0.8,es;q=0.7","true","null","tones/880hz_short.mp3","null","","","tone_number_task","102.5","44","tones/880hz_short.mp3","252.5","100","0","17",""
"","","","","","html-keyboard-response","116","421380","0.0-131.0-0.0","26","1","2023-10-31 20:53:31","a725c3012b74bf33a1020a98cb69c237","186.13.97.175","Mozilla/5.0 (Windows NT 10.0; Win64; x64) AppleWebKit/537.36 (KHTML, like Gecko) Chrome/118.0.0.0 Safari/537.36","WebKit","Chrome","118.0.0.0","Windows","10.0","null","en-US,en;q=0.9,es-AR;q=0.8,es;q=0.7","true","1086","tones/880hz_short.mp3","s","","","empty_block","","44","","","","0","17",""
"","","","","","html-keyboard-response","117","421601","0.0-131.0-1.0","26","1","2023-10-31 20:53:31","a725c3012b74bf33a1020a98cb69c237","186.13.97.175","Mozilla/5.0 (Windows NT 10.0; Win64; x64) AppleWebKit/537.36 (KHTML, like Gecko) Chrome/118.0.0.0 Safari/537.36","WebKit","Chrome","118.0.0.0","Windows","10.0","null","en-US,en;q=0.9,es-AR;q=0.8,es;q=0.7","true","218","tones/880hz_short.mp3","j","","","empty_block","","44","","","","0","17",""
"","","","","","html-keyboard-response","118","424436","0.0-133.0","26","1","2023-10-31 20:53:31","a725c3012b74bf33a1020a98cb69c237","186.13.97.175","Mozilla/5.0 (Windows NT 10.0; Win64; x64) AppleWebKit/537.36 (KHTML, like Gecko) Chrome/118.0.0.0 Safari/537.36","WebKit","Chrome","118.0.0.0","Windows","10.0","null","en-US,en;q=0.9,es-AR;q=0.8,es;q=0.7","true","null","<div style=""font-size:100px;"">X</div>","null","","","fixation","","","","","","","",""
"","","","","","audio-keyboard-response","119","424693","0.0-134.0","26","1","2023-10-31 20:53:31","a725c3012b74bf33a1020a98cb69c237","186.13.97.175","Mozilla/5.0 (Windows NT 10.0; Win64; x64) AppleWebKit/537.36 (KHTML, like Gecko) Chrome/118.0.0.0 Safari/537.36","WebKit","Chrome","118.0.0.0","Windows","10.0","null","en-US,en;q=0.9,es-AR;q=0.8,es;q=0.7","true","null","tones/440hz_short.mp3","null","","","tone_number_task","102.5","43","tones/440hz_short.mp3","252.5","100","0","18",""
"","","","","","html-keyboard-response","120","425519","0.0-137.0-0.0","26","1","2023-10-31 20:53:31","a725c3012b74bf33a1020a98cb69c237","186.13.97.175","Mozilla/5.0 (Windows NT 10.0; Win64; x64) AppleWebKit/537.36 (KHTML, like Gecko) Chrome/118.0.0.0 Safari/537.36","WebKit","Chrome","118.0.0.0","Windows","10.0","null","en-US,en;q=0.9,es-AR;q=0.8,es;q=0.7","true","822","tones/440hz_short.mp3","a","","","empty_block","","43","","","","0","18",""
"","","","","","html-keyboard-response","121","425851","0.0-137.0-1.0","26","1","2023-10-31 20:53:31","a725c3012b74bf33a1020a98cb69c237","186.13.97.175","Mozilla/5.0 (Windows NT 10.0; Win64; x64) AppleWebKit/537.36 (KHTML, like Gecko) Chrome/118.0.0.0 Safari/537.36","WebKit","Chrome","118.0.0.0","Windows","10.0","null","en-US,en;q=0.9,es-AR;q=0.8,es;q=0.7","true","328","tones/440hz_short.mp3","j","","","empty_block","","43","","","","0","18",""
"","","","","","html-keyboard-response","122","428688","0.0-139.0","26","1","2023-10-31 20:53:31","a725c3012b74bf33a1020a98cb69c237","186.13.97.175","Mozilla/5.0 (Windows NT 10.0; Win64; x64) AppleWebKit/537.36 (KHTML, like Gecko) Chrome/118.0.0.0 Safari/537.36","WebKit","Chrome","118.0.0.0","Windows","10.0","null","en-US,en;q=0.9,es-AR;q=0.8,es;q=0.7","true","null","<div style=""font-size:100px;"">X</div>","null","","","fixation","","","","","","","",""
"","","","","","audio-keyboard-response","123","428842","0.0-140.0","26","1","2023-10-31 20:53:31","a725c3012b74bf33a1020a98cb69c237","186.13.97.175","Mozilla/5.0 (Windows NT 10.0; Win64; x64) AppleWebKit/537.36 (KHTML, like Gecko) Chrome/118.0.0.0 Safari/537.36","WebKit","Chrome","118.0.0.0","Windows","10.0","null","en-US,en;q=0.9,es-AR;q=0.8,es;q=0.7","true","null","tones/880hz_short.mp3","null","","","tone_number_task","0","30","tones/880hz_short.mp3","150","100","0","19",""
"","","","","","html-keyboard-response","124","429648","0.0-143.0-0.0","26","1","2023-10-31 20:53:31","a725c3012b74bf33a1020a98cb69c237","186.13.97.175","Mozilla/5.0 (Windows NT 10.0; Win64; x64) AppleWebKit/537.36 (KHTML, like Gecko) Chrome/118.0.0.0 Safari/537.36","WebKit","Chrome","118.0.0.0","Windows","10.0","null","en-US,en;q=0.9,es-AR;q=0.8,es;q=0.7","true","802","tones/880hz_short.mp3","s","","","empty_block","","30","","","","0","19",""
"","","","","","html-keyboard-response","125","429824","0.0-143.0-1.0","26","1","2023-10-31 20:53:31","a725c3012b74bf33a1020a98cb69c237","186.13.97.175","Mozilla/5.0 (Windows NT 10.0; Win64; x64) AppleWebKit/537.36 (KHTML, like Gecko) Chrome/118.0.0.0 Safari/537.36","WebKit","Chrome","118.0.0.0","Windows","10.0","null","en-US,en;q=0.9,es-AR;q=0.8,es;q=0.7","true","173","tones/880hz_short.mp3","j","","","empty_block","","30","","","","0","19",""
"","","","","","html-keyboard-response","126","432661","0.0-145.0","26","1","2023-10-31 20:53:31","a725c3012b74bf33a1020a98cb69c237","186.13.97.175","Mozilla/5.0 (Windows NT 10.0; Win64; x64) AppleWebKit/537.36 (KHTML, like Gecko) Chrome/118.0.0.0 Safari/537.36","WebKit","Chrome","118.0.0.0","Windows","10.0","null","en-US,en;q=0.9,es-AR;q=0.8,es;q=0.7","true","null","<div style=""font-size:100px;"">X</div>","null","","","fixation","","","","","","","",""
"","","","","","audio-keyboard-response","127","433669","0.0-146.0","26","1","2023-10-31 20:53:31","a725c3012b74bf33a1020a98cb69c237","186.13.97.175","Mozilla/5.0 (Windows NT 10.0; Win64; x64) AppleWebKit/537.36 (KHTML, like Gecko) Chrome/118.0.0.0 Safari/537.36","WebKit","Chrome","118.0.0.0","Windows","10.0","null","en-US,en;q=0.9,es-AR;q=0.8,es;q=0.7","true","998","tones/440hz_short.mp3","a","","","tone_number_task","1025","41","tones/440hz_short.mp3","1175","100","0","20",""
"","","","","","html-keyboard-response","128","433700","0.0-147.0-0.0","26","1","2023-10-31 20:53:31","a725c3012b74bf33a1020a98cb69c237","186.13.97.175","Mozilla/5.0 (Windows NT 10.0; Win64; x64) AppleWebKit/537.36 (KHTML, like Gecko) Chrome/118.0.0.0 Safari/537.36","WebKit","Chrome","118.0.0.0","Windows","10.0","null","en-US,en;q=0.9,es-AR;q=0.8,es;q=0.7","true","null","","null","","","delay_block","","","","","","0","20",""
"","","","","","html-keyboard-response","129","433854","0.0-147.0-1.0","26","1","2023-10-31 20:53:31","a725c3012b74bf33a1020a98cb69c237","186.13.97.175","Mozilla/5.0 (Windows NT 10.0; Win64; x64) AppleWebKit/537.36 (KHTML, like Gecko) Chrome/118.0.0.0 Safari/537.36","WebKit","Chrome","118.0.0.0","Windows","10.0","null","en-US,en;q=0.9,es-AR;q=0.8,es;q=0.7","true","null","<p id=""stimulus"" style=""font-size:100px;"">41</p>","null","","","tone_number_task_remaining_before_delay","","41","","177","100","0","20",""
"","","","","","html-keyboard-response","130","434410","0.0-150.0-0.0","26","1","2023-10-31 20:53:31","a725c3012b74bf33a1020a98cb69c237","186.13.97.175","Mozilla/5.0 (Windows NT 10.0; Win64; x64) AppleWebKit/537.36 (KHTML, like Gecko) Chrome/118.0.0.0 Safari/537.36","WebKit","Chrome","118.0.0.0","Windows","10.0","null","en-US,en;q=0.9,es-AR;q=0.8,es;q=0.7","true","553","<p id=""stimulus"" style=""font-size:100px;"">41</p>","j","","","empty_block","","41","","","","0","20",""
"","","","","","html-keyboard-response","131","437247","0.0-151.0","26","1","2023-10-31 20:53:31","a725c3012b74bf33a1020a98cb69c237","186.13.97.175","Mozilla/5.0 (Windows NT 10.0; Win64; x64) AppleWebKit/537.36 (KHTML, like Gecko) Chrome/118.0.0.0 Safari/537.36","WebKit","Chrome","118.0.0.0","Windows","10.0","null","en-US,en;q=0.9,es-AR;q=0.8,es;q=0.7","true","null","<div style=""font-size:100px;"">X</div>","null","","","fixation","","","","","","","",""
"","","","","","audio-keyboard-response","132","438389","0.0-152.0","26","1","2023-10-31 20:53:31","a725c3012b74bf33a1020a98cb69c237","186.13.97.175","Mozilla/5.0 (Windows NT 10.0; Win64; x64) AppleWebKit/537.36 (KHTML, like Gecko) Chrome/118.0.0.0 Safari/537.36","WebKit","Chrome","118.0.0.0","Windows","10.0","null","en-US,en;q=0.9,es-AR;q=0.8,es;q=0.7","true","1141","tones/440hz_short.mp3","a","","","tone_number_task","992.5","28","tones/440hz_short.mp3","1142.5","100","0","21",""
"","","","","","html-keyboard-response","133","438394","0.0-154.0-0.0","26","1","2023-10-31 20:53:31","a725c3012b74bf33a1020a98cb69c237","186.13.97.175","Mozilla/5.0 (Windows NT 10.0; Win64; x64) AppleWebKit/537.36 (KHTML, like Gecko) Chrome/118.0.0.0 Safari/537.36","WebKit","Chrome","118.0.0.0","Windows","10.0","null","en-US,en;q=0.9,es-AR;q=0.8,es;q=0.7","true","null","<p id=""stimulus"" style=""font-size:100px;"">28</p>","null","","","tone_number_task_remaining_after_delay","","28","","","100","0","21",""
"","","","","","html-keyboard-response","134","438868","0.0-156.0-0.0","26","1","2023-10-31 20:53:31","a725c3012b74bf33a1020a98cb69c237","186.13.97.175","Mozilla/5.0 (Windows NT 10.0; Win64; x64) AppleWebKit/537.36 (KHTML, like Gecko) Chrome/118.0.0.0 Safari/537.36","WebKit","Chrome","118.0.0.0","Windows","10.0","null","en-US,en;q=0.9,es-AR;q=0.8,es;q=0.7","true","471","<p id=""stimulus"" style=""font-size:100px;"">28</p>","j","","","empty_block","","28","","","","0","21",""
"","","","","","html-keyboard-response","135","441705","0.0-157.0","26","1","2023-10-31 20:53:31","a725c3012b74bf33a1020a98cb69c237","186.13.97.175","Mozilla/5.0 (Windows NT 10.0; Win64; x64) AppleWebKit/537.36 (KHTML, like Gecko) Chrome/118.0.0.0 Safari/537.36","WebKit","Chrome","118.0.0.0","Windows","10.0","null","en-US,en;q=0.9,es-AR;q=0.8,es;q=0.7","true","null","<div style=""font-size:100px;"">X</div>","null","","","fixation","","","","","","","",""
"","","","","","audio-keyboard-response","136","442263","0.0-158.0","26","1","2023-10-31 20:53:31","a725c3012b74bf33a1020a98cb69c237","186.13.97.175","Mozilla/5.0 (Windows NT 10.0; Win64; x64) AppleWebKit/537.36 (KHTML, like Gecko) Chrome/118.0.0.0 Safari/537.36","WebKit","Chrome","118.0.0.0","Windows","10.0","null","en-US,en;q=0.9,es-AR;q=0.8,es;q=0.7","true","560","tones/880hz_short.mp3","s","","","tone_number_task","992.5","61","tones/880hz_short.mp3","1142.5","100","0","22",""
"","","","","","html-keyboard-response","137","442711","0.0-159.0-0.0","26","1","2023-10-31 20:53:31","a725c3012b74bf33a1020a98cb69c237","186.13.97.175","Mozilla/5.0 (Windows NT 10.0; Win64; x64) AppleWebKit/537.36 (KHTML, like Gecko) Chrome/118.0.0.0 Safari/537.36","WebKit","Chrome","118.0.0.0","Windows","10.0","null","en-US,en;q=0.9,es-AR;q=0.8,es;q=0.7","true","null","","null","","","delay_block","","","","","","0","22",""
"","","","","","html-keyboard-response","138","442867","0.0-159.0-1.0","26","1","2023-10-31 20:53:31","a725c3012b74bf33a1020a98cb69c237","186.13.97.175","Mozilla/5.0 (Windows NT 10.0; Win64; x64) AppleWebKit/537.36 (KHTML, like Gecko) Chrome/118.0.0.0 Safari/537.36","WebKit","Chrome","118.0.0.0","Windows","10.0","null","en-US,en;q=0.9,es-AR;q=0.8,es;q=0.7","true","null","<p id=""stimulus"" style=""font-size:100px;"">61</p>","null","","","tone_number_task_remaining_before_delay","","61","","582.5","100","0","22",""
"","","","","","html-keyboard-response","139","443289","0.0-162.0-0.0","26","1","2023-10-31 20:53:31","a725c3012b74bf33a1020a98cb69c237","186.13.97.175","Mozilla/5.0 (Windows NT 10.0; Win64; x64) AppleWebKit/537.36 (KHTML, like Gecko) Chrome/118.0.0.0 Safari/537.36","WebKit","Chrome","118.0.0.0","Windows","10.0","null","en-US,en;q=0.9,es-AR;q=0.8,es;q=0.7","true","417","<p id=""stimulus"" style=""font-size:100px;"">61</p>","k","","","empty_block","","61","","","","0","22",""
"","","","","","html-keyboard-response","140","446126","0.0-163.0","26","1","2023-10-31 20:53:31","a725c3012b74bf33a1020a98cb69c237","186.13.97.175","Mozilla/5.0 (Windows NT 10.0; Win64; x64) AppleWebKit/537.36 (KHTML, like Gecko) Chrome/118.0.0.0 Safari/537.36","WebKit","Chrome","118.0.0.0","Windows","10.0","null","en-US,en;q=0.9,es-AR;q=0.8,es;q=0.7","true","null","<div style=""font-size:100px;"">X</div>","null","","","fixation","","","","","","","",""
"","","","","","audio-keyboard-response","141","447058","0.0-164.0","26","1","2023-10-31 20:53:31","a725c3012b74bf33a1020a98cb69c237","186.13.97.175","Mozilla/5.0 (Windows NT 10.0; Win64; x64) AppleWebKit/537.36 (KHTML, like Gecko) Chrome/118.0.0.0 Safari/537.36","WebKit","Chrome","118.0.0.0","Windows","10.0","null","en-US,en;q=0.9,es-AR;q=0.8,es;q=0.7","true","932","tones/440hz_short.mp3","a","","","tone_number_task","1025","43","tones/440hz_short.mp3","1175","100","0","23",""
"","","","","","html-keyboard-response","142","447156","0.0-165.0-0.0","26","1","2023-10-31 20:53:31","a725c3012b74bf33a1020a98cb69c237","186.13.97.175","Mozilla/5.0 (Windows NT 10.0; Win64; x64) AppleWebKit/537.36 (KHTML, like Gecko) Chrome/118.0.0.0 Safari/537.36","WebKit","Chrome","118.0.0.0","Windows","10.0","null","en-US,en;q=0.9,es-AR;q=0.8,es;q=0.7","true","null","","null","","","delay_block","","","","","","0","23",""
"","","","","","html-keyboard-response","143","447312","0.0-165.0-1.0","26","1","2023-10-31 20:53:31","a725c3012b74bf33a1020a98cb69c237","186.13.97.175","Mozilla/5.0 (Windows NT 10.0; Win64; x64) AppleWebKit/537.36 (KHTML, like Gecko) Chrome/118.0.0.0 Safari/537.36","WebKit","Chrome","118.0.0.0","Windows","10.0","null","en-US,en;q=0.9,es-AR;q=0.8,es;q=0.7","true","null","<p id=""stimulus"" style=""font-size:100px;"">43</p>","null","","","tone_number_task_remaining_before_delay","","43","","243","100","0","23",""
"","","","","","html-keyboard-response","144","447705","0.0-168.0-0.0","26","1","2023-10-31 20:53:31","a725c3012b74bf33a1020a98cb69c237","186.13.97.175","Mozilla/5.0 (Windows NT 10.0; Win64; x64) AppleWebKit/537.36 (KHTML, like Gecko) Chrome/118.0.0.0 Safari/537.36","WebKit","Chrome","118.0.0.0","Windows","10.0","null","en-US,en;q=0.9,es-AR;q=0.8,es;q=0.7","true","389","<p id=""stimulus"" style=""font-size:100px;"">43</p>","j","","","empty_block","","43","","","","0","23",""
"","","","","","html-keyboard-response","145","450544","0.0-169.0","26","1","2023-10-31 20:53:31","a725c3012b74bf33a1020a98cb69c237","186.13.97.175","Mozilla/5.0 (Windows NT 10.0; Win64; x64) AppleWebKit/537.36 (KHTML, like Gecko) Chrome/118.0.0.0 Safari/537.36","WebKit","Chrome","118.0.0.0","Windows","10.0","null","en-US,en;q=0.9,es-AR;q=0.8,es;q=0.7","true","null","<div style=""font-size:100px;"">X</div>","null","","","fixation","","","","","","","",""
"","","","","","audio-keyboard-response","146","450800","0.0-170.0","26","1","2023-10-31 20:53:31","a725c3012b74bf33a1020a98cb69c237","186.13.97.175","Mozilla/5.0 (Windows NT 10.0; Win64; x64) AppleWebKit/537.36 (KHTML, like Gecko) Chrome/118.0.0.0 Safari/537.36","WebKit","Chrome","118.0.0.0","Windows","10.0","null","en-US,en;q=0.9,es-AR;q=0.8,es;q=0.7","true","null","tones/440hz_short.mp3","null","","","tone_number_task","102.5","68","tones/440hz_short.mp3","252.5","100","0","24",""
"","","","","","html-keyboard-response","147","452003","0.0-173.0-0.0","26","1","2023-10-31 20:53:31","a725c3012b74bf33a1020a98cb69c237","186.13.97.175","Mozilla/5.0 (Windows NT 10.0; Win64; x64) AppleWebKit/537.36 (KHTML, like Gecko) Chrome/118.0.0.0 Safari/537.36","WebKit","Chrome","118.0.0.0","Windows","10.0","null","en-US,en;q=0.9,es-AR;q=0.8,es;q=0.7","true","null","tones/440hz_short.mp3","null","","","empty_block","","68","","","","0","24",""
"","","","","","html-keyboard-response","148","452271","0.0-173.0-1.0","26","1","2023-10-31 20:53:31","a725c3012b74bf33a1020a98cb69c237","186.13.97.175","Mozilla/5.0 (Windows NT 10.0; Win64; x64) AppleWebKit/537.36 (KHTML, like Gecko) Chrome/118.0.0.0 Safari/537.36","WebKit","Chrome","118.0.0.0","Windows","10.0","null","en-US,en;q=0.9,es-AR;q=0.8,es;q=0.7","true","264","tones/440hz_short.mp3","a","","","empty_block","","68","","","","0","24",""
"","","","","","html-keyboard-response","149","455108","0.0-175.0","26","1","2023-10-31 20:53:31","a725c3012b74bf33a1020a98cb69c237","186.13.97.175","Mozilla/5.0 (Windows NT 10.0; Win64; x64) AppleWebKit/537.36 (KHTML, like Gecko) Chrome/118.0.0.0 Safari/537.36","WebKit","Chrome","118.0.0.0","Windows","10.0","null","en-US,en;q=0.9,es-AR;q=0.8,es;q=0.7","true","null","<div style=""font-size:100px;"">X</div>","null","","","fixation","","","","","","","",""
"","","","","","audio-keyboard-response","150","455895","0.0-176.0","26","1","2023-10-31 20:53:31","a725c3012b74bf33a1020a98cb69c237","186.13.97.175","Mozilla/5.0 (Windows NT 10.0; Win64; x64) AppleWebKit/537.36 (KHTML, like Gecko) Chrome/118.0.0.0 Safari/537.36","WebKit","Chrome","118.0.0.0","Windows","10.0","null","en-US,en;q=0.9,es-AR;q=0.8,es;q=0.7","true","789","tones/440hz_short.mp3","a","","","tone_number_task","992.5","56","tones/440hz_short.mp3","1142.5","100","0","25",""
"","","","","","html-keyboard-response","151","456102","0.0-177.0-0.0","26","1","2023-10-31 20:53:31","a725c3012b74bf33a1020a98cb69c237","186.13.97.175","Mozilla/5.0 (Windows NT 10.0; Win64; x64) AppleWebKit/537.36 (KHTML, like Gecko) Chrome/118.0.0.0 Safari/537.36","WebKit","Chrome","118.0.0.0","Windows","10.0","null","en-US,en;q=0.9,es-AR;q=0.8,es;q=0.7","true","null","","null","","","delay_block","","","","","","0","25",""
"","","","","","html-keyboard-response","152","456257","0.0-177.0-1.0","26","1","2023-10-31 20:53:31","a725c3012b74bf33a1020a98cb69c237","186.13.97.175","Mozilla/5.0 (Windows NT 10.0; Win64; x64) AppleWebKit/537.36 (KHTML, like Gecko) Chrome/118.0.0.0 Safari/537.36","WebKit","Chrome","118.0.0.0","Windows","10.0","null","en-US,en;q=0.9,es-AR;q=0.8,es;q=0.7","true","null","<p id=""stimulus"" style=""font-size:100px;"">56</p>","null","","","tone_number_task_remaining_before_delay","","56","","353.5","100","0","25",""
"","","","","","html-keyboard-response","153","457030","0.0-180.0-0.0","26","1","2023-10-31 20:53:31","a725c3012b74bf33a1020a98cb69c237","186.13.97.175","Mozilla/5.0 (Windows NT 10.0; Win64; x64) AppleWebKit/537.36 (KHTML, like Gecko) Chrome/118.0.0.0 Safari/537.36","WebKit","Chrome","118.0.0.0","Windows","10.0","null","en-US,en;q=0.9,es-AR;q=0.8,es;q=0.7","true","768","<p id=""stimulus"" style=""font-size:100px;"">56</p>","k","","","empty_block","","56","","","","0","25",""
"","","","","","html-keyboard-response","154","459868","0.0-181.0","26","1","2023-10-31 20:53:31","a725c3012b74bf33a1020a98cb69c237","186.13.97.175","Mozilla/5.0 (Windows NT 10.0; Win64; x64) AppleWebKit/537.36 (KHTML, like Gecko) Chrome/118.0.0.0 Safari/537.36","WebKit","Chrome","118.0.0.0","Windows","10.0","null","en-US,en;q=0.9,es-AR;q=0.8,es;q=0.7","true","null","<div style=""font-size:100px;"">X</div>","null","","","fixation","","","","","","","",""
"","","","","","audio-keyboard-response","155","460849","0.0-182.0","26","1","2023-10-31 20:53:31","a725c3012b74bf33a1020a98cb69c237","186.13.97.175","Mozilla/5.0 (Windows NT 10.0; Win64; x64) AppleWebKit/537.36 (KHTML, like Gecko) Chrome/118.0.0.0 Safari/537.36","WebKit","Chrome","118.0.0.0","Windows","10.0","null","en-US,en;q=0.9,es-AR;q=0.8,es;q=0.7","true","981","tones/440hz_short.mp3","a","","","tone_number_task","992.5","36","tones/440hz_short.mp3","1142.5","100","0","26",""
"","","","","","html-keyboard-response","156","460864","0.0-183.0-0.0","26","1","2023-10-31 20:53:31","a725c3012b74bf33a1020a98cb69c237","186.13.97.175","Mozilla/5.0 (Windows NT 10.0; Win64; x64) AppleWebKit/537.36 (KHTML, like Gecko) Chrome/118.0.0.0 Safari/537.36","WebKit","Chrome","118.0.0.0","Windows","10.0","null","en-US,en;q=0.9,es-AR;q=0.8,es;q=0.7","true","null","","null","","","delay_block","","","","","","0","26",""
"","","","","","html-keyboard-response","157","461019","0.0-183.0-1.0","26","1","2023-10-31 20:53:31","a725c3012b74bf33a1020a98cb69c237","186.13.97.175","Mozilla/5.0 (Windows NT 10.0; Win64; x64) AppleWebKit/537.36 (KHTML, like Gecko) Chrome/118.0.0.0 Safari/537.36","WebKit","Chrome","118.0.0.0","Windows","10.0","null","en-US,en;q=0.9,es-AR;q=0.8,es;q=0.7","true","null","<p id=""stimulus"" style=""font-size:100px;"">36</p>","null","","","tone_number_task_remaining_before_delay","","36","","161.5","100","0","26",""
"","","","","","html-keyboard-response","158","461399","0.0-186.0-0.0","26","1","2023-10-31 20:53:31","a725c3012b74bf33a1020a98cb69c237","186.13.97.175","Mozilla/5.0 (Windows NT 10.0; Win64; x64) AppleWebKit/537.36 (KHTML, like Gecko) Chrome/118.0.0.0 Safari/537.36","WebKit","Chrome","118.0.0.0","Windows","10.0","null","en-US,en;q=0.9,es-AR;q=0.8,es;q=0.7","true","377","<p id=""stimulus"" style=""font-size:100px;"">36</p>","j","","","empty_block","","36","","","","0","26",""
"","","","","","html-keyboard-response","159","464237","0.0-187.0","26","1","2023-10-31 20:53:31","a725c3012b74bf33a1020a98cb69c237","186.13.97.175","Mozilla/5.0 (Windows NT 10.0; Win64; x64) AppleWebKit/537.36 (KHTML, like Gecko) Chrome/118.0.0.0 Safari/537.36","WebKit","Chrome","118.0.0.0","Windows","10.0","null","en-US,en;q=0.9,es-AR;q=0.8,es;q=0.7","true","null","<div style=""font-size:100px;"">X</div>","null","","","fixation","","","","","","","",""
"","","","","","audio-keyboard-response","160","464793","0.0-188.0","26","1","2023-10-31 20:53:31","a725c3012b74bf33a1020a98cb69c237","186.13.97.175","Mozilla/5.0 (Windows NT 10.0; Win64; x64) AppleWebKit/537.36 (KHTML, like Gecko) Chrome/118.0.0.0 Safari/537.36","WebKit","Chrome","118.0.0.0","Windows","10.0","null","en-US,en;q=0.9,es-AR;q=0.8,es;q=0.7","true","560","tones/440hz_short.mp3","a","","","tone_number_task","992.5","66","tones/440hz_short.mp3","1142.5","100","0","27",""
"","","","","","html-keyboard-response","161","465229","0.0-189.0-0.0","26","1","2023-10-31 20:53:31","a725c3012b74bf33a1020a98cb69c237","186.13.97.175","Mozilla/5.0 (Windows NT 10.0; Win64; x64) AppleWebKit/537.36 (KHTML, like Gecko) Chrome/118.0.0.0 Safari/537.36","WebKit","Chrome","118.0.0.0","Windows","10.0","null","en-US,en;q=0.9,es-AR;q=0.8,es;q=0.7","true","null","","null","","","delay_block","","","","","","0","27",""
"","","","","","html-keyboard-response","162","465384","0.0-189.0-1.0","26","1","2023-10-31 20:53:31","a725c3012b74bf33a1020a98cb69c237","186.13.97.175","Mozilla/5.0 (Windows NT 10.0; Win64; x64) AppleWebKit/537.36 (KHTML, like Gecko) Chrome/118.0.0.0 Safari/537.36","WebKit","Chrome","118.0.0.0","Windows","10.0","null","en-US,en;q=0.9,es-AR;q=0.8,es;q=0.7","true","null","<p id=""stimulus"" style=""font-size:100px;"">66</p>","null","","","tone_number_task_remaining_before_delay","","66","","582.5","100","0","27",""
"","","","","","html-keyboard-response","163","465862","0.0-192.0-0.0","26","1","2023-10-31 20:53:31","a725c3012b74bf33a1020a98cb69c237","186.13.97.175","Mozilla/5.0 (Windows NT 10.0; Win64; x64) AppleWebKit/537.36 (KHTML, like Gecko) Chrome/118.0.0.0 Safari/537.36","WebKit","Chrome","118.0.0.0","Windows","10.0","null","en-US,en;q=0.9,es-AR;q=0.8,es;q=0.7","true","474","<p id=""stimulus"" style=""font-size:100px;"">66</p>","k","","","empty_block","","66","","","","0","27",""
"","","","","","html-keyboard-response","164","468698","0.0-193.0","26","1","2023-10-31 20:53:31","a725c3012b74bf33a1020a98cb69c237","186.13.97.175","Mozilla/5.0 (Windows NT 10.0; Win64; x64) AppleWebKit/537.36 (KHTML, like Gecko) Chrome/118.0.0.0 Safari/537.36","WebKit","Chrome","118.0.0.0","Windows","10.0","null","en-US,en;q=0.9,es-AR;q=0.8,es;q=0.7","true","null","<div style=""font-size:100px;"">X</div>","null","","","fixation","","","","","","","",""
"","","","","","audio-keyboard-response","165","468954","0.0-194.0","26","1","2023-10-31 20:53:31","a725c3012b74bf33a1020a98cb69c237","186.13.97.175","Mozilla/5.0 (Windows NT 10.0; Win64; x64) AppleWebKit/537.36 (KHTML, like Gecko) Chrome/118.0.0.0 Safari/537.36","WebKit","Chrome","118.0.0.0","Windows","10.0","null","en-US,en;q=0.9,es-AR;q=0.8,es;q=0.7","true","null","tones/440hz_short.mp3","null","","","tone_number_task","102.5","51","tones/440hz_short.mp3","252.5","100","0","28",""
"","","","","","html-keyboard-response","166","469698","0.0-197.0-0.0","26","1","2023-10-31 20:53:31","a725c3012b74bf33a1020a98cb69c237","186.13.97.175","Mozilla/5.0 (Windows NT 10.0; Win64; x64) AppleWebKit/537.36 (KHTML, like Gecko) Chrome/118.0.0.0 Safari/537.36","WebKit","Chrome","118.0.0.0","Windows","10.0","null","en-US,en;q=0.9,es-AR;q=0.8,es;q=0.7","true","740","tones/440hz_short.mp3","a","","","empty_block","","51","","","","0","28",""
"","","","","","html-keyboard-response","167","469824","0.0-197.0-1.0","26","1","2023-10-31 20:53:31","a725c3012b74bf33a1020a98cb69c237","186.13.97.175","Mozilla/5.0 (Windows NT 10.0; Win64; x64) AppleWebKit/537.36 (KHTML, like Gecko) Chrome/118.0.0.0 Safari/537.36","WebKit","Chrome","118.0.0.0","Windows","10.0","null","en-US,en;q=0.9,es-AR;q=0.8,es;q=0.7","true","122","tones/440hz_short.mp3","k","","","empty_block","","51","","","","0","28",""
"","","","","","html-keyboard-response","168","472660","0.0-199.0","26","1","2023-10-31 20:53:31","a725c3012b74bf33a1020a98cb69c237","186.13.97.175","Mozilla/5.0 (Windows NT 10.0; Win64; x64) AppleWebKit/537.36 (KHTML, like Gecko) Chrome/118.0.0.0 Safari/537.36","WebKit","Chrome","118.0.0.0","Windows","10.0","null","en-US,en;q=0.9,es-AR;q=0.8,es;q=0.7","true","null","<div style=""font-size:100px;"">X</div>","null","","","fixation","","","","","","","",""
"","","","","","audio-keyboard-response","169","473457","0.0-200.0","26","1","2023-10-31 20:53:31","a725c3012b74bf33a1020a98cb69c237","186.13.97.175","Mozilla/5.0 (Windows NT 10.0; Win64; x64) AppleWebKit/537.36 (KHTML, like Gecko) Chrome/118.0.0.0 Safari/537.36","WebKit","Chrome","118.0.0.0","Windows","10.0","null","en-US,en;q=0.9,es-AR;q=0.8,es;q=0.7","true","789","tones/440hz_short.mp3","a","","","tone_number_task","1025","22","tones/440hz_short.mp3","1175","100","0","29",""
"","","","","","html-keyboard-response","170","473698","0.0-201.0-0.0","26","1","2023-10-31 20:53:31","a725c3012b74bf33a1020a98cb69c237","186.13.97.175","Mozilla/5.0 (Windows NT 10.0; Win64; x64) AppleWebKit/537.36 (KHTML, like Gecko) Chrome/118.0.0.0 Safari/537.36","WebKit","Chrome","118.0.0.0","Windows","10.0","null","en-US,en;q=0.9,es-AR;q=0.8,es;q=0.7","true","null","","null","","","delay_block","","","","","","0","29",""
"","","","","","html-keyboard-response","171","473854","0.0-201.0-1.0","26","1","2023-10-31 20:53:31","a725c3012b74bf33a1020a98cb69c237","186.13.97.175","Mozilla/5.0 (Windows NT 10.0; Win64; x64) AppleWebKit/537.36 (KHTML, like Gecko) Chrome/118.0.0.0 Safari/537.36","WebKit","Chrome","118.0.0.0","Windows","10.0","null","en-US,en;q=0.9,es-AR;q=0.8,es;q=0.7","true","null","<p id=""stimulus"" style=""font-size:100px;"">22</p>","null","","","tone_number_task_remaining_before_delay","","22","","386","100","0","29",""
"","","","","","html-keyboard-response","172","474268","0.0-204.0-0.0","26","1","2023-10-31 20:53:31","a725c3012b74bf33a1020a98cb69c237","186.13.97.175","Mozilla/5.0 (Windows NT 10.0; Win64; x64) AppleWebKit/537.36 (KHTML, like Gecko) Chrome/118.0.0.0 Safari/537.36","WebKit","Chrome","118.0.0.0","Windows","10.0","null","en-US,en;q=0.9,es-AR;q=0.8,es;q=0.7","true","410","<p id=""stimulus"" style=""font-size:100px;"">22</p>","j","","","empty_block","","22","","","","0","29",""
"","","","","","html-keyboard-response","173","477105","0.0-205.0","26","1","2023-10-31 20:53:31","a725c3012b74bf33a1020a98cb69c237","186.13.97.175","Mozilla/5.0 (Windows NT 10.0; Win64; x64) AppleWebKit/537.36 (KHTML, like Gecko) Chrome/118.0.0.0 Safari/537.36","WebKit","Chrome","118.0.0.0","Windows","10.0","null","en-US,en;q=0.9,es-AR;q=0.8,es;q=0.7","true","null","<div style=""font-size:100px;"">X</div>","null","","","fixation","","","","","","","",""
"","","","","","audio-keyboard-response","174","477830","0.0-206.0","26","1","2023-10-31 20:53:31","a725c3012b74bf33a1020a98cb69c237","186.13.97.175","Mozilla/5.0 (Windows NT 10.0; Win64; x64) AppleWebKit/537.36 (KHTML, like Gecko) Chrome/118.0.0.0 Safari/537.36","WebKit","Chrome","118.0.0.0","Windows","10.0","null","en-US,en;q=0.9,es-AR;q=0.8,es;q=0.7","true","720","tones/880hz_short.mp3","s","","","tone_number_task","992.5","39","tones/880hz_short.mp3","1142.5","100","0","30",""
"","","","","","html-keyboard-response","175","478109","0.0-207.0-0.0","26","1","2023-10-31 20:53:31","a725c3012b74bf33a1020a98cb69c237","186.13.97.175","Mozilla/5.0 (Windows NT 10.0; Win64; x64) AppleWebKit/537.36 (KHTML, like Gecko) Chrome/118.0.0.0 Safari/537.36","WebKit","Chrome","118.0.0.0","Windows","10.0","null","en-US,en;q=0.9,es-AR;q=0.8,es;q=0.7","true","null","","null","","","delay_block","","","","","","0","30",""
"","","","","","html-keyboard-response","176","478264","0.0-207.0-1.0","26","1","2023-10-31 20:53:31","a725c3012b74bf33a1020a98cb69c237","186.13.97.175","Mozilla/5.0 (Windows NT 10.0; Win64; x64) AppleWebKit/537.36 (KHTML, like Gecko) Chrome/118.0.0.0 Safari/537.36","WebKit","Chrome","118.0.0.0","Windows","10.0","null","en-US,en;q=0.9,es-AR;q=0.8,es;q=0.7","true","null","<p id=""stimulus"" style=""font-size:100px;"">39</p>","null","","","tone_number_task_remaining_before_delay","","39","","422.5","100","0","30",""
"","","","","","html-keyboard-response","177","478752","0.0-210.0-0.0","26","1","2023-10-31 20:53:31","a725c3012b74bf33a1020a98cb69c237","186.13.97.175","Mozilla/5.0 (Windows NT 10.0; Win64; x64) AppleWebKit/537.36 (KHTML, like Gecko) Chrome/118.0.0.0 Safari/537.36","WebKit","Chrome","118.0.0.0","Windows","10.0","null","en-US,en;q=0.9,es-AR;q=0.8,es;q=0.7","true","484","<p id=""stimulus"" style=""font-size:100px;"">39</p>","j","","","empty_block","","39","","","","0","30",""
"","","","","","html-keyboard-response","178","481589","0.0-211.0","26","1","2023-10-31 20:53:31","a725c3012b74bf33a1020a98cb69c237","186.13.97.175","Mozilla/5.0 (Windows NT 10.0; Win64; x64) AppleWebKit/537.36 (KHTML, like Gecko) Chrome/118.0.0.0 Safari/537.36","WebKit","Chrome","118.0.0.0","Windows","10.0","null","en-US,en;q=0.9,es-AR;q=0.8,es;q=0.7","true","null","<div style=""font-size:100px;"">X</div>","null","","","fixation","","","","","","","",""
"","","","","","audio-keyboard-response","179","481745","0.0-212.0","26","1","2023-10-31 20:53:31","a725c3012b74bf33a1020a98cb69c237","186.13.97.175","Mozilla/5.0 (Windows NT 10.0; Win64; x64) AppleWebKit/537.36 (KHTML, like Gecko) Chrome/118.0.0.0 Safari/537.36","WebKit","Chrome","118.0.0.0","Windows","10.0","null","en-US,en;q=0.9,es-AR;q=0.8,es;q=0.7","true","null","tones/880hz_short.mp3","null","","","tone_number_task","0","58","tones/880hz_short.mp3","150","100","0","31",""
"","","","","","html-keyboard-response","180","482290","0.0-215.0-0.0","26","1","2023-10-31 20:53:31","a725c3012b74bf33a1020a98cb69c237","186.13.97.175","Mozilla/5.0 (Windows NT 10.0; Win64; x64) AppleWebKit/537.36 (KHTML, like Gecko) Chrome/118.0.0.0 Safari/537.36","WebKit","Chrome","118.0.0.0","Windows","10.0","null","en-US,en;q=0.9,es-AR;q=0.8,es;q=0.7","true","542","tones/880hz_short.mp3","s","","","empty_block","","58","","","","0","31",""
"","","","","","html-keyboard-response","181","482589","0.0-215.0-1.0","26","1","2023-10-31 20:53:31","a725c3012b74bf33a1020a98cb69c237","186.13.97.175","Mozilla/5.0 (Windows NT 10.0; Win64; x64) AppleWebKit/537.36 (KHTML, like Gecko) Chrome/118.0.0.0 Safari/537.36","WebKit","Chrome","118.0.0.0","Windows","10.0","null","en-US,en;q=0.9,es-AR;q=0.8,es;q=0.7","true","295","tones/880hz_short.mp3","k","","","empty_block","","58","","","","0","31",""
"","","","","","html-keyboard-response","182","485426","0.0-217.0","26","1","2023-10-31 20:53:31","a725c3012b74bf33a1020a98cb69c237","186.13.97.175","Mozilla/5.0 (Windows NT 10.0; Win64; x64) AppleWebKit/537.36 (KHTML, like Gecko) Chrome/118.0.0.0 Safari/537.36","WebKit","Chrome","118.0.0.0","Windows","10.0","null","en-US,en;q=0.9,es-AR;q=0.8,es;q=0.7","true","null","<div style=""font-size:100px;"">X</div>","null","","","fixation","","","","","","","",""
"","","","","","audio-keyboard-response","183","485925","0.0-218.0","26","1","2023-10-31 20:53:31","a725c3012b74bf33a1020a98cb69c237","186.13.97.175","Mozilla/5.0 (Windows NT 10.0; Win64; x64) AppleWebKit/537.36 (KHTML, like Gecko) Chrome/118.0.0.0 Safari/537.36","WebKit","Chrome","118.0.0.0","Windows","10.0","null","en-US,en;q=0.9,es-AR;q=0.8,es;q=0.7","true","502","tones/440hz_short.mp3","a","","","tone_number_task","1025","68","tones/440hz_short.mp3","1175","100","0","32",""
"","","","","","html-keyboard-response","184","486454","0.0-219.0-0.0","26","1","2023-10-31 20:53:31","a725c3012b74bf33a1020a98cb69c237","186.13.97.175","Mozilla/5.0 (Windows NT 10.0; Win64; x64) AppleWebKit/537.36 (KHTML, like Gecko) Chrome/118.0.0.0 Safari/537.36","WebKit","Chrome","118.0.0.0","Windows","10.0","null","en-US,en;q=0.9,es-AR;q=0.8,es;q=0.7","true","null","","null","","","delay_block","","","","","","0","32",""
"","","","","","html-keyboard-response","185","486608","0.0-219.0-1.0","26","1","2023-10-31 20:53:31","a725c3012b74bf33a1020a98cb69c237","186.13.97.175","Mozilla/5.0 (Windows NT 10.0; Win64; x64) AppleWebKit/537.36 (KHTML, like Gecko) Chrome/118.0.0.0 Safari/537.36","WebKit","Chrome","118.0.0.0","Windows","10.0","null","en-US,en;q=0.9,es-AR;q=0.8,es;q=0.7","true","null","<p id=""stimulus"" style=""font-size:100px;"">68</p>","null","","","tone_number_task_remaining_before_delay","","68","","673","100","0","32",""
"","","","","","html-keyboard-response","186","487111","0.0-222.0-0.0","26","1","2023-10-31 20:53:31","a725c3012b74bf33a1020a98cb69c237","186.13.97.175","Mozilla/5.0 (Windows NT 10.0; Win64; x64) AppleWebKit/537.36 (KHTML, like Gecko) Chrome/118.0.0.0 Safari/537.36","WebKit","Chrome","118.0.0.0","Windows","10.0","null","en-US,en;q=0.9,es-AR;q=0.8,es;q=0.7","true","499","<p id=""stimulus"" style=""font-size:100px;"">68</p>","k","","","empty_block","","68","","","","0","32",""
"","","","","","html-keyboard-response","187","489949","0.0-223.0","26","1","2023-10-31 20:53:31","a725c3012b74bf33a1020a98cb69c237","186.13.97.175","Mozilla/5.0 (Windows NT 10.0; Win64; x64) AppleWebKit/537.36 (KHTML, like Gecko) Chrome/118.0.0.0 Safari/537.36","WebKit","Chrome","118.0.0.0","Windows","10.0","null","en-US,en;q=0.9,es-AR;q=0.8,es;q=0.7","true","null","<div style=""font-size:100px;"">X</div>","null","","","fixation","","","","","","","",""
"","","","","","audio-keyboard-response","188","490103","0.0-224.0","26","1","2023-10-31 20:53:31","a725c3012b74bf33a1020a98cb69c237","186.13.97.175","Mozilla/5.0 (Windows NT 10.0; Win64; x64) AppleWebKit/537.36 (KHTML, like Gecko) Chrome/118.0.0.0 Safari/537.36","WebKit","Chrome","118.0.0.0","Windows","10.0","null","en-US,en;q=0.9,es-AR;q=0.8,es;q=0.7","true","null","tones/440hz_short.mp3","null","","","tone_number_task","0","30","tones/440hz_short.mp3","150","100","0","33",""
"","","","","","html-keyboard-response","189","491017","0.0-227.0-0.0","26","1","2023-10-31 20:53:31","a725c3012b74bf33a1020a98cb69c237","186.13.97.175","Mozilla/5.0 (Windows NT 10.0; Win64; x64) AppleWebKit/537.36 (KHTML, like Gecko) Chrome/118.0.0.0 Safari/537.36","WebKit","Chrome","118.0.0.0","Windows","10.0","null","en-US,en;q=0.9,es-AR;q=0.8,es;q=0.7","true","909","tones/440hz_short.mp3","a","","","empty_block","","30","","","","0","33",""
"","","","","","html-keyboard-response","190","491327","0.0-227.0-1.0","26","1","2023-10-31 20:53:31","a725c3012b74bf33a1020a98cb69c237","186.13.97.175","Mozilla/5.0 (Windows NT 10.0; Win64; x64) AppleWebKit/537.36 (KHTML, like Gecko) Chrome/118.0.0.0 Safari/537.36","WebKit","Chrome","118.0.0.0","Windows","10.0","null","en-US,en;q=0.9,es-AR;q=0.8,es;q=0.7","true","306","tones/440hz_short.mp3","j","","","empty_block","","30","","","","0","33",""
"","","","","","html-keyboard-response","191","494165","0.0-229.0","26","1","2023-10-31 20:53:31","a725c3012b74bf33a1020a98cb69c237","186.13.97.175","Mozilla/5.0 (Windows NT 10.0; Win64; x64) AppleWebKit/537.36 (KHTML, like Gecko) Chrome/118.0.0.0 Safari/537.36","WebKit","Chrome","118.0.0.0","Windows","10.0","null","en-US,en;q=0.9,es-AR;q=0.8,es;q=0.7","true","null","<div style=""font-size:100px;"">X</div>","null","","","fixation","","","","","","","",""
"","","","","","audio-keyboard-response","192","494775","0.0-230.0","26","1","2023-10-31 20:53:31","a725c3012b74bf33a1020a98cb69c237","186.13.97.175","Mozilla/5.0 (Windows NT 10.0; Win64; x64) AppleWebKit/537.36 (KHTML, like Gecko) Chrome/118.0.0.0 Safari/537.36","WebKit","Chrome","118.0.0.0","Windows","10.0","null","en-US,en;q=0.9,es-AR;q=0.8,es;q=0.7","true","610","tones/440hz_short.mp3","a","","","tone_number_task","992.5","36","tones/440hz_short.mp3","1142.5","100","0","34",""
"","","","","","html-keyboard-response","193","495161","0.0-231.0-0.0","26","1","2023-10-31 20:53:31","a725c3012b74bf33a1020a98cb69c237","186.13.97.175","Mozilla/5.0 (Windows NT 10.0; Win64; x64) AppleWebKit/537.36 (KHTML, like Gecko) Chrome/118.0.0.0 Safari/537.36","WebKit","Chrome","118.0.0.0","Windows","10.0","null","en-US,en;q=0.9,es-AR;q=0.8,es;q=0.7","true","null","","null","","","delay_block","","","","","","0","34",""
"","","","","","html-keyboard-response","194","495317","0.0-231.0-1.0","26","1","2023-10-31 20:53:31","a725c3012b74bf33a1020a98cb69c237","186.13.97.175","Mozilla/5.0 (Windows NT 10.0; Win64; x64) AppleWebKit/537.36 (KHTML, like Gecko) Chrome/118.0.0.0 Safari/537.36","WebKit","Chrome","118.0.0.0","Windows","10.0","null","en-US,en;q=0.9,es-AR;q=0.8,es;q=0.7","true","null","<p id=""stimulus"" style=""font-size:100px;"">36</p>","null","","","tone_number_task_remaining_before_delay","","36","","532.5","100","0","34",""
"","","","","","html-keyboard-response","195","495743","0.0-234.0-0.0","26","1","2023-10-31 20:53:31","a725c3012b74bf33a1020a98cb69c237","186.13.97.175","Mozilla/5.0 (Windows NT 10.0; Win64; x64) AppleWebKit/537.36 (KHTML, like Gecko) Chrome/118.0.0.0 Safari/537.36","WebKit","Chrome","118.0.0.0","Windows","10.0","null","en-US,en;q=0.9,es-AR;q=0.8,es;q=0.7","true","422","<p id=""stimulus"" style=""font-size:100px;"">36</p>","j","","","empty_block","","36","","","","0","34",""
"","","","","","html-keyboard-response","196","498581","0.0-235.0","26","1","2023-10-31 20:53:31","a725c3012b74bf33a1020a98cb69c237","186.13.97.175","Mozilla/5.0 (Windows NT 10.0; Win64; x64) AppleWebKit/537.36 (KHTML, like Gecko) Chrome/118.0.0.0 Safari/537.36","WebKit","Chrome","118.0.0.0","Windows","10.0","null","en-US,en;q=0.9,es-AR;q=0.8,es;q=0.7","true","null","<div style=""font-size:100px;"">X</div>","null","","","fixation","","","","","","","",""
"","","","","","audio-keyboard-response","197","499632","0.0-236.0","26","1","2023-10-31 20:53:31","a725c3012b74bf33a1020a98cb69c237","186.13.97.175","Mozilla/5.0 (Windows NT 10.0; Win64; x64) AppleWebKit/537.36 (KHTML, like Gecko) Chrome/118.0.0.0 Safari/537.36","WebKit","Chrome","118.0.0.0","Windows","10.0","null","en-US,en;q=0.9,es-AR;q=0.8,es;q=0.7","true","1042","tones/440hz_short.mp3","a","","","tone_number_task","992.5","61","tones/440hz_short.mp3","1142.5","100","0","35",""
"","","","","","html-keyboard-response","198","499737","0.0-238.0-0.0","26","1","2023-10-31 20:53:31","a725c3012b74bf33a1020a98cb69c237","186.13.97.175","Mozilla/5.0 (Windows NT 10.0; Win64; x64) AppleWebKit/537.36 (KHTML, like Gecko) Chrome/118.0.0.0 Safari/537.36","WebKit","Chrome","118.0.0.0","Windows","10.0","null","en-US,en;q=0.9,es-AR;q=0.8,es;q=0.7","true","null","<p id=""stimulus"" style=""font-size:100px;"">61</p>","null","","","tone_number_task_remaining_after_delay","","61","","","100","0","35",""
"","","","","","html-keyboard-response","199","500212","0.0-240.0-0.0","26","1","2023-10-31 20:53:31","a725c3012b74bf33a1020a98cb69c237","186.13.97.175","Mozilla/5.0 (Windows NT 10.0; Win64; x64) AppleWebKit/537.36 (KHTML, like Gecko) Chrome/118.0.0.0 Safari/537.36","WebKit","Chrome","118.0.0.0","Windows","10.0","null","en-US,en;q=0.9,es-AR;q=0.8,es;q=0.7","true","471","<p id=""stimulus"" style=""font-size:100px;"">61</p>","k","","","empty_block","","61","","","","0","35",""
"","","","","","html-keyboard-response","200","503049","0.0-241.0","26","1","2023-10-31 20:53:31","a725c3012b74bf33a1020a98cb69c237","186.13.97.175","Mozilla/5.0 (Windows NT 10.0; Win64; x64) AppleWebKit/537.36 (KHTML, like Gecko) Chrome/118.0.0.0 Safari/537.36","WebKit","Chrome","118.0.0.0","Windows","10.0","null","en-US,en;q=0.9,es-AR;q=0.8,es;q=0.7","true","null","<div style=""font-size:100px;"">X</div>","null","","","fixation","","","","","","","",""
"","","","","","audio-keyboard-response","201","503640","0.0-242.0","26","1","2023-10-31 20:53:31","a725c3012b74bf33a1020a98cb69c237","186.13.97.175","Mozilla/5.0 (Windows NT 10.0; Win64; x64) AppleWebKit/537.36 (KHTML, like Gecko) Chrome/118.0.0.0 Safari/537.36","WebKit","Chrome","118.0.0.0","Windows","10.0","null","en-US,en;q=0.9,es-AR;q=0.8,es;q=0.7","true","580","tones/880hz_short.mp3","s","","","tone_number_task","1025","59","tones/880hz_short.mp3","1175","100","0","36",""
"","","","","","html-keyboard-response","202","504091","0.0-243.0-0.0","26","1","2023-10-31 20:53:31","a725c3012b74bf33a1020a98cb69c237","186.13.97.175","Mozilla/5.0 (Windows NT 10.0; Win64; x64) AppleWebKit/537.36 (KHTML, like Gecko) Chrome/118.0.0.0 Safari/537.36","WebKit","Chrome","118.0.0.0","Windows","10.0","null","en-US,en;q=0.9,es-AR;q=0.8,es;q=0.7","true","null","","null","","","delay_block","","","","","","0","36",""
"","","","","","html-keyboard-response","203","504247","0.0-243.0-1.0","26","1","2023-10-31 20:53:31","a725c3012b74bf33a1020a98cb69c237","186.13.97.175","Mozilla/5.0 (Windows NT 10.0; Win64; x64) AppleWebKit/537.36 (KHTML, like Gecko) Chrome/118.0.0.0 Safari/537.36","WebKit","Chrome","118.0.0.0","Windows","10.0","null","en-US,en;q=0.9,es-AR;q=0.8,es;q=0.7","true","null","<p id=""stimulus"" style=""font-size:100px;"">59</p>","null","","","tone_number_task_remaining_before_delay","","59","","595","100","0","36",""
"","","","","","html-keyboard-response","204","504572","0.0-246.0-0.0","26","1","2023-10-31 20:53:31","a725c3012b74bf33a1020a98cb69c237","186.13.97.175","Mozilla/5.0 (Windows NT 10.0; Win64; x64) AppleWebKit/537.36 (KHTML, like Gecko) Chrome/118.0.0.0 Safari/537.36","WebKit","Chrome","118.0.0.0","Windows","10.0","null","en-US,en;q=0.9,es-AR;q=0.8,es;q=0.7","true","321","<p id=""stimulus"" style=""font-size:100px;"">59</p>","k","","","empty_block","","59","","","","0","36",""
"","","","","","html-keyboard-response","205","507409","0.0-247.0","26","1","2023-10-31 20:53:31","a725c3012b74bf33a1020a98cb69c237","186.13.97.175","Mozilla/5.0 (Windows NT 10.0; Win64; x64) AppleWebKit/537.36 (KHTML, like Gecko) Chrome/118.0.0.0 Safari/537.36","WebKit","Chrome","118.0.0.0","Windows","10.0","null","en-US,en;q=0.9,es-AR;q=0.8,es;q=0.7","true","null","<div style=""font-size:100px;"">X</div>","null","","","fixation","","","","","","","",""
"","","","","","audio-keyboard-response","206","507566","0.0-248.0","26","1","2023-10-31 20:53:31","a725c3012b74bf33a1020a98cb69c237","186.13.97.175","Mozilla/5.0 (Windows NT 10.0; Win64; x64) AppleWebKit/537.36 (KHTML, like Gecko) Chrome/118.0.0.0 Safari/537.36","WebKit","Chrome","118.0.0.0","Windows","10.0","null","en-US,en;q=0.9,es-AR;q=0.8,es;q=0.7","true","null","tones/880hz_short.mp3","null","","","tone_number_task","0","24","tones/880hz_short.mp3","150","100","0","37",""
"","","","","","html-keyboard-response","207","508259","0.0-251.0-0.0","26","1","2023-10-31 20:53:31","a725c3012b74bf33a1020a98cb69c237","186.13.97.175","Mozilla/5.0 (Windows NT 10.0; Win64; x64) AppleWebKit/537.36 (KHTML, like Gecko) Chrome/118.0.0.0 Safari/537.36","WebKit","Chrome","118.0.0.0","Windows","10.0","null","en-US,en;q=0.9,es-AR;q=0.8,es;q=0.7","true","688","tones/880hz_short.mp3","s","","","empty_block","","24","","","","0","37",""
"","","","","","html-keyboard-response","208","508434","0.0-251.0-1.0","26","1","2023-10-31 20:53:31","a725c3012b74bf33a1020a98cb69c237","186.13.97.175","Mozilla/5.0 (Windows NT 10.0; Win64; x64) AppleWebKit/537.36 (KHTML, like Gecko) Chrome/118.0.0.0 Safari/537.36","WebKit","Chrome","118.0.0.0","Windows","10.0","null","en-US,en;q=0.9,es-AR;q=0.8,es;q=0.7","true","169","tones/880hz_short.mp3","j","","","empty_block","","24","","","","0","37",""
"","","","","","html-keyboard-response","209","511271","0.0-253.0","26","1","2023-10-31 20:53:31","a725c3012b74bf33a1020a98cb69c237","186.13.97.175","Mozilla/5.0 (Windows NT 10.0; Win64; x64) AppleWebKit/537.36 (KHTML, like Gecko) Chrome/118.0.0.0 Safari/537.36","WebKit","Chrome","118.0.0.0","Windows","10.0","null","en-US,en;q=0.9,es-AR;q=0.8,es;q=0.7","true","null","<div style=""font-size:100px;"">X</div>","null","","","fixation","","","","","","","",""
"","","","","","audio-keyboard-response","210","511529","0.0-254.0","26","1","2023-10-31 20:53:31","a725c3012b74bf33a1020a98cb69c237","186.13.97.175","Mozilla/5.0 (Windows NT 10.0; Win64; x64) AppleWebKit/537.36 (KHTML, like Gecko) Chrome/118.0.0.0 Safari/537.36","WebKit","Chrome","118.0.0.0","Windows","10.0","null","en-US,en;q=0.9,es-AR;q=0.8,es;q=0.7","true","null","tones/880hz_short.mp3","null","","","tone_number_task","102.5","59","tones/880hz_short.mp3","252.5","100","0","38",""
