"success","timeout","failed_images","failed_audio","failed_video","trial_type","trial_index","time_elapsed","internal_node_id","run_id","condition","recorded_at","source_code_version","ip","user_agent","device","browser","browser_version","platform","platform_version","referer","accept_language","check","rt","stimulus","response","question_order","url","task","delay","number","audioFile","trial_duration","font_size","block","round","value"
"true","false","[]","[]","[]","preload","0","413","0.0-0.0","51","1","2023-11-01 10:57:21","a725c3012b74bf33a1020a98cb69c237","181.164.121.216","Mozilla/5.0 (Macintosh; Intel Mac OS X 10_15_7) AppleWebKit/537.36 (KHTML, like Gecko) Chrome/118.0.0.0 Safari/537.36","Macintosh","Chrome","118.0.0.0","OS X","10_15_7","null","es-US,es-419;q=0.9,es;q=0.8","true","","","","","","","","","","","","","",""
"true","","","","","fullscreen","1","13759","0.0-1.0","51","1","2023-11-01 10:57:21","a725c3012b74bf33a1020a98cb69c237","181.164.121.216","Mozilla/5.0 (Macintosh; Intel Mac OS X 10_15_7) AppleWebKit/537.36 (KHTML, like Gecko) Chrome/118.0.0.0 Safari/537.36","Macintosh","Chrome","118.0.0.0","OS X","10_15_7","null","es-US,es-419;q=0.9,es;q=0.8","true","","","","","","","","","","","","","",""
"","","","","","html-button-response","2","16757","0.0-2.0","51","1","2023-11-01 10:57:21","a725c3012b74bf33a1020a98cb69c237","181.164.121.216","Mozilla/5.0 (Macintosh; Intel Mac OS X 10_15_7) AppleWebKit/537.36 (KHTML, like Gecko) Chrome/118.0.0.0 Safari/537.36","Macintosh","Chrome","118.0.0.0","OS X","10_15_7","null","es-US,es-419;q=0.9,es;q=0.8","true","2997","<p style=""font-size:24px; color:red;"">Cosas importantes a tener en cuenta antes de comenzar el experimento:</p>","0","","","","","","","","","","",""
"","","","","","html-button-response","3","78270","0.0-3.0","51","1","2023-11-01 10:57:21","a725c3012b74bf33a1020a98cb69c237","181.164.121.216","Mozilla/5.0 (Macintosh; Intel Mac OS X 10_15_7) AppleWebKit/537.36 (KHTML, like Gecko) Chrome/118.0.0.0 Safari/537.36","Macintosh","Chrome","118.0.0.0","OS X","10_15_7","null","es-US,es-419;q=0.9,es;q=0.8","true","61512","<p style=""font-size:24px;"">El experimento dura aproximadamente 15 minutos.</p><p style=""font-size:24px;"">Por favor, no cierres la ventana del navegador durante el experimento.</p><p style=""font-size:24px;"">Si se completa de forma parcial, no se guardará ningún resultado.</p>","0","","","","","","","","","","",""
"","","","","","html-button-response","4","92324","0.0-4.0","51","1","2023-11-01 10:57:21","a725c3012b74bf33a1020a98cb69c237","181.164.121.216","Mozilla/5.0 (Macintosh; Intel Mac OS X 10_15_7) AppleWebKit/537.36 (KHTML, like Gecko) Chrome/118.0.0.0 Safari/537.36","Macintosh","Chrome","118.0.0.0","OS X","10_15_7","null","es-US,es-419;q=0.9,es;q=0.8","true","14053","<p style=""font-size:24px;"">El experimento contiene estímulos sonoros.</p>","0","","","","","","","","","","",""
"","","","","","audio-button-response","5","98691","0.0-5.0-0.0","51","1","2023-11-01 10:57:21","a725c3012b74bf33a1020a98cb69c237","181.164.121.216","Mozilla/5.0 (Macintosh; Intel Mac OS X 10_15_7) AppleWebKit/537.36 (KHTML, like Gecko) Chrome/118.0.0.0 Safari/537.36","Macintosh","Chrome","118.0.0.0","OS X","10_15_7","null","es-US,es-419;q=0.9,es;q=0.8","true","6293","tones/440hz_short.mp3","0","","","","","","","","","","",""
"","","","","","audio-button-response","6","103451","0.0-5.1-0.1","51","1","2023-11-01 10:57:21","a725c3012b74bf33a1020a98cb69c237","181.164.121.216","Mozilla/5.0 (Macintosh; Intel Mac OS X 10_15_7) AppleWebKit/537.36 (KHTML, like Gecko) Chrome/118.0.0.0 Safari/537.36","Macintosh","Chrome","118.0.0.0","OS X","10_15_7","null","es-US,es-419;q=0.9,es;q=0.8","true","4757","tones/440hz_short.mp3","0","","","","","","","","","","",""
"","","","","","audio-button-response","7","107772","0.0-5.2-0.2","51","1","2023-11-01 10:57:21","a725c3012b74bf33a1020a98cb69c237","181.164.121.216","Mozilla/5.0 (Macintosh; Intel Mac OS X 10_15_7) AppleWebKit/537.36 (KHTML, like Gecko) Chrome/118.0.0.0 Safari/537.36","Macintosh","Chrome","118.0.0.0","OS X","10_15_7","null","es-US,es-419;q=0.9,es;q=0.8","true","4320","tones/440hz_short.mp3","1","","","","","","","","","","",""
"","","","","","audio-button-response","8","112972","0.0-6.0-0.0","51","1","2023-11-01 10:57:21","a725c3012b74bf33a1020a98cb69c237","181.164.121.216","Mozilla/5.0 (Macintosh; Intel Mac OS X 10_15_7) AppleWebKit/537.36 (KHTML, like Gecko) Chrome/118.0.0.0 Safari/537.36","Macintosh","Chrome","118.0.0.0","OS X","10_15_7","null","es-US,es-419;q=0.9,es;q=0.8","true","5200","tones/880hz_short.mp3","1","","","","","","","","","","",""
"","","","","","survey-html-form","9","116620","0.0-7.0","51","1","2023-11-01 10:57:21","a725c3012b74bf33a1020a98cb69c237","181.164.121.216","Mozilla/5.0 (Macintosh; Intel Mac OS X 10_15_7) AppleWebKit/537.36 (KHTML, like Gecko) Chrome/118.0.0.0 Safari/537.36","Macintosh","Chrome","118.0.0.0","OS X","10_15_7","null","es-US,es-419;q=0.9,es;q=0.8","true","3642","","{""response"":""45""}","","","","","","","","","","",""
"","","","","","survey-multi-choice","10","122842","0.0-8.0","51","1","2023-11-01 10:57:21","a725c3012b74bf33a1020a98cb69c237","181.164.121.216","Mozilla/5.0 (Macintosh; Intel Mac OS X 10_15_7) AppleWebKit/537.36 (KHTML, like Gecko) Chrome/118.0.0.0 Safari/537.36","Macintosh","Chrome","118.0.0.0","OS X","10_15_7","null","es-US,es-419;q=0.9,es;q=0.8","true","6217","","{""gender"":""Mujer"",""hand"":""Derecha""}","[0,1]","","","","","","","","","",""
"","","","","","external-html","11","195413","0.0-9.0","51","1","2023-11-01 10:57:21","a725c3012b74bf33a1020a98cb69c237","181.164.121.216","Mozilla/5.0 (Macintosh; Intel Mac OS X 10_15_7) AppleWebKit/537.36 (KHTML, like Gecko) Chrome/118.0.0.0 Safari/537.36","Macintosh","Chrome","118.0.0.0","OS X","10_15_7","null","es-US,es-419;q=0.9,es;q=0.8","true","72223","","","","instructions/instructions.html","","","","","","","","",""
"","","","","","external-html","12","248142","0.0-10.0","51","1","2023-11-01 10:57:21","a725c3012b74bf33a1020a98cb69c237","181.164.121.216","Mozilla/5.0 (Macintosh; Intel Mac OS X 10_15_7) AppleWebKit/537.36 (KHTML, like Gecko) Chrome/118.0.0.0 Safari/537.36","Macintosh","Chrome","118.0.0.0","OS X","10_15_7","null","es-US,es-419;q=0.9,es;q=0.8","true","52403","","","","instructions/animation.html","","","","","","","","",""
"","","","","","html-keyboard-response","13","250975","0.0-11.0-0.0","51","1","2023-11-01 10:57:21","a725c3012b74bf33a1020a98cb69c237","181.164.121.216","Mozilla/5.0 (Macintosh; Intel Mac OS X 10_15_7) AppleWebKit/537.36 (KHTML, like Gecko) Chrome/118.0.0.0 Safari/537.36","Macintosh","Chrome","118.0.0.0","OS X","10_15_7","null","es-US,es-419;q=0.9,es;q=0.8","true","null","<div style=""font-size:100px;"">X</div>","null","","","fixation","","","","","","","",""
"","","","","","audio-keyboard-response","14","251721","0.0-11.0-1.0","51","1","2023-11-01 10:57:21","a725c3012b74bf33a1020a98cb69c237","181.164.121.216","Mozilla/5.0 (Macintosh; Intel Mac OS X 10_15_7) AppleWebKit/537.36 (KHTML, like Gecko) Chrome/118.0.0.0 Safari/537.36","Macintosh","Chrome","118.0.0.0","OS X","10_15_7","null","es-US,es-419;q=0.9,es;q=0.8","true","677","tones/440hz_short.mp3","a","","","tone_number_task","1000","59","tones/440hz_short.mp3","1150","100","null","null",""
"","","","","","html-keyboard-response","15","252047","0.0-11.0-2.0-0.0","51","1","2023-11-01 10:57:21","a725c3012b74bf33a1020a98cb69c237","181.164.121.216","Mozilla/5.0 (Macintosh; Intel Mac OS X 10_15_7) AppleWebKit/537.36 (KHTML, like Gecko) Chrome/118.0.0.0 Safari/537.36","Macintosh","Chrome","118.0.0.0","OS X","10_15_7","null","es-US,es-419;q=0.9,es;q=0.8","true","null","","null","","","delay_block","","","","","","null","null",""
"","","","","","html-keyboard-response","16","252199","0.0-11.0-2.0-1.0","51","1","2023-11-01 10:57:21","a725c3012b74bf33a1020a98cb69c237","181.164.121.216","Mozilla/5.0 (Macintosh; Intel Mac OS X 10_15_7) AppleWebKit/537.36 (KHTML, like Gecko) Chrome/118.0.0.0 Safari/537.36","Macintosh","Chrome","118.0.0.0","OS X","10_15_7","null","es-US,es-419;q=0.9,es;q=0.8","true","null","<p id=""stimulus"" style=""font-size:100px;"">59</p>","null","","","tone_number_task_remaining_before_delay","","59","","473","100","null","null",""
"","","","","","html-keyboard-response","17","252999","0.0-11.0-5.0-0.0","51","1","2023-11-01 10:57:21","a725c3012b74bf33a1020a98cb69c237","181.164.121.216","Mozilla/5.0 (Macintosh; Intel Mac OS X 10_15_7) AppleWebKit/537.36 (KHTML, like Gecko) Chrome/118.0.0.0 Safari/537.36","Macintosh","Chrome","118.0.0.0","OS X","10_15_7","null","es-US,es-419;q=0.9,es;q=0.8","true","799","<p id=""stimulus"" style=""font-size:100px;"">59</p>","k","","","empty_block","","59","","","","null","null",""
"","","","","","html-keyboard-response","18","255834","0.0-13.0-0.0","51","1","2023-11-01 10:57:21","a725c3012b74bf33a1020a98cb69c237","181.164.121.216","Mozilla/5.0 (Macintosh; Intel Mac OS X 10_15_7) AppleWebKit/537.36 (KHTML, like Gecko) Chrome/118.0.0.0 Safari/537.36","Macintosh","Chrome","118.0.0.0","OS X","10_15_7","null","es-US,es-419;q=0.9,es;q=0.8","true","null","<div style=""font-size:100px;"">X</div>","null","","","fixation","","","","","","","",""
"","","","","","audio-keyboard-response","19","256250","0.0-13.0-1.0","51","1","2023-11-01 10:57:21","a725c3012b74bf33a1020a98cb69c237","181.164.121.216","Mozilla/5.0 (Macintosh; Intel Mac OS X 10_15_7) AppleWebKit/537.36 (KHTML, like Gecko) Chrome/118.0.0.0 Safari/537.36","Macintosh","Chrome","118.0.0.0","OS X","10_15_7","null","es-US,es-419;q=0.9,es;q=0.8","true","416","tones/880hz_short.mp3","a","","","tone_number_task","500","29","tones/880hz_short.mp3","650","100","null","null",""
"","","","","","html-keyboard-response","20","256340","0.0-13.0-2.0-0.0","51","1","2023-11-01 10:57:21","a725c3012b74bf33a1020a98cb69c237","181.164.121.216","Mozilla/5.0 (Macintosh; Intel Mac OS X 10_15_7) AppleWebKit/537.36 (KHTML, like Gecko) Chrome/118.0.0.0 Safari/537.36","Macintosh","Chrome","118.0.0.0","OS X","10_15_7","null","es-US,es-419;q=0.9,es;q=0.8","true","null","","null","","","delay_block","","","","","","null","null",""
"","","","","","html-keyboard-response","21","256492","0.0-13.0-2.0-1.0","51","1","2023-11-01 10:57:21","a725c3012b74bf33a1020a98cb69c237","181.164.121.216","Mozilla/5.0 (Macintosh; Intel Mac OS X 10_15_7) AppleWebKit/537.36 (KHTML, like Gecko) Chrome/118.0.0.0 Safari/537.36","Macintosh","Chrome","118.0.0.0","OS X","10_15_7","null","es-US,es-419;q=0.9,es;q=0.8","true","null","<p id=""stimulus"" style=""font-size:100px;"">29</p>","null","","","tone_number_task_remaining_before_delay","","29","","234","100","null","null",""
"","","","","","html-keyboard-response","22","257641","0.0-13.0-5.0-0.0","51","1","2023-11-01 10:57:21","a725c3012b74bf33a1020a98cb69c237","181.164.121.216","Mozilla/5.0 (Macintosh; Intel Mac OS X 10_15_7) AppleWebKit/537.36 (KHTML, like Gecko) Chrome/118.0.0.0 Safari/537.36","Macintosh","Chrome","118.0.0.0","OS X","10_15_7","null","es-US,es-419;q=0.9,es;q=0.8","true","1147","<p id=""stimulus"" style=""font-size:100px;"">29</p>","j","","","empty_block","","29","","","","null","null",""
"","","","","","html-button-response","23","263217","0.0-13.0-6.0-0.0","51","1","2023-11-01 10:57:21","a725c3012b74bf33a1020a98cb69c237","181.164.121.216","Mozilla/5.0 (Macintosh; Intel Mac OS X 10_15_7) AppleWebKit/537.36 (KHTML, like Gecko) Chrome/118.0.0.0 Safari/537.36","Macintosh","Chrome","118.0.0.0","OS X","10_15_7","null","es-US,es-419;q=0.9,es;q=0.8","true","5575","
  '<p style=""font-size:24px; color:red;"">Incorrecto</p><p> Respondiste alguno de los estímulos de manera incorrecta.</p><p>Por favor, repasá las instrucciones y seguimos desde donde nos quedamos. </p>
  ","0","","","","","","","","","","",""
"","","","","","external-html","24","273505","0.0-13.0-6.0-1.0","51","1","2023-11-01 10:57:21","a725c3012b74bf33a1020a98cb69c237","181.164.121.216","Mozilla/5.0 (Macintosh; Intel Mac OS X 10_15_7) AppleWebKit/537.36 (KHTML, like Gecko) Chrome/118.0.0.0 Safari/537.36","Macintosh","Chrome","118.0.0.0","OS X","10_15_7","null","es-US,es-419;q=0.9,es;q=0.8","true","9983","","","","instructions/instructions_B.html","","","","","","","","",""
"","","","","","html-keyboard-response","25","276339","0.0-13.1-0.1","51","1","2023-11-01 10:57:21","a725c3012b74bf33a1020a98cb69c237","181.164.121.216","Mozilla/5.0 (Macintosh; Intel Mac OS X 10_15_7) AppleWebKit/537.36 (KHTML, like Gecko) Chrome/118.0.0.0 Safari/537.36","Macintosh","Chrome","118.0.0.0","OS X","10_15_7","null","es-US,es-419;q=0.9,es;q=0.8","true","null","<div style=""font-size:100px;"">X</div>","null","","","fixation","","","","","","","",""
"","","","","","audio-keyboard-response","26","276995","0.0-13.1-1.1","51","1","2023-11-01 10:57:21","a725c3012b74bf33a1020a98cb69c237","181.164.121.216","Mozilla/5.0 (Macintosh; Intel Mac OS X 10_15_7) AppleWebKit/537.36 (KHTML, like Gecko) Chrome/118.0.0.0 Safari/537.36","Macintosh","Chrome","118.0.0.0","OS X","10_15_7","null","es-US,es-419;q=0.9,es;q=0.8","true","null","tones/880hz_short.mp3","null","","","tone_number_task","500","29","tones/880hz_short.mp3","650","100","null","null",""
"","","","","","html-keyboard-response","27","277102","0.0-13.1-4.1-0.1","51","1","2023-11-01 10:57:21","a725c3012b74bf33a1020a98cb69c237","181.164.121.216","Mozilla/5.0 (Macintosh; Intel Mac OS X 10_15_7) AppleWebKit/537.36 (KHTML, like Gecko) Chrome/118.0.0.0 Safari/537.36","Macintosh","Chrome","118.0.0.0","OS X","10_15_7","null","es-US,es-419;q=0.9,es;q=0.8","true","107","tones/880hz_short.mp3","s","","","empty_block","","29","","","","null","null",""
"","","","","","html-keyboard-response","28","278182","0.0-13.1-4.1-1.1","51","1","2023-11-01 10:57:21","a725c3012b74bf33a1020a98cb69c237","181.164.121.216","Mozilla/5.0 (Macintosh; Intel Mac OS X 10_15_7) AppleWebKit/537.36 (KHTML, like Gecko) Chrome/118.0.0.0 Safari/537.36","Macintosh","Chrome","118.0.0.0","OS X","10_15_7","null","es-US,es-419;q=0.9,es;q=0.8","true","1079","tones/880hz_short.mp3","j","","","empty_block","","29","","","","null","null",""
"","","","","","html-keyboard-response","29","281014","0.0-15.0-0.0","51","1","2023-11-01 10:57:21","a725c3012b74bf33a1020a98cb69c237","181.164.121.216","Mozilla/5.0 (Macintosh; Intel Mac OS X 10_15_7) AppleWebKit/537.36 (KHTML, like Gecko) Chrome/118.0.0.0 Safari/537.36","Macintosh","Chrome","118.0.0.0","OS X","10_15_7","null","es-US,es-419;q=0.9,es;q=0.8","true","null","<div style=""font-size:100px;"">X</div>","null","","","fixation","","","","","","","",""
"","","","","","audio-keyboard-response","30","281320","0.0-15.0-1.0","51","1","2023-11-01 10:57:21","a725c3012b74bf33a1020a98cb69c237","181.164.121.216","Mozilla/5.0 (Macintosh; Intel Mac OS X 10_15_7) AppleWebKit/537.36 (KHTML, like Gecko) Chrome/118.0.0.0 Safari/537.36","Macintosh","Chrome","118.0.0.0","OS X","10_15_7","null","es-US,es-419;q=0.9,es;q=0.8","true","null","tones/880hz_short.mp3","null","","","tone_number_task","150","33","tones/880hz_short.mp3","300","100","null","null",""
"","","","","","html-keyboard-response","31","281938","0.0-15.0-4.0-0.0","51","1","2023-11-01 10:57:21","a725c3012b74bf33a1020a98cb69c237","181.164.121.216","Mozilla/5.0 (Macintosh; Intel Mac OS X 10_15_7) AppleWebKit/537.36 (KHTML, like Gecko) Chrome/118.0.0.0 Safari/537.36","Macintosh","Chrome","118.0.0.0","OS X","10_15_7","null","es-US,es-419;q=0.9,es;q=0.8","true","617","tones/880hz_short.mp3","s","","","empty_block","","33","","","","null","null",""
"","","","","","html-keyboard-response","32","283081","0.0-15.0-4.0-1.0","51","1","2023-11-01 10:57:21","a725c3012b74bf33a1020a98cb69c237","181.164.121.216","Mozilla/5.0 (Macintosh; Intel Mac OS X 10_15_7) AppleWebKit/537.36 (KHTML, like Gecko) Chrome/118.0.0.0 Safari/537.36","Macintosh","Chrome","118.0.0.0","OS X","10_15_7","null","es-US,es-419;q=0.9,es;q=0.8","true","1142","tones/880hz_short.mp3","j","","","empty_block","","33","","","","null","null",""
"","","","","","html-keyboard-response","33","285911","0.0-17.0-0.0","51","1","2023-11-01 10:57:21","a725c3012b74bf33a1020a98cb69c237","181.164.121.216","Mozilla/5.0 (Macintosh; Intel Mac OS X 10_15_7) AppleWebKit/537.36 (KHTML, like Gecko) Chrome/118.0.0.0 Safari/537.36","Macintosh","Chrome","118.0.0.0","OS X","10_15_7","null","es-US,es-419;q=0.9,es;q=0.8","true","null","<div style=""font-size:100px;"">X</div>","null","","","fixation","","","","","","","",""
"","","","","","audio-keyboard-response","34","286114","0.0-17.0-1.0","51","1","2023-11-01 10:57:21","a725c3012b74bf33a1020a98cb69c237","181.164.121.216","Mozilla/5.0 (Macintosh; Intel Mac OS X 10_15_7) AppleWebKit/537.36 (KHTML, like Gecko) Chrome/118.0.0.0 Safari/537.36","Macintosh","Chrome","118.0.0.0","OS X","10_15_7","null","es-US,es-419;q=0.9,es;q=0.8","true","null","tones/440hz_short.mp3","null","","","tone_number_task","50","58","tones/440hz_short.mp3","200","100","null","null",""
"","","","","","html-keyboard-response","35","286652","0.0-17.0-4.0-0.0","51","1","2023-11-01 10:57:21","a725c3012b74bf33a1020a98cb69c237","181.164.121.216","Mozilla/5.0 (Macintosh; Intel Mac OS X 10_15_7) AppleWebKit/537.36 (KHTML, like Gecko) Chrome/118.0.0.0 Safari/537.36","Macintosh","Chrome","118.0.0.0","OS X","10_15_7","null","es-US,es-419;q=0.9,es;q=0.8","true","537","tones/440hz_short.mp3","a","","","empty_block","","58","","","","null","null",""
"","","","","","html-keyboard-response","36","287230","0.0-17.0-4.0-1.0","51","1","2023-11-01 10:57:21","a725c3012b74bf33a1020a98cb69c237","181.164.121.216","Mozilla/5.0 (Macintosh; Intel Mac OS X 10_15_7) AppleWebKit/537.36 (KHTML, like Gecko) Chrome/118.0.0.0 Safari/537.36","Macintosh","Chrome","118.0.0.0","OS X","10_15_7","null","es-US,es-419;q=0.9,es;q=0.8","true","577","tones/440hz_short.mp3","k","","","empty_block","","58","","","","null","null",""
"","","","","","html-button-response","37","301512","0.0-19.0","51","1","2023-11-01 10:57:21","a725c3012b74bf33a1020a98cb69c237","181.164.121.216","Mozilla/5.0 (Macintosh; Intel Mac OS X 10_15_7) AppleWebKit/537.36 (KHTML, like Gecko) Chrome/118.0.0.0 Safari/537.36","Macintosh","Chrome","118.0.0.0","OS X","10_15_7","null","es-US,es-419;q=0.9,es;q=0.8","true","14281","
  <h1> Muy bien </h1>
  <p> Ahora, en vez de ser presentados en dígitos, los números vendrán escritos en palabras. </p>
  <p> Por ejemplo, en vez de 44 te aparecerá ""cuarenta y cuatro"". </p>
  ","0","","","","","","","","","","",""
"","","","","","html-keyboard-response","38","304348","0.0-20.0-0.0","51","1","2023-11-01 10:57:21","a725c3012b74bf33a1020a98cb69c237","181.164.121.216","Mozilla/5.0 (Macintosh; Intel Mac OS X 10_15_7) AppleWebKit/537.36 (KHTML, like Gecko) Chrome/118.0.0.0 Safari/537.36","Macintosh","Chrome","118.0.0.0","OS X","10_15_7","null","es-US,es-419;q=0.9,es;q=0.8","true","null","<div style=""font-size:100px;"">X</div>","null","","","fixation","","","","","","","",""
"","","","","","audio-keyboard-response","39","304967","0.0-20.0-1.0","51","1","2023-11-01 10:57:21","a725c3012b74bf33a1020a98cb69c237","181.164.121.216","Mozilla/5.0 (Macintosh; Intel Mac OS X 10_15_7) AppleWebKit/537.36 (KHTML, like Gecko) Chrome/118.0.0.0 Safari/537.36","Macintosh","Chrome","118.0.0.0","OS X","10_15_7","null","es-US,es-419;q=0.9,es;q=0.8","true","619","tones/880hz_short.mp3","a","","","tone_number_task","1000","sesenta","tones/880hz_short.mp3","1150","60","null","null",""
"","","","","","html-keyboard-response","40","305355","0.0-20.0-2.0-0.0","51","1","2023-11-01 10:57:21","a725c3012b74bf33a1020a98cb69c237","181.164.121.216","Mozilla/5.0 (Macintosh; Intel Mac OS X 10_15_7) AppleWebKit/537.36 (KHTML, like Gecko) Chrome/118.0.0.0 Safari/537.36","Macintosh","Chrome","118.0.0.0","OS X","10_15_7","null","es-US,es-419;q=0.9,es;q=0.8","true","null","","null","","","delay_block","","","","","","null","null",""
"","","","","","html-keyboard-response","41","305514","0.0-20.0-2.0-1.0","51","1","2023-11-01 10:57:21","a725c3012b74bf33a1020a98cb69c237","181.164.121.216","Mozilla/5.0 (Macintosh; Intel Mac OS X 10_15_7) AppleWebKit/537.36 (KHTML, like Gecko) Chrome/118.0.0.0 Safari/537.36","Macintosh","Chrome","118.0.0.0","OS X","10_15_7","null","es-US,es-419;q=0.9,es;q=0.8","true","null","<p id=""stimulus"" style=""font-size:60px;"">sesenta</p>","null","","","tone_number_task_remaining_before_delay","","sesenta","","531","60","null","null",""
"","","","","","html-keyboard-response","42","306982","0.0-20.0-5.0-0.0","51","1","2023-11-01 10:57:21","a725c3012b74bf33a1020a98cb69c237","181.164.121.216","Mozilla/5.0 (Macintosh; Intel Mac OS X 10_15_7) AppleWebKit/537.36 (KHTML, like Gecko) Chrome/118.0.0.0 Safari/537.36","Macintosh","Chrome","118.0.0.0","OS X","10_15_7","null","es-US,es-419;q=0.9,es;q=0.8","true","1465","<p id=""stimulus"" style=""font-size:60px;"">sesenta</p>","k","","","empty_block","","sesenta","","","","null","null",""
"","","","","","html-button-response","43","310752","0.0-20.0-6.0-0.0","51","1","2023-11-01 10:57:21","a725c3012b74bf33a1020a98cb69c237","181.164.121.216","Mozilla/5.0 (Macintosh; Intel Mac OS X 10_15_7) AppleWebKit/537.36 (KHTML, like Gecko) Chrome/118.0.0.0 Safari/537.36","Macintosh","Chrome","118.0.0.0","OS X","10_15_7","null","es-US,es-419;q=0.9,es;q=0.8","true","3768","
  '<p style=""font-size:24px; color:red;"">Incorrecto</p><p> Respondiste alguno de los estímulos de manera incorrecta.</p><p>Por favor, repasá las instrucciones y seguimos desde donde nos quedamos. </p>
  ","0","","","","","","","","","","",""
"","","","","","external-html","44","314300","0.0-20.0-6.0-1.0","51","1","2023-11-01 10:57:21","a725c3012b74bf33a1020a98cb69c237","181.164.121.216","Mozilla/5.0 (Macintosh; Intel Mac OS X 10_15_7) AppleWebKit/537.36 (KHTML, like Gecko) Chrome/118.0.0.0 Safari/537.36","Macintosh","Chrome","118.0.0.0","OS X","10_15_7","null","es-US,es-419;q=0.9,es;q=0.8","true","3195","","","","instructions/instructions_B.html","","","","","","","","",""
"","","","","","html-keyboard-response","45","317138","0.0-20.1-0.1","51","1","2023-11-01 10:57:21","a725c3012b74bf33a1020a98cb69c237","181.164.121.216","Mozilla/5.0 (Macintosh; Intel Mac OS X 10_15_7) AppleWebKit/537.36 (KHTML, like Gecko) Chrome/118.0.0.0 Safari/537.36","Macintosh","Chrome","118.0.0.0","OS X","10_15_7","null","es-US,es-419;q=0.9,es;q=0.8","true","null","<div style=""font-size:100px;"">X</div>","null","","","fixation","","","","","","","",""
"","","","","","audio-keyboard-response","46","317825","0.0-20.1-1.1","51","1","2023-11-01 10:57:21","a725c3012b74bf33a1020a98cb69c237","181.164.121.216","Mozilla/5.0 (Macintosh; Intel Mac OS X 10_15_7) AppleWebKit/537.36 (KHTML, like Gecko) Chrome/118.0.0.0 Safari/537.36","Macintosh","Chrome","118.0.0.0","OS X","10_15_7","null","es-US,es-419;q=0.9,es;q=0.8","true","688","tones/880hz_short.mp3","s","","","tone_number_task","1000","sesenta","tones/880hz_short.mp3","1150","60","null","null",""
"","","","","","html-keyboard-response","47","318139","0.0-20.1-2.1-0.1","51","1","2023-11-01 10:57:21","a725c3012b74bf33a1020a98cb69c237","181.164.121.216","Mozilla/5.0 (Macintosh; Intel Mac OS X 10_15_7) AppleWebKit/537.36 (KHTML, like Gecko) Chrome/118.0.0.0 Safari/537.36","Macintosh","Chrome","118.0.0.0","OS X","10_15_7","null","es-US,es-419;q=0.9,es;q=0.8","true","null","","null","","","delay_block","","","","","","null","null",""
"","","","","","html-keyboard-response","48","318296","0.0-20.1-2.1-1.1","51","1","2023-11-01 10:57:21","a725c3012b74bf33a1020a98cb69c237","181.164.121.216","Mozilla/5.0 (Macintosh; Intel Mac OS X 10_15_7) AppleWebKit/537.36 (KHTML, like Gecko) Chrome/118.0.0.0 Safari/537.36","Macintosh","Chrome","118.0.0.0","OS X","10_15_7","null","es-US,es-419;q=0.9,es;q=0.8","true","null","<p id=""stimulus"" style=""font-size:60px;"">sesenta</p>","null","","","tone_number_task_remaining_before_delay","","sesenta","","462","60","null","null",""
"","","","","","html-keyboard-response","49","318911","0.0-20.1-5.1-0.1","51","1","2023-11-01 10:57:21","a725c3012b74bf33a1020a98cb69c237","181.164.121.216","Mozilla/5.0 (Macintosh; Intel Mac OS X 10_15_7) AppleWebKit/537.36 (KHTML, like Gecko) Chrome/118.0.0.0 Safari/537.36","Macintosh","Chrome","118.0.0.0","OS X","10_15_7","null","es-US,es-419;q=0.9,es;q=0.8","true","614","<p id=""stimulus"" style=""font-size:60px;"">sesenta</p>","k","","","empty_block","","sesenta","","","","null","null",""
"","","","","","html-button-response","50","333371","0.0-22.0","51","1","2023-11-01 10:57:21","a725c3012b74bf33a1020a98cb69c237","181.164.121.216","Mozilla/5.0 (Macintosh; Intel Mac OS X 10_15_7) AppleWebKit/537.36 (KHTML, like Gecko) Chrome/118.0.0.0 Safari/537.36","Macintosh","Chrome","118.0.0.0","OS X","10_15_7","null","es-US,es-419;q=0.9,es;q=0.8","true","14458","
  <h1> Fin del Entrenamiento </h1>
  <p> ¡Felicitaciones, terminaste el entrenamiento! Ahora vamos a comenzar con el experimento. </p>
  <p> Es importante tener en cuenta que consta de cuatro bloques.</p>
  <p> Podés aprovechar los momentos entre bloques para tomar un breve descanso o tomar agua entre cada uno</p>
  <p> Recordá que tenés que responder lo más rápido que puedas, pero sin equivocarte. </p>
  ","0","","","","","","","","","","",""
"","","","","","external-html","51","339553","0.0-23.0","51","1","2023-11-01 10:57:21","a725c3012b74bf33a1020a98cb69c237","181.164.121.216","Mozilla/5.0 (Macintosh; Intel Mac OS X 10_15_7) AppleWebKit/537.36 (KHTML, like Gecko) Chrome/118.0.0.0 Safari/537.36","Macintosh","Chrome","118.0.0.0","OS X","10_15_7","null","es-US,es-419;q=0.9,es;q=0.8","true","5839","","","","instructions/instructions_words_first.html","","","","","","","","",""
"","","","","","call-function","52","339557","0.0-24.0","51","1","2023-11-01 10:57:21","a725c3012b74bf33a1020a98cb69c237","181.164.121.216","Mozilla/5.0 (Macintosh; Intel Mac OS X 10_15_7) AppleWebKit/537.36 (KHTML, like Gecko) Chrome/118.0.0.0 Safari/537.36","Macintosh","Chrome","118.0.0.0","OS X","10_15_7","null","es-US,es-419;q=0.9,es;q=0.8","true","","","","","","","","","","","","","",""
"","","","","","html-keyboard-response","53","342394","0.0-25.0","51","1","2023-11-01 10:57:21","a725c3012b74bf33a1020a98cb69c237","181.164.121.216","Mozilla/5.0 (Macintosh; Intel Mac OS X 10_15_7) AppleWebKit/537.36 (KHTML, like Gecko) Chrome/118.0.0.0 Safari/537.36","Macintosh","Chrome","118.0.0.0","OS X","10_15_7","null","es-US,es-419;q=0.9,es;q=0.8","true","null","<div style=""font-size:100px;"">X</div>","null","","","fixation","","","","","","","",""
"","","","","","audio-keyboard-response","54","343061","0.0-26.0","51","1","2023-11-01 10:57:21","a725c3012b74bf33a1020a98cb69c237","181.164.121.216","Mozilla/5.0 (Macintosh; Intel Mac OS X 10_15_7) AppleWebKit/537.36 (KHTML, like Gecko) Chrome/118.0.0.0 Safari/537.36","Macintosh","Chrome","118.0.0.0","OS X","10_15_7","null","es-US,es-419;q=0.9,es;q=0.8","true","667","tones/880hz_short.mp3","s","","","tone_number_task","992.5","treinta y tres","tones/880hz_short.mp3","1142.5","60","2","0",""
"","","","","","html-keyboard-response","55","343391","0.0-27.0-0.0","51","1","2023-11-01 10:57:21","a725c3012b74bf33a1020a98cb69c237","181.164.121.216","Mozilla/5.0 (Macintosh; Intel Mac OS X 10_15_7) AppleWebKit/537.36 (KHTML, like Gecko) Chrome/118.0.0.0 Safari/537.36","Macintosh","Chrome","118.0.0.0","OS X","10_15_7","null","es-US,es-419;q=0.9,es;q=0.8","true","null","","null","","","delay_block","","","","","","2","0",""
"","","","","","html-keyboard-response","56","343551","0.0-27.0-1.0","51","1","2023-11-01 10:57:21","a725c3012b74bf33a1020a98cb69c237","181.164.121.216","Mozilla/5.0 (Macintosh; Intel Mac OS X 10_15_7) AppleWebKit/537.36 (KHTML, like Gecko) Chrome/118.0.0.0 Safari/537.36","Macintosh","Chrome","118.0.0.0","OS X","10_15_7","null","es-US,es-419;q=0.9,es;q=0.8","true","null","<p id=""stimulus"" style=""font-size:60px;"">treinta y tres</p>","null","","","tone_number_task_remaining_before_delay","","treinta y tres","","475.5","60","2","0",""
"","","","","","html-keyboard-response","57","344374","0.0-30.0-0.0","51","1","2023-11-01 10:57:21","a725c3012b74bf33a1020a98cb69c237","181.164.121.216","Mozilla/5.0 (Macintosh; Intel Mac OS X 10_15_7) AppleWebKit/537.36 (KHTML, like Gecko) Chrome/118.0.0.0 Safari/537.36","Macintosh","Chrome","118.0.0.0","OS X","10_15_7","null","es-US,es-419;q=0.9,es;q=0.8","true","822","<p id=""stimulus"" style=""font-size:60px;"">treinta y tres</p>","j","","","empty_block","","treinta y tres","","","","2","0",""
"","","","","","html-keyboard-response","58","347206","0.0-31.0","51","1","2023-11-01 10:57:21","a725c3012b74bf33a1020a98cb69c237","181.164.121.216","Mozilla/5.0 (Macintosh; Intel Mac OS X 10_15_7) AppleWebKit/537.36 (KHTML, like Gecko) Chrome/118.0.0.0 Safari/537.36","Macintosh","Chrome","118.0.0.0","OS X","10_15_7","null","es-US,es-419;q=0.9,es;q=0.8","true","null","<div style=""font-size:100px;"">X</div>","null","","","fixation","","","","","","","",""
"","","","","","audio-keyboard-response","59","347807","0.0-32.0","51","1","2023-11-01 10:57:21","a725c3012b74bf33a1020a98cb69c237","181.164.121.216","Mozilla/5.0 (Macintosh; Intel Mac OS X 10_15_7) AppleWebKit/537.36 (KHTML, like Gecko) Chrome/118.0.0.0 Safari/537.36","Macintosh","Chrome","118.0.0.0","OS X","10_15_7","null","es-US,es-419;q=0.9,es;q=0.8","true","597","tones/880hz_short.mp3","s","","","tone_number_task","992.5","sesenta y ocho","tones/880hz_short.mp3","1142.5","60","2","1",""
"","","","","","html-keyboard-response","60","348207","0.0-33.0-0.0","51","1","2023-11-01 10:57:21","a725c3012b74bf33a1020a98cb69c237","181.164.121.216","Mozilla/5.0 (Macintosh; Intel Mac OS X 10_15_7) AppleWebKit/537.36 (KHTML, like Gecko) Chrome/118.0.0.0 Safari/537.36","Macintosh","Chrome","118.0.0.0","OS X","10_15_7","null","es-US,es-419;q=0.9,es;q=0.8","true","null","","null","","","delay_block","","","","","","2","1",""
"","","","","","html-keyboard-response","61","348362","0.0-33.0-1.0","51","1","2023-11-01 10:57:21","a725c3012b74bf33a1020a98cb69c237","181.164.121.216","Mozilla/5.0 (Macintosh; Intel Mac OS X 10_15_7) AppleWebKit/537.36 (KHTML, like Gecko) Chrome/118.0.0.0 Safari/537.36","Macintosh","Chrome","118.0.0.0","OS X","10_15_7","null","es-US,es-419;q=0.9,es;q=0.8","true","null","<p id=""stimulus"" style=""font-size:60px;"">sesenta y ocho</p>","null","","","tone_number_task_remaining_before_delay","","sesenta y ocho","","545.5","60","2","1",""
"","","","","","html-keyboard-response","62","349100","0.0-36.0-0.0","51","1","2023-11-01 10:57:21","a725c3012b74bf33a1020a98cb69c237","181.164.121.216","Mozilla/5.0 (Macintosh; Intel Mac OS X 10_15_7) AppleWebKit/537.36 (KHTML, like Gecko) Chrome/118.0.0.0 Safari/537.36","Macintosh","Chrome","118.0.0.0","OS X","10_15_7","null","es-US,es-419;q=0.9,es;q=0.8","true","734","<p id=""stimulus"" style=""font-size:60px;"">sesenta y ocho</p>","k","","","empty_block","","sesenta y ocho","","","","2","1",""
"","","","","","html-keyboard-response","63","351935","0.0-37.0","51","1","2023-11-01 10:57:21","a725c3012b74bf33a1020a98cb69c237","181.164.121.216","Mozilla/5.0 (Macintosh; Intel Mac OS X 10_15_7) AppleWebKit/537.36 (KHTML, like Gecko) Chrome/118.0.0.0 Safari/537.36","Macintosh","Chrome","118.0.0.0","OS X","10_15_7","null","es-US,es-419;q=0.9,es;q=0.8","true","null","<div style=""font-size:100px;"">X</div>","null","","","fixation","","","","","","","",""
"","","","","","audio-keyboard-response","64","352093","0.0-38.0","51","1","2023-11-01 10:57:21","a725c3012b74bf33a1020a98cb69c237","181.164.121.216","Mozilla/5.0 (Macintosh; Intel Mac OS X 10_15_7) AppleWebKit/537.36 (KHTML, like Gecko) Chrome/118.0.0.0 Safari/537.36","Macintosh","Chrome","118.0.0.0","OS X","10_15_7","null","es-US,es-419;q=0.9,es;q=0.8","true","null","tones/880hz_short.mp3","null","","","tone_number_task","0","cincuenta y siete","tones/880hz_short.mp3","150","60","2","2",""
"","","","","","html-keyboard-response","65","352700","0.0-41.0-0.0","51","1","2023-11-01 10:57:21","a725c3012b74bf33a1020a98cb69c237","181.164.121.216","Mozilla/5.0 (Macintosh; Intel Mac OS X 10_15_7) AppleWebKit/537.36 (KHTML, like Gecko) Chrome/118.0.0.0 Safari/537.36","Macintosh","Chrome","118.0.0.0","OS X","10_15_7","null","es-US,es-419;q=0.9,es;q=0.8","true","602","tones/880hz_short.mp3","s","","","empty_block","","cincuenta y siete","","","","2","2",""
"","","","","","html-keyboard-response","66","353170","0.0-41.0-1.0","51","1","2023-11-01 10:57:21","a725c3012b74bf33a1020a98cb69c237","181.164.121.216","Mozilla/5.0 (Macintosh; Intel Mac OS X 10_15_7) AppleWebKit/537.36 (KHTML, like Gecko) Chrome/118.0.0.0 Safari/537.36","Macintosh","Chrome","118.0.0.0","OS X","10_15_7","null","es-US,es-419;q=0.9,es;q=0.8","true","467","tones/880hz_short.mp3","k","","","empty_block","","cincuenta y siete","","","","2","2",""
"","","","","","html-keyboard-response","67","356003","0.0-43.0","51","1","2023-11-01 10:57:21","a725c3012b74bf33a1020a98cb69c237","181.164.121.216","Mozilla/5.0 (Macintosh; Intel Mac OS X 10_15_7) AppleWebKit/537.36 (KHTML, like Gecko) Chrome/118.0.0.0 Safari/537.36","Macintosh","Chrome","118.0.0.0","OS X","10_15_7","null","es-US,es-419;q=0.9,es;q=0.8","true","null","<div style=""font-size:100px;"">X</div>","null","","","fixation","","","","","","","",""
"","","","","","audio-keyboard-response","68","356260","0.0-44.0","51","1","2023-11-01 10:57:21","a725c3012b74bf33a1020a98cb69c237","181.164.121.216","Mozilla/5.0 (Macintosh; Intel Mac OS X 10_15_7) AppleWebKit/537.36 (KHTML, like Gecko) Chrome/118.0.0.0 Safari/537.36","Macintosh","Chrome","118.0.0.0","OS X","10_15_7","null","es-US,es-419;q=0.9,es;q=0.8","true","null","tones/880hz_short.mp3","null","","","tone_number_task","102.5","treinta y ocho","tones/880hz_short.mp3","252.5","60","2","3",""
"","","","","","html-keyboard-response","69","356551","0.0-47.0-0.0","51","1","2023-11-01 10:57:21","a725c3012b74bf33a1020a98cb69c237","181.164.121.216","Mozilla/5.0 (Macintosh; Intel Mac OS X 10_15_7) AppleWebKit/537.36 (KHTML, like Gecko) Chrome/118.0.0.0 Safari/537.36","Macintosh","Chrome","118.0.0.0","OS X","10_15_7","null","es-US,es-419;q=0.9,es;q=0.8","true","287","tones/880hz_short.mp3","s","","","empty_block","","treinta y ocho","","","","2","3",""
"","","","","","html-keyboard-response","70","357120","0.0-47.0-1.0","51","1","2023-11-01 10:57:21","a725c3012b74bf33a1020a98cb69c237","181.164.121.216","Mozilla/5.0 (Macintosh; Intel Mac OS X 10_15_7) AppleWebKit/537.36 (KHTML, like Gecko) Chrome/118.0.0.0 Safari/537.36","Macintosh","Chrome","118.0.0.0","OS X","10_15_7","null","es-US,es-419;q=0.9,es;q=0.8","true","566","tones/880hz_short.mp3","j","","","empty_block","","treinta y ocho","","","","2","3",""
"","","","","","html-keyboard-response","71","359957","0.0-49.0","51","1","2023-11-01 10:57:21","a725c3012b74bf33a1020a98cb69c237","181.164.121.216","Mozilla/5.0 (Macintosh; Intel Mac OS X 10_15_7) AppleWebKit/537.36 (KHTML, like Gecko) Chrome/118.0.0.0 Safari/537.36","Macintosh","Chrome","118.0.0.0","OS X","10_15_7","null","es-US,es-419;q=0.9,es;q=0.8","true","null","<div style=""font-size:100px;"">X</div>","null","","","fixation","","","","","","","",""
"","","","","","audio-keyboard-response","72","360757","0.0-50.0","51","1","2023-11-01 10:57:21","a725c3012b74bf33a1020a98cb69c237","181.164.121.216","Mozilla/5.0 (Macintosh; Intel Mac OS X 10_15_7) AppleWebKit/537.36 (KHTML, like Gecko) Chrome/118.0.0.0 Safari/537.36","Macintosh","Chrome","118.0.0.0","OS X","10_15_7","null","es-US,es-419;q=0.9,es;q=0.8","true","795","tones/880hz_short.mp3","s","","","tone_number_task","1025","sesenta y ocho","tones/880hz_short.mp3","1175","60","2","4",""
"","","","","","html-keyboard-response","73","360991","0.0-51.0-0.0","51","1","2023-11-01 10:57:21","a725c3012b74bf33a1020a98cb69c237","181.164.121.216","Mozilla/5.0 (Macintosh; Intel Mac OS X 10_15_7) AppleWebKit/537.36 (KHTML, like Gecko) Chrome/118.0.0.0 Safari/537.36","Macintosh","Chrome","118.0.0.0","OS X","10_15_7","null","es-US,es-419;q=0.9,es;q=0.8","true","null","","null","","","delay_block","","","","","","2","4",""
"","","","","","html-keyboard-response","74","361147","0.0-51.0-1.0","51","1","2023-11-01 10:57:21","a725c3012b74bf33a1020a98cb69c237","181.164.121.216","Mozilla/5.0 (Macintosh; Intel Mac OS X 10_15_7) AppleWebKit/537.36 (KHTML, like Gecko) Chrome/118.0.0.0 Safari/537.36","Macintosh","Chrome","118.0.0.0","OS X","10_15_7","null","es-US,es-419;q=0.9,es;q=0.8","true","null","<p id=""stimulus"" style=""font-size:60px;"">sesenta y ocho</p>","null","","","tone_number_task_remaining_before_delay","","sesenta y ocho","","380","60","2","4",""
"","","","","","html-keyboard-response","75","362052","0.0-54.0-0.0","51","1","2023-11-01 10:57:21","a725c3012b74bf33a1020a98cb69c237","181.164.121.216","Mozilla/5.0 (Macintosh; Intel Mac OS X 10_15_7) AppleWebKit/537.36 (KHTML, like Gecko) Chrome/118.0.0.0 Safari/537.36","Macintosh","Chrome","118.0.0.0","OS X","10_15_7","null","es-US,es-419;q=0.9,es;q=0.8","true","901","<p id=""stimulus"" style=""font-size:60px;"">sesenta y ocho</p>","k","","","empty_block","","sesenta y ocho","","","","2","4",""
"","","","","","html-keyboard-response","76","364888","0.0-55.0","51","1","2023-11-01 10:57:21","a725c3012b74bf33a1020a98cb69c237","181.164.121.216","Mozilla/5.0 (Macintosh; Intel Mac OS X 10_15_7) AppleWebKit/537.36 (KHTML, like Gecko) Chrome/118.0.0.0 Safari/537.36","Macintosh","Chrome","118.0.0.0","OS X","10_15_7","null","es-US,es-419;q=0.9,es;q=0.8","true","null","<div style=""font-size:100px;"">X</div>","null","","","fixation","","","","","","","",""
"","","","","","audio-keyboard-response","77","365647","0.0-56.0","51","1","2023-11-01 10:57:21","a725c3012b74bf33a1020a98cb69c237","181.164.121.216","Mozilla/5.0 (Macintosh; Intel Mac OS X 10_15_7) AppleWebKit/537.36 (KHTML, like Gecko) Chrome/118.0.0.0 Safari/537.36","Macintosh","Chrome","118.0.0.0","OS X","10_15_7","null","es-US,es-419;q=0.9,es;q=0.8","true","757","tones/880hz_short.mp3","s","","","tone_number_task","1025","cincuenta y nueve","tones/880hz_short.mp3","1175","60","2","5",""
"","","","","","html-keyboard-response","78","365919","0.0-57.0-0.0","51","1","2023-11-01 10:57:21","a725c3012b74bf33a1020a98cb69c237","181.164.121.216","Mozilla/5.0 (Macintosh; Intel Mac OS X 10_15_7) AppleWebKit/537.36 (KHTML, like Gecko) Chrome/118.0.0.0 Safari/537.36","Macintosh","Chrome","118.0.0.0","OS X","10_15_7","null","es-US,es-419;q=0.9,es;q=0.8","true","null","","null","","","delay_block","","","","","","2","5",""
"","","","","","html-keyboard-response","79","366073","0.0-57.0-1.0","51","1","2023-11-01 10:57:21","a725c3012b74bf33a1020a98cb69c237","181.164.121.216","Mozilla/5.0 (Macintosh; Intel Mac OS X 10_15_7) AppleWebKit/537.36 (KHTML, like Gecko) Chrome/118.0.0.0 Safari/537.36","Macintosh","Chrome","118.0.0.0","OS X","10_15_7","null","es-US,es-419;q=0.9,es;q=0.8","true","null","<p id=""stimulus"" style=""font-size:60px;"">cincuenta y nueve</p>","null","","","tone_number_task_remaining_before_delay","","cincuenta y nueve","","418","60","2","5",""
"","","","","","html-keyboard-response","80","366707","0.0-60.0-0.0","51","1","2023-11-01 10:57:21","a725c3012b74bf33a1020a98cb69c237","181.164.121.216","Mozilla/5.0 (Macintosh; Intel Mac OS X 10_15_7) AppleWebKit/537.36 (KHTML, like Gecko) Chrome/118.0.0.0 Safari/537.36","Macintosh","Chrome","118.0.0.0","OS X","10_15_7","null","es-US,es-419;q=0.9,es;q=0.8","true","632","<p id=""stimulus"" style=""font-size:60px;"">cincuenta y nueve</p>","k","","","empty_block","","cincuenta y nueve","","","","2","5",""
"","","","","","html-keyboard-response","81","369541","0.0-61.0","51","1","2023-11-01 10:57:21","a725c3012b74bf33a1020a98cb69c237","181.164.121.216","Mozilla/5.0 (Macintosh; Intel Mac OS X 10_15_7) AppleWebKit/537.36 (KHTML, like Gecko) Chrome/118.0.0.0 Safari/537.36","Macintosh","Chrome","118.0.0.0","OS X","10_15_7","null","es-US,es-419;q=0.9,es;q=0.8","true","null","<div style=""font-size:100px;"">X</div>","null","","","fixation","","","","","","","",""
"","","","","","audio-keyboard-response","82","369700","0.0-62.0","51","1","2023-11-01 10:57:21","a725c3012b74bf33a1020a98cb69c237","181.164.121.216","Mozilla/5.0 (Macintosh; Intel Mac OS X 10_15_7) AppleWebKit/537.36 (KHTML, like Gecko) Chrome/118.0.0.0 Safari/537.36","Macintosh","Chrome","118.0.0.0","OS X","10_15_7","null","es-US,es-419;q=0.9,es;q=0.8","true","null","tones/880hz_short.mp3","null","","","tone_number_task","0","veintiuno","tones/880hz_short.mp3","150","60","2","6",""
"","","","","","html-keyboard-response","83","370230","0.0-65.0-0.0","51","1","2023-11-01 10:57:21","a725c3012b74bf33a1020a98cb69c237","181.164.121.216","Mozilla/5.0 (Macintosh; Intel Mac OS X 10_15_7) AppleWebKit/537.36 (KHTML, like Gecko) Chrome/118.0.0.0 Safari/537.36","Macintosh","Chrome","118.0.0.0","OS X","10_15_7","null","es-US,es-419;q=0.9,es;q=0.8","true","525","tones/880hz_short.mp3","s","","","empty_block","","veintiuno","","","","2","6",""
"","","","","","html-keyboard-response","84","370642","0.0-65.0-1.0","51","1","2023-11-01 10:57:21","a725c3012b74bf33a1020a98cb69c237","181.164.121.216","Mozilla/5.0 (Macintosh; Intel Mac OS X 10_15_7) AppleWebKit/537.36 (KHTML, like Gecko) Chrome/118.0.0.0 Safari/537.36","Macintosh","Chrome","118.0.0.0","OS X","10_15_7","null","es-US,es-419;q=0.9,es;q=0.8","true","409","tones/880hz_short.mp3","j","","","empty_block","","veintiuno","","","","2","6",""
"","","","","","html-keyboard-response","85","373475","0.0-67.0","51","1","2023-11-01 10:57:21","a725c3012b74bf33a1020a98cb69c237","181.164.121.216","Mozilla/5.0 (Macintosh; Intel Mac OS X 10_15_7) AppleWebKit/537.36 (KHTML, like Gecko) Chrome/118.0.0.0 Safari/537.36","Macintosh","Chrome","118.0.0.0","OS X","10_15_7","null","es-US,es-419;q=0.9,es;q=0.8","true","null","<div style=""font-size:100px;"">X</div>","null","","","fixation","","","","","","","",""
"","","","","","audio-keyboard-response","86","374270","0.0-68.0","51","1","2023-11-01 10:57:21","a725c3012b74bf33a1020a98cb69c237","181.164.121.216","Mozilla/5.0 (Macintosh; Intel Mac OS X 10_15_7) AppleWebKit/537.36 (KHTML, like Gecko) Chrome/118.0.0.0 Safari/537.36","Macintosh","Chrome","118.0.0.0","OS X","10_15_7","null","es-US,es-419;q=0.9,es;q=0.8","true","789","tones/880hz_short.mp3","s","","","tone_number_task","1025","cincuenta y ocho","tones/880hz_short.mp3","1175","60","2","7",""
"","","","","","html-keyboard-response","87","374511","0.0-69.0-0.0","51","1","2023-11-01 10:57:21","a725c3012b74bf33a1020a98cb69c237","181.164.121.216","Mozilla/5.0 (Macintosh; Intel Mac OS X 10_15_7) AppleWebKit/537.36 (KHTML, like Gecko) Chrome/118.0.0.0 Safari/537.36","Macintosh","Chrome","118.0.0.0","OS X","10_15_7","null","es-US,es-419;q=0.9,es;q=0.8","true","null","","null","","","delay_block","","","","","","2","7",""
"","","","","","html-keyboard-response","88","374670","0.0-69.0-1.0","51","1","2023-11-01 10:57:21","a725c3012b74bf33a1020a98cb69c237","181.164.121.216","Mozilla/5.0 (Macintosh; Intel Mac OS X 10_15_7) AppleWebKit/537.36 (KHTML, like Gecko) Chrome/118.0.0.0 Safari/537.36","Macintosh","Chrome","118.0.0.0","OS X","10_15_7","null","es-US,es-419;q=0.9,es;q=0.8","true","null","<p id=""stimulus"" style=""font-size:60px;"">cincuenta y ocho</p>","null","","","tone_number_task_remaining_before_delay","","cincuenta y ocho","","386","60","2","7",""
"","","","","","html-keyboard-response","89","375238","0.0-72.0-0.0","51","1","2023-11-01 10:57:21","a725c3012b74bf33a1020a98cb69c237","181.164.121.216","Mozilla/5.0 (Macintosh; Intel Mac OS X 10_15_7) AppleWebKit/537.36 (KHTML, like Gecko) Chrome/118.0.0.0 Safari/537.36","Macintosh","Chrome","118.0.0.0","OS X","10_15_7","null","es-US,es-419;q=0.9,es;q=0.8","true","566","<p id=""stimulus"" style=""font-size:60px;"">cincuenta y ocho</p>","k","","","empty_block","","cincuenta y ocho","","","","2","7",""
"","","","","","html-keyboard-response","90","378072","0.0-73.0","51","1","2023-11-01 10:57:21","a725c3012b74bf33a1020a98cb69c237","181.164.121.216","Mozilla/5.0 (Macintosh; Intel Mac OS X 10_15_7) AppleWebKit/537.36 (KHTML, like Gecko) Chrome/118.0.0.0 Safari/537.36","Macintosh","Chrome","118.0.0.0","OS X","10_15_7","null","es-US,es-419;q=0.9,es;q=0.8","true","null","<div style=""font-size:100px;"">X</div>","null","","","fixation","","","","","","","",""
"","","","","","audio-keyboard-response","91","378986","0.0-74.0","51","1","2023-11-01 10:57:21","a725c3012b74bf33a1020a98cb69c237","181.164.121.216","Mozilla/5.0 (Macintosh; Intel Mac OS X 10_15_7) AppleWebKit/537.36 (KHTML, like Gecko) Chrome/118.0.0.0 Safari/537.36","Macintosh","Chrome","118.0.0.0","OS X","10_15_7","null","es-US,es-419;q=0.9,es;q=0.8","true","907","tones/880hz_short.mp3","s","","","tone_number_task","1025","treinta","tones/880hz_short.mp3","1175","60","2","8",""
"","","","","","html-keyboard-response","92","379109","0.0-75.0-0.0","51","1","2023-11-01 10:57:21","a725c3012b74bf33a1020a98cb69c237","181.164.121.216","Mozilla/5.0 (Macintosh; Intel Mac OS X 10_15_7) AppleWebKit/537.36 (KHTML, like Gecko) Chrome/118.0.0.0 Safari/537.36","Macintosh","Chrome","118.0.0.0","OS X","10_15_7","null","es-US,es-419;q=0.9,es;q=0.8","true","null","","null","","","delay_block","","","","","","2","8",""
"","","","","","html-keyboard-response","93","379268","0.0-75.0-1.0","51","1","2023-11-01 10:57:21","a725c3012b74bf33a1020a98cb69c237","181.164.121.216","Mozilla/5.0 (Macintosh; Intel Mac OS X 10_15_7) AppleWebKit/537.36 (KHTML, like Gecko) Chrome/118.0.0.0 Safari/537.36","Macintosh","Chrome","118.0.0.0","OS X","10_15_7","null","es-US,es-419;q=0.9,es;q=0.8","true","null","<p id=""stimulus"" style=""font-size:60px;"">treinta</p>","null","","","tone_number_task_remaining_before_delay","","treinta","","268","60","2","8",""
"","","","","","html-keyboard-response","94","379911","0.0-78.0-0.0","51","1","2023-11-01 10:57:21","a725c3012b74bf33a1020a98cb69c237","181.164.121.216","Mozilla/5.0 (Macintosh; Intel Mac OS X 10_15_7) AppleWebKit/537.36 (KHTML, like Gecko) Chrome/118.0.0.0 Safari/537.36","Macintosh","Chrome","118.0.0.0","OS X","10_15_7","null","es-US,es-419;q=0.9,es;q=0.8","true","639","<p id=""stimulus"" style=""font-size:60px;"">treinta</p>","j","","","empty_block","","treinta","","","","2","8",""
"","","","","","html-keyboard-response","95","382745","0.0-79.0","51","1","2023-11-01 10:57:21","a725c3012b74bf33a1020a98cb69c237","181.164.121.216","Mozilla/5.0 (Macintosh; Intel Mac OS X 10_15_7) AppleWebKit/537.36 (KHTML, like Gecko) Chrome/118.0.0.0 Safari/537.36","Macintosh","Chrome","118.0.0.0","OS X","10_15_7","null","es-US,es-419;q=0.9,es;q=0.8","true","null","<div style=""font-size:100px;"">X</div>","null","","","fixation","","","","","","","",""
"","","","","","audio-keyboard-response","96","383560","0.0-80.0","51","1","2023-11-01 10:57:21","a725c3012b74bf33a1020a98cb69c237","181.164.121.216","Mozilla/5.0 (Macintosh; Intel Mac OS X 10_15_7) AppleWebKit/537.36 (KHTML, like Gecko) Chrome/118.0.0.0 Safari/537.36","Macintosh","Chrome","118.0.0.0","OS X","10_15_7","null","es-US,es-419;q=0.9,es;q=0.8","true","811","tones/880hz_short.mp3","s","","","tone_number_task","1025","treinta y cuatro","tones/880hz_short.mp3","1175","60","2","9",""
"","","","","","html-keyboard-response","97","383778","0.0-81.0-0.0","51","1","2023-11-01 10:57:21","a725c3012b74bf33a1020a98cb69c237","181.164.121.216","Mozilla/5.0 (Macintosh; Intel Mac OS X 10_15_7) AppleWebKit/537.36 (KHTML, like Gecko) Chrome/118.0.0.0 Safari/537.36","Macintosh","Chrome","118.0.0.0","OS X","10_15_7","null","es-US,es-419;q=0.9,es;q=0.8","true","null","","null","","","delay_block","","","","","","2","9",""
"","","","","","html-keyboard-response","98","383934","0.0-81.0-1.0","51","1","2023-11-01 10:57:21","a725c3012b74bf33a1020a98cb69c237","181.164.121.216","Mozilla/5.0 (Macintosh; Intel Mac OS X 10_15_7) AppleWebKit/537.36 (KHTML, like Gecko) Chrome/118.0.0.0 Safari/537.36","Macintosh","Chrome","118.0.0.0","OS X","10_15_7","null","es-US,es-419;q=0.9,es;q=0.8","true","null","<p id=""stimulus"" style=""font-size:60px;"">treinta y cuatro</p>","null","","","tone_number_task_remaining_before_delay","","treinta y cuatro","","364","60","2","9",""
"","","","","","html-keyboard-response","99","384481","0.0-84.0-0.0","51","1","2023-11-01 10:57:21","a725c3012b74bf33a1020a98cb69c237","181.164.121.216","Mozilla/5.0 (Macintosh; Intel Mac OS X 10_15_7) AppleWebKit/537.36 (KHTML, like Gecko) Chrome/118.0.0.0 Safari/537.36","Macintosh","Chrome","118.0.0.0","OS X","10_15_7","null","es-US,es-419;q=0.9,es;q=0.8","true","541","<p id=""stimulus"" style=""font-size:60px;"">treinta y cuatro</p>","j","","","empty_block","","treinta y cuatro","","","","2","9",""
"","","","","","html-keyboard-response","100","387316","0.0-85.0","51","1","2023-11-01 10:57:21","a725c3012b74bf33a1020a98cb69c237","181.164.121.216","Mozilla/5.0 (Macintosh; Intel Mac OS X 10_15_7) AppleWebKit/537.36 (KHTML, like Gecko) Chrome/118.0.0.0 Safari/537.36","Macintosh","Chrome","118.0.0.0","OS X","10_15_7","null","es-US,es-419;q=0.9,es;q=0.8","true","null","<div style=""font-size:100px;"">X</div>","null","","","fixation","","","","","","","",""
"","","","","","audio-keyboard-response","101","387571","0.0-86.0","51","1","2023-11-01 10:57:21","a725c3012b74bf33a1020a98cb69c237","181.164.121.216","Mozilla/5.0 (Macintosh; Intel Mac OS X 10_15_7) AppleWebKit/537.36 (KHTML, like Gecko) Chrome/118.0.0.0 Safari/537.36","Macintosh","Chrome","118.0.0.0","OS X","10_15_7","null","es-US,es-419;q=0.9,es;q=0.8","true","null","tones/880hz_short.mp3","null","","","tone_number_task","102.5","veintiuno","tones/880hz_short.mp3","252.5","60","2","10",""
"","","","","","html-keyboard-response","102","387994","0.0-89.0-0.0","51","1","2023-11-01 10:57:21","a725c3012b74bf33a1020a98cb69c237","181.164.121.216","Mozilla/5.0 (Macintosh; Intel Mac OS X 10_15_7) AppleWebKit/537.36 (KHTML, like Gecko) Chrome/118.0.0.0 Safari/537.36","Macintosh","Chrome","118.0.0.0","OS X","10_15_7","null","es-US,es-419;q=0.9,es;q=0.8","true","417","tones/880hz_short.mp3","s","","","empty_block","","veintiuno","","","","2","10",""
"","","","","","html-keyboard-response","103","388395","0.0-89.0-1.0","51","1","2023-11-01 10:57:21","a725c3012b74bf33a1020a98cb69c237","181.164.121.216","Mozilla/5.0 (Macintosh; Intel Mac OS X 10_15_7) AppleWebKit/537.36 (KHTML, like Gecko) Chrome/118.0.0.0 Safari/537.36","Macintosh","Chrome","118.0.0.0","OS X","10_15_7","null","es-US,es-419;q=0.9,es;q=0.8","true","399","tones/880hz_short.mp3","j","","","empty_block","","veintiuno","","","","2","10",""
"","","","","","html-keyboard-response","104","391233","0.0-91.0","51","1","2023-11-01 10:57:21","a725c3012b74bf33a1020a98cb69c237","181.164.121.216","Mozilla/5.0 (Macintosh; Intel Mac OS X 10_15_7) AppleWebKit/537.36 (KHTML, like Gecko) Chrome/118.0.0.0 Safari/537.36","Macintosh","Chrome","118.0.0.0","OS X","10_15_7","null","es-US,es-419;q=0.9,es;q=0.8","true","null","<div style=""font-size:100px;"">X</div>","null","","","fixation","","","","","","","",""
"","","","","","audio-keyboard-response","105","391945","0.0-92.0","51","1","2023-11-01 10:57:21","a725c3012b74bf33a1020a98cb69c237","181.164.121.216","Mozilla/5.0 (Macintosh; Intel Mac OS X 10_15_7) AppleWebKit/537.36 (KHTML, like Gecko) Chrome/118.0.0.0 Safari/537.36","Macintosh","Chrome","118.0.0.0","OS X","10_15_7","null","es-US,es-419;q=0.9,es;q=0.8","true","704","tones/880hz_short.mp3","s","","","tone_number_task","1025","cincuenta y cuatro","tones/880hz_short.mp3","1175","60","2","11",""
"","","","","","html-keyboard-response","106","392272","0.0-93.0-0.0","51","1","2023-11-01 10:57:21","a725c3012b74bf33a1020a98cb69c237","181.164.121.216","Mozilla/5.0 (Macintosh; Intel Mac OS X 10_15_7) AppleWebKit/537.36 (KHTML, like Gecko) Chrome/118.0.0.0 Safari/537.36","Macintosh","Chrome","118.0.0.0","OS X","10_15_7","null","es-US,es-419;q=0.9,es;q=0.8","true","null","","null","","","delay_block","","","","","","2","11",""
"","","","","","html-keyboard-response","107","392430","0.0-93.0-1.0","51","1","2023-11-01 10:57:21","a725c3012b74bf33a1020a98cb69c237","181.164.121.216","Mozilla/5.0 (Macintosh; Intel Mac OS X 10_15_7) AppleWebKit/537.36 (KHTML, like Gecko) Chrome/118.0.0.0 Safari/537.36","Macintosh","Chrome","118.0.0.0","OS X","10_15_7","null","es-US,es-419;q=0.9,es;q=0.8","true","null","<p id=""stimulus"" style=""font-size:60px;"">cincuenta y cuatro</p>","null","","","tone_number_task_remaining_before_delay","","cincuenta y cuatro","","471","60","2","11",""
"","","","","","html-keyboard-response","108","392986","0.0-96.0-0.0","51","1","2023-11-01 10:57:21","a725c3012b74bf33a1020a98cb69c237","181.164.121.216","Mozilla/5.0 (Macintosh; Intel Mac OS X 10_15_7) AppleWebKit/537.36 (KHTML, like Gecko) Chrome/118.0.0.0 Safari/537.36","Macintosh","Chrome","118.0.0.0","OS X","10_15_7","null","es-US,es-419;q=0.9,es;q=0.8","true","551","<p id=""stimulus"" style=""font-size:60px;"">cincuenta y cuatro</p>","k","","","empty_block","","cincuenta y cuatro","","","","2","11",""
"","","","","","html-keyboard-response","109","395822","0.0-97.0","51","1","2023-11-01 10:57:21","a725c3012b74bf33a1020a98cb69c237","181.164.121.216","Mozilla/5.0 (Macintosh; Intel Mac OS X 10_15_7) AppleWebKit/537.36 (KHTML, like Gecko) Chrome/118.0.0.0 Safari/537.36","Macintosh","Chrome","118.0.0.0","OS X","10_15_7","null","es-US,es-419;q=0.9,es;q=0.8","true","null","<div style=""font-size:100px;"">X</div>","null","","","fixation","","","","","","","",""
"","","","","","audio-keyboard-response","110","396082","0.0-98.0","51","1","2023-11-01 10:57:21","a725c3012b74bf33a1020a98cb69c237","181.164.121.216","Mozilla/5.0 (Macintosh; Intel Mac OS X 10_15_7) AppleWebKit/537.36 (KHTML, like Gecko) Chrome/118.0.0.0 Safari/537.36","Macintosh","Chrome","118.0.0.0","OS X","10_15_7","null","es-US,es-419;q=0.9,es;q=0.8","true","null","tones/880hz_short.mp3","null","","","tone_number_task","102.5","cincuenta y nueve","tones/880hz_short.mp3","252.5","60","2","12",""
"","","","","","html-keyboard-response","111","396528","0.0-101.0-0.0","51","1","2023-11-01 10:57:21","a725c3012b74bf33a1020a98cb69c237","181.164.121.216","Mozilla/5.0 (Macintosh; Intel Mac OS X 10_15_7) AppleWebKit/537.36 (KHTML, like Gecko) Chrome/118.0.0.0 Safari/537.36","Macintosh","Chrome","118.0.0.0","OS X","10_15_7","null","es-US,es-419;q=0.9,es;q=0.8","true","441","tones/880hz_short.mp3","s","","","empty_block","","cincuenta y nueve","","","","2","12",""
"","","","","","html-keyboard-response","112","396910","0.0-101.0-1.0","51","1","2023-11-01 10:57:21","a725c3012b74bf33a1020a98cb69c237","181.164.121.216","Mozilla/5.0 (Macintosh; Intel Mac OS X 10_15_7) AppleWebKit/537.36 (KHTML, like Gecko) Chrome/118.0.0.0 Safari/537.36","Macintosh","Chrome","118.0.0.0","OS X","10_15_7","null","es-US,es-419;q=0.9,es;q=0.8","true","379","tones/880hz_short.mp3","k","","","empty_block","","cincuenta y nueve","","","","2","12",""
"","","","","","html-keyboard-response","113","399744","0.0-103.0","51","1","2023-11-01 10:57:21","a725c3012b74bf33a1020a98cb69c237","181.164.121.216","Mozilla/5.0 (Macintosh; Intel Mac OS X 10_15_7) AppleWebKit/537.36 (KHTML, like Gecko) Chrome/118.0.0.0 Safari/537.36","Macintosh","Chrome","118.0.0.0","OS X","10_15_7","null","es-US,es-419;q=0.9,es;q=0.8","true","null","<div style=""font-size:100px;"">X</div>","null","","","fixation","","","","","","","",""
"","","","","","audio-keyboard-response","114","400494","0.0-104.0","51","1","2023-11-01 10:57:21","a725c3012b74bf33a1020a98cb69c237","181.164.121.216","Mozilla/5.0 (Macintosh; Intel Mac OS X 10_15_7) AppleWebKit/537.36 (KHTML, like Gecko) Chrome/118.0.0.0 Safari/537.36","Macintosh","Chrome","118.0.0.0","OS X","10_15_7","null","es-US,es-419;q=0.9,es;q=0.8","true","747","tones/440hz_short.mp3","a","","","tone_number_task","1025","sesenta y cinco","tones/440hz_short.mp3","1175","60","2","13",""
"","","","","","html-keyboard-response","115","400776","0.0-105.0-0.0","51","1","2023-11-01 10:57:21","a725c3012b74bf33a1020a98cb69c237","181.164.121.216","Mozilla/5.0 (Macintosh; Intel Mac OS X 10_15_7) AppleWebKit/537.36 (KHTML, like Gecko) Chrome/118.0.0.0 Safari/537.36","Macintosh","Chrome","118.0.0.0","OS X","10_15_7","null","es-US,es-419;q=0.9,es;q=0.8","true","null","","null","","","delay_block","","","","","","2","13",""
"","","","","","html-keyboard-response","116","400932","0.0-105.0-1.0","51","1","2023-11-01 10:57:21","a725c3012b74bf33a1020a98cb69c237","181.164.121.216","Mozilla/5.0 (Macintosh; Intel Mac OS X 10_15_7) AppleWebKit/537.36 (KHTML, like Gecko) Chrome/118.0.0.0 Safari/537.36","Macintosh","Chrome","118.0.0.0","OS X","10_15_7","null","es-US,es-419;q=0.9,es;q=0.8","true","null","<p id=""stimulus"" style=""font-size:60px;"">sesenta y cinco</p>","null","","","tone_number_task_remaining_before_delay","","sesenta y cinco","","428","60","2","13",""
"","","","","","html-keyboard-response","117","401616","0.0-108.0-0.0","51","1","2023-11-01 10:57:21","a725c3012b74bf33a1020a98cb69c237","181.164.121.216","Mozilla/5.0 (Macintosh; Intel Mac OS X 10_15_7) AppleWebKit/537.36 (KHTML, like Gecko) Chrome/118.0.0.0 Safari/537.36","Macintosh","Chrome","118.0.0.0","OS X","10_15_7","null","es-US,es-419;q=0.9,es;q=0.8","true","678","<p id=""stimulus"" style=""font-size:60px;"">sesenta y cinco</p>","k","","","empty_block","","sesenta y cinco","","","","2","13",""
"","","","","","html-keyboard-response","118","404450","0.0-109.0","51","1","2023-11-01 10:57:21","a725c3012b74bf33a1020a98cb69c237","181.164.121.216","Mozilla/5.0 (Macintosh; Intel Mac OS X 10_15_7) AppleWebKit/537.36 (KHTML, like Gecko) Chrome/118.0.0.0 Safari/537.36","Macintosh","Chrome","118.0.0.0","OS X","10_15_7","null","es-US,es-419;q=0.9,es;q=0.8","true","null","<div style=""font-size:100px;"">X</div>","null","","","fixation","","","","","","","",""
"","","","","","audio-keyboard-response","119","404710","0.0-110.0","51","1","2023-11-01 10:57:21","a725c3012b74bf33a1020a98cb69c237","181.164.121.216","Mozilla/5.0 (Macintosh; Intel Mac OS X 10_15_7) AppleWebKit/537.36 (KHTML, like Gecko) Chrome/118.0.0.0 Safari/537.36","Macintosh","Chrome","118.0.0.0","OS X","10_15_7","null","es-US,es-419;q=0.9,es;q=0.8","true","null","tones/880hz_short.mp3","null","","","tone_number_task","102.5","cincuenta y nueve","tones/880hz_short.mp3","252.5","60","2","14",""
"","","","","","html-keyboard-response","120","405108","0.0-113.0-0.0","51","1","2023-11-01 10:57:21","a725c3012b74bf33a1020a98cb69c237","181.164.121.216","Mozilla/5.0 (Macintosh; Intel Mac OS X 10_15_7) AppleWebKit/537.36 (KHTML, like Gecko) Chrome/118.0.0.0 Safari/537.36","Macintosh","Chrome","118.0.0.0","OS X","10_15_7","null","es-US,es-419;q=0.9,es;q=0.8","true","393","tones/880hz_short.mp3","s","","","empty_block","","cincuenta y nueve","","","","2","14",""
"","","","","","html-keyboard-response","121","406001","0.0-113.0-1.0","51","1","2023-11-01 10:57:21","a725c3012b74bf33a1020a98cb69c237","181.164.121.216","Mozilla/5.0 (Macintosh; Intel Mac OS X 10_15_7) AppleWebKit/537.36 (KHTML, like Gecko) Chrome/118.0.0.0 Safari/537.36","Macintosh","Chrome","118.0.0.0","OS X","10_15_7","null","es-US,es-419;q=0.9,es;q=0.8","true","890","tones/880hz_short.mp3","k","","","empty_block","","cincuenta y nueve","","","","2","14",""
"","","","","","html-keyboard-response","122","408836","0.0-115.0","51","1","2023-11-01 10:57:21","a725c3012b74bf33a1020a98cb69c237","181.164.121.216","Mozilla/5.0 (Macintosh; Intel Mac OS X 10_15_7) AppleWebKit/537.36 (KHTML, like Gecko) Chrome/118.0.0.0 Safari/537.36","Macintosh","Chrome","118.0.0.0","OS X","10_15_7","null","es-US,es-419;q=0.9,es;q=0.8","true","null","<div style=""font-size:100px;"">X</div>","null","","","fixation","","","","","","","",""
"","","","","","audio-keyboard-response","123","409676","0.0-116.0","51","1","2023-11-01 10:57:21","a725c3012b74bf33a1020a98cb69c237","181.164.121.216","Mozilla/5.0 (Macintosh; Intel Mac OS X 10_15_7) AppleWebKit/537.36 (KHTML, like Gecko) Chrome/118.0.0.0 Safari/537.36","Macintosh","Chrome","118.0.0.0","OS X","10_15_7","null","es-US,es-419;q=0.9,es;q=0.8","true","837","tones/440hz_short.mp3","a","","","tone_number_task","1025","cincuenta y uno","tones/440hz_short.mp3","1175","60","2","15",""
"","","","","","html-keyboard-response","124","409869","0.0-117.0-0.0","51","1","2023-11-01 10:57:21","a725c3012b74bf33a1020a98cb69c237","181.164.121.216","Mozilla/5.0 (Macintosh; Intel Mac OS X 10_15_7) AppleWebKit/537.36 (KHTML, like Gecko) Chrome/118.0.0.0 Safari/537.36","Macintosh","Chrome","118.0.0.0","OS X","10_15_7","null","es-US,es-419;q=0.9,es;q=0.8","true","null","","null","","","delay_block","","","","","","2","15",""
"","","","","","html-keyboard-response","125","410029","0.0-117.0-1.0","51","1","2023-11-01 10:57:21","a725c3012b74bf33a1020a98cb69c237","181.164.121.216","Mozilla/5.0 (Macintosh; Intel Mac OS X 10_15_7) AppleWebKit/537.36 (KHTML, like Gecko) Chrome/118.0.0.0 Safari/537.36","Macintosh","Chrome","118.0.0.0","OS X","10_15_7","null","es-US,es-419;q=0.9,es;q=0.8","true","null","<p id=""stimulus"" style=""font-size:60px;"">cincuenta y uno</p>","null","","","tone_number_task_remaining_before_delay","","cincuenta y uno","","338","60","2","15",""
"","","","","","html-keyboard-response","126","410532","0.0-120.0-0.0","51","1","2023-11-01 10:57:21","a725c3012b74bf33a1020a98cb69c237","181.164.121.216","Mozilla/5.0 (Macintosh; Intel Mac OS X 10_15_7) AppleWebKit/537.36 (KHTML, like Gecko) Chrome/118.0.0.0 Safari/537.36","Macintosh","Chrome","118.0.0.0","OS X","10_15_7","null","es-US,es-419;q=0.9,es;q=0.8","true","497","<p id=""stimulus"" style=""font-size:60px;"">cincuenta y uno</p>","k","","","empty_block","","cincuenta y uno","","","","2","15",""
"","","","","","html-keyboard-response","127","413368","0.0-121.0","51","1","2023-11-01 10:57:21","a725c3012b74bf33a1020a98cb69c237","181.164.121.216","Mozilla/5.0 (Macintosh; Intel Mac OS X 10_15_7) AppleWebKit/537.36 (KHTML, like Gecko) Chrome/118.0.0.0 Safari/537.36","Macintosh","Chrome","118.0.0.0","OS X","10_15_7","null","es-US,es-419;q=0.9,es;q=0.8","true","null","<div style=""font-size:100px;"">X</div>","null","","","fixation","","","","","","","",""
"","","","","","audio-keyboard-response","128","413528","0.0-122.0","51","1","2023-11-01 10:57:21","a725c3012b74bf33a1020a98cb69c237","181.164.121.216","Mozilla/5.0 (Macintosh; Intel Mac OS X 10_15_7) AppleWebKit/537.36 (KHTML, like Gecko) Chrome/118.0.0.0 Safari/537.36","Macintosh","Chrome","118.0.0.0","OS X","10_15_7","null","es-US,es-419;q=0.9,es;q=0.8","true","null","tones/880hz_short.mp3","null","","","tone_number_task","0","sesenta y dos","tones/880hz_short.mp3","150","60","2","16",""
"","","","","","html-keyboard-response","129","414055","0.0-125.0-0.0","51","1","2023-11-01 10:57:21","a725c3012b74bf33a1020a98cb69c237","181.164.121.216","Mozilla/5.0 (Macintosh; Intel Mac OS X 10_15_7) AppleWebKit/537.36 (KHTML, like Gecko) Chrome/118.0.0.0 Safari/537.36","Macintosh","Chrome","118.0.0.0","OS X","10_15_7","null","es-US,es-419;q=0.9,es;q=0.8","true","521","tones/880hz_short.mp3","s","","","empty_block","","sesenta y dos","","","","2","16",""
"","","","","","html-keyboard-response","130","414484","0.0-125.0-1.0","51","1","2023-11-01 10:57:21","a725c3012b74bf33a1020a98cb69c237","181.164.121.216","Mozilla/5.0 (Macintosh; Intel Mac OS X 10_15_7) AppleWebKit/537.36 (KHTML, like Gecko) Chrome/118.0.0.0 Safari/537.36","Macintosh","Chrome","118.0.0.0","OS X","10_15_7","null","es-US,es-419;q=0.9,es;q=0.8","true","425","tones/880hz_short.mp3","k","","","empty_block","","sesenta y dos","","","","2","16",""
"","","","","","html-keyboard-response","131","417320","0.0-127.0","51","1","2023-11-01 10:57:21","a725c3012b74bf33a1020a98cb69c237","181.164.121.216","Mozilla/5.0 (Macintosh; Intel Mac OS X 10_15_7) AppleWebKit/537.36 (KHTML, like Gecko) Chrome/118.0.0.0 Safari/537.36","Macintosh","Chrome","118.0.0.0","OS X","10_15_7","null","es-US,es-419;q=0.9,es;q=0.8","true","null","<div style=""font-size:100px;"">X</div>","null","","","fixation","","","","","","","",""
"","","","","","audio-keyboard-response","132","418110","0.0-128.0","51","1","2023-11-01 10:57:21","a725c3012b74bf33a1020a98cb69c237","181.164.121.216","Mozilla/5.0 (Macintosh; Intel Mac OS X 10_15_7) AppleWebKit/537.36 (KHTML, like Gecko) Chrome/118.0.0.0 Safari/537.36","Macintosh","Chrome","118.0.0.0","OS X","10_15_7","null","es-US,es-419;q=0.9,es;q=0.8","true","784","tones/880hz_short.mp3","s","","","tone_number_task","1025","treinta","tones/880hz_short.mp3","1175","60","2","17",""
"","","","","","html-keyboard-response","133","418356","0.0-129.0-0.0","51","1","2023-11-01 10:57:21","a725c3012b74bf33a1020a98cb69c237","181.164.121.216","Mozilla/5.0 (Macintosh; Intel Mac OS X 10_15_7) AppleWebKit/537.36 (KHTML, like Gecko) Chrome/118.0.0.0 Safari/537.36","Macintosh","Chrome","118.0.0.0","OS X","10_15_7","null","es-US,es-419;q=0.9,es;q=0.8","true","null","","null","","","delay_block","","","","","","2","17",""
"","","","","","html-keyboard-response","134","418517","0.0-129.0-1.0","51","1","2023-11-01 10:57:21","a725c3012b74bf33a1020a98cb69c237","181.164.121.216","Mozilla/5.0 (Macintosh; Intel Mac OS X 10_15_7) AppleWebKit/537.36 (KHTML, like Gecko) Chrome/118.0.0.0 Safari/537.36","Macintosh","Chrome","118.0.0.0","OS X","10_15_7","null","es-US,es-419;q=0.9,es;q=0.8","true","null","<p id=""stimulus"" style=""font-size:60px;"">treinta</p>","null","","","tone_number_task_remaining_before_delay","","treinta","","391","60","2","17",""
"","","","","","html-keyboard-response","135","419004","0.0-132.0-0.0","51","1","2023-11-01 10:57:21","a725c3012b74bf33a1020a98cb69c237","181.164.121.216","Mozilla/5.0 (Macintosh; Intel Mac OS X 10_15_7) AppleWebKit/537.36 (KHTML, like Gecko) Chrome/118.0.0.0 Safari/537.36","Macintosh","Chrome","118.0.0.0","OS X","10_15_7","null","es-US,es-419;q=0.9,es;q=0.8","true","481","<p id=""stimulus"" style=""font-size:60px;"">treinta</p>","j","","","empty_block","","treinta","","","","2","17",""
"","","","","","html-keyboard-response","136","421842","0.0-133.0","51","1","2023-11-01 10:57:21","a725c3012b74bf33a1020a98cb69c237","181.164.121.216","Mozilla/5.0 (Macintosh; Intel Mac OS X 10_15_7) AppleWebKit/537.36 (KHTML, like Gecko) Chrome/118.0.0.0 Safari/537.36","Macintosh","Chrome","118.0.0.0","OS X","10_15_7","null","es-US,es-419;q=0.9,es;q=0.8","true","null","<div style=""font-size:100px;"">X</div>","null","","","fixation","","","","","","","",""
"","","","","","audio-keyboard-response","137","422101","0.0-134.0","51","1","2023-11-01 10:57:21","a725c3012b74bf33a1020a98cb69c237","181.164.121.216","Mozilla/5.0 (Macintosh; Intel Mac OS X 10_15_7) AppleWebKit/537.36 (KHTML, like Gecko) Chrome/118.0.0.0 Safari/537.36","Macintosh","Chrome","118.0.0.0","OS X","10_15_7","null","es-US,es-419;q=0.9,es;q=0.8","true","null","tones/440hz_short.mp3","null","","","tone_number_task","102.5","treinta y ocho","tones/440hz_short.mp3","252.5","60","2","18",""
"","","","","","html-keyboard-response","138","423309","0.0-137.0-0.0","51","1","2023-11-01 10:57:21","a725c3012b74bf33a1020a98cb69c237","181.164.121.216","Mozilla/5.0 (Macintosh; Intel Mac OS X 10_15_7) AppleWebKit/537.36 (KHTML, like Gecko) Chrome/118.0.0.0 Safari/537.36","Macintosh","Chrome","118.0.0.0","OS X","10_15_7","null","es-US,es-419;q=0.9,es;q=0.8","true","null","tones/440hz_short.mp3","null","","","empty_block","","treinta y ocho","","","","2","18",""
"","","","","","html-keyboard-response","139","423369","0.0-137.0-1.0","51","1","2023-11-01 10:57:21","a725c3012b74bf33a1020a98cb69c237","181.164.121.216","Mozilla/5.0 (Macintosh; Intel Mac OS X 10_15_7) AppleWebKit/537.36 (KHTML, like Gecko) Chrome/118.0.0.0 Safari/537.36","Macintosh","Chrome","118.0.0.0","OS X","10_15_7","null","es-US,es-419;q=0.9,es;q=0.8","true","54","tones/440hz_short.mp3","a","","","empty_block","","treinta y ocho","","","","2","18",""
"","","","","","html-keyboard-response","140","426205","0.0-139.0","51","1","2023-11-01 10:57:21","a725c3012b74bf33a1020a98cb69c237","181.164.121.216","Mozilla/5.0 (Macintosh; Intel Mac OS X 10_15_7) AppleWebKit/537.36 (KHTML, like Gecko) Chrome/118.0.0.0 Safari/537.36","Macintosh","Chrome","118.0.0.0","OS X","10_15_7","null","es-US,es-419;q=0.9,es;q=0.8","true","null","<div style=""font-size:100px;"">X</div>","null","","","fixation","","","","","","","",""
"","","","","","audio-keyboard-response","141","427146","0.0-140.0","51","1","2023-11-01 10:57:21","a725c3012b74bf33a1020a98cb69c237","181.164.121.216","Mozilla/5.0 (Macintosh; Intel Mac OS X 10_15_7) AppleWebKit/537.36 (KHTML, like Gecko) Chrome/118.0.0.0 Safari/537.36","Macintosh","Chrome","118.0.0.0","OS X","10_15_7","null","es-US,es-419;q=0.9,es;q=0.8","true","939","tones/440hz_short.mp3","a","","","tone_number_task","992.5","cincuenta y siete","tones/440hz_short.mp3","1142.5","60","2","19",""
"","","","","","html-keyboard-response","142","427206","0.0-141.0-0.0","51","1","2023-11-01 10:57:21","a725c3012b74bf33a1020a98cb69c237","181.164.121.216","Mozilla/5.0 (Macintosh; Intel Mac OS X 10_15_7) AppleWebKit/537.36 (KHTML, like Gecko) Chrome/118.0.0.0 Safari/537.36","Macintosh","Chrome","118.0.0.0","OS X","10_15_7","null","es-US,es-419;q=0.9,es;q=0.8","true","null","","null","","","delay_block","","","","","","2","19",""
"","","","","","html-keyboard-response","143","427364","0.0-141.0-1.0","51","1","2023-11-01 10:57:21","a725c3012b74bf33a1020a98cb69c237","181.164.121.216","Mozilla/5.0 (Macintosh; Intel Mac OS X 10_15_7) AppleWebKit/537.36 (KHTML, like Gecko) Chrome/118.0.0.0 Safari/537.36","Macintosh","Chrome","118.0.0.0","OS X","10_15_7","null","es-US,es-419;q=0.9,es;q=0.8","true","null","<p id=""stimulus"" style=""font-size:60px;"">cincuenta y siete</p>","null","","","tone_number_task_remaining_before_delay","","cincuenta y siete","","203.5","60","2","19",""
"","","","","","html-keyboard-response","144","427960","0.0-144.0-0.0","51","1","2023-11-01 10:57:21","a725c3012b74bf33a1020a98cb69c237","181.164.121.216","Mozilla/5.0 (Macintosh; Intel Mac OS X 10_15_7) AppleWebKit/537.36 (KHTML, like Gecko) Chrome/118.0.0.0 Safari/537.36","Macintosh","Chrome","118.0.0.0","OS X","10_15_7","null","es-US,es-419;q=0.9,es;q=0.8","true","590","<p id=""stimulus"" style=""font-size:60px;"">cincuenta y siete</p>","k","","","empty_block","","cincuenta y siete","","","","2","19",""
"","","","","","html-keyboard-response","145","430797","0.0-145.0","51","1","2023-11-01 10:57:21","a725c3012b74bf33a1020a98cb69c237","181.164.121.216","Mozilla/5.0 (Macintosh; Intel Mac OS X 10_15_7) AppleWebKit/537.36 (KHTML, like Gecko) Chrome/118.0.0.0 Safari/537.36","Macintosh","Chrome","118.0.0.0","OS X","10_15_7","null","es-US,es-419;q=0.9,es;q=0.8","true","null","<div style=""font-size:100px;"">X</div>","null","","","fixation","","","","","","","",""
"","","","","","audio-keyboard-response","146","431421","0.0-146.0","51","1","2023-11-01 10:57:21","a725c3012b74bf33a1020a98cb69c237","181.164.121.216","Mozilla/5.0 (Macintosh; Intel Mac OS X 10_15_7) AppleWebKit/537.36 (KHTML, like Gecko) Chrome/118.0.0.0 Safari/537.36","Macintosh","Chrome","118.0.0.0","OS X","10_15_7","null","es-US,es-419;q=0.9,es;q=0.8","true","619","tones/440hz_short.mp3","a","","","tone_number_task","992.5","cuarenta y seis","tones/440hz_short.mp3","1142.5","60","2","20",""
"","","","","","html-keyboard-response","147","431799","0.0-147.0-0.0","51","1","2023-11-01 10:57:21","a725c3012b74bf33a1020a98cb69c237","181.164.121.216","Mozilla/5.0 (Macintosh; Intel Mac OS X 10_15_7) AppleWebKit/537.36 (KHTML, like Gecko) Chrome/118.0.0.0 Safari/537.36","Macintosh","Chrome","118.0.0.0","OS X","10_15_7","null","es-US,es-419;q=0.9,es;q=0.8","true","null","","null","","","delay_block","","","","","","2","20",""
"","","","","","html-keyboard-response","148","431961","0.0-147.0-1.0","51","1","2023-11-01 10:57:21","a725c3012b74bf33a1020a98cb69c237","181.164.121.216","Mozilla/5.0 (Macintosh; Intel Mac OS X 10_15_7) AppleWebKit/537.36 (KHTML, like Gecko) Chrome/118.0.0.0 Safari/537.36","Macintosh","Chrome","118.0.0.0","OS X","10_15_7","null","es-US,es-419;q=0.9,es;q=0.8","true","null","<p id=""stimulus"" style=""font-size:60px;"">cuarenta y seis</p>","null","","","tone_number_task_remaining_before_delay","","cuarenta y seis","","523.5","60","2","20",""
"","","","","","html-keyboard-response","149","433173","0.0-150.0-0.0","51","1","2023-11-01 10:57:21","a725c3012b74bf33a1020a98cb69c237","181.164.121.216","Mozilla/5.0 (Macintosh; Intel Mac OS X 10_15_7) AppleWebKit/537.36 (KHTML, like Gecko) Chrome/118.0.0.0 Safari/537.36","Macintosh","Chrome","118.0.0.0","OS X","10_15_7","null","es-US,es-419;q=0.9,es;q=0.8","true","null","<p id=""stimulus"" style=""font-size:60px;"">cuarenta y seis</p>","null","","","empty_block","","cuarenta y seis","","","","2","20",""
"","","","","","html-keyboard-response","150","436009","0.0-151.0","51","1","2023-11-01 10:57:21","a725c3012b74bf33a1020a98cb69c237","181.164.121.216","Mozilla/5.0 (Macintosh; Intel Mac OS X 10_15_7) AppleWebKit/537.36 (KHTML, like Gecko) Chrome/118.0.0.0 Safari/537.36","Macintosh","Chrome","118.0.0.0","OS X","10_15_7","null","es-US,es-419;q=0.9,es;q=0.8","true","null","<div style=""font-size:100px;"">X</div>","null","","","fixation","","","","","","","",""
"","","","","","audio-keyboard-response","151","436736","0.0-152.0","51","1","2023-11-01 10:57:21","a725c3012b74bf33a1020a98cb69c237","181.164.121.216","Mozilla/5.0 (Macintosh; Intel Mac OS X 10_15_7) AppleWebKit/537.36 (KHTML, like Gecko) Chrome/118.0.0.0 Safari/537.36","Macintosh","Chrome","118.0.0.0","OS X","10_15_7","null","es-US,es-419;q=0.9,es;q=0.8","true","720","tones/440hz_short.mp3","a","","","tone_number_task","992.5","veintidós","tones/440hz_short.mp3","1142.5","60","2","21",""
"","","","","","html-keyboard-response","152","437014","0.0-153.0-0.0","51","1","2023-11-01 10:57:21","a725c3012b74bf33a1020a98cb69c237","181.164.121.216","Mozilla/5.0 (Macintosh; Intel Mac OS X 10_15_7) AppleWebKit/537.36 (KHTML, like Gecko) Chrome/118.0.0.0 Safari/537.36","Macintosh","Chrome","118.0.0.0","OS X","10_15_7","null","es-US,es-419;q=0.9,es;q=0.8","true","null","","null","","","delay_block","","","","","","2","21",""
"","","","","","html-keyboard-response","153","437176","0.0-153.0-1.0","51","1","2023-11-01 10:57:21","a725c3012b74bf33a1020a98cb69c237","181.164.121.216","Mozilla/5.0 (Macintosh; Intel Mac OS X 10_15_7) AppleWebKit/537.36 (KHTML, like Gecko) Chrome/118.0.0.0 Safari/537.36","Macintosh","Chrome","118.0.0.0","OS X","10_15_7","null","es-US,es-419;q=0.9,es;q=0.8","true","null","<p id=""stimulus"" style=""font-size:60px;"">veintidós</p>","null","","","tone_number_task_remaining_before_delay","","veintidós","","422.5","60","2","21",""
"","","","","","html-keyboard-response","154","437651","0.0-156.0-0.0","51","1","2023-11-01 10:57:21","a725c3012b74bf33a1020a98cb69c237","181.164.121.216","Mozilla/5.0 (Macintosh; Intel Mac OS X 10_15_7) AppleWebKit/537.36 (KHTML, like Gecko) Chrome/118.0.0.0 Safari/537.36","Macintosh","Chrome","118.0.0.0","OS X","10_15_7","null","es-US,es-419;q=0.9,es;q=0.8","true","468","<p id=""stimulus"" style=""font-size:60px;"">veintidós</p>","j","","","empty_block","","veintidós","","","","2","21",""
"","","","","","html-keyboard-response","155","440487","0.0-157.0","51","1","2023-11-01 10:57:21","a725c3012b74bf33a1020a98cb69c237","181.164.121.216","Mozilla/5.0 (Macintosh; Intel Mac OS X 10_15_7) AppleWebKit/537.36 (KHTML, like Gecko) Chrome/118.0.0.0 Safari/537.36","Macintosh","Chrome","118.0.0.0","OS X","10_15_7","null","es-US,es-419;q=0.9,es;q=0.8","true","null","<div style=""font-size:100px;"">X</div>","null","","","fixation","","","","","","","",""
"","","","","","audio-keyboard-response","156","440647","0.0-158.0","51","1","2023-11-01 10:57:21","a725c3012b74bf33a1020a98cb69c237","181.164.121.216","Mozilla/5.0 (Macintosh; Intel Mac OS X 10_15_7) AppleWebKit/537.36 (KHTML, like Gecko) Chrome/118.0.0.0 Safari/537.36","Macintosh","Chrome","118.0.0.0","OS X","10_15_7","null","es-US,es-419;q=0.9,es;q=0.8","true","null","tones/880hz_short.mp3","null","","","tone_number_task","0","treinta y seis","tones/880hz_short.mp3","150","60","2","22",""
"","","","","","html-keyboard-response","157","441631","0.0-161.0-0.0","51","1","2023-11-01 10:57:21","a725c3012b74bf33a1020a98cb69c237","181.164.121.216","Mozilla/5.0 (Macintosh; Intel Mac OS X 10_15_7) AppleWebKit/537.36 (KHTML, like Gecko) Chrome/118.0.0.0 Safari/537.36","Macintosh","Chrome","118.0.0.0","OS X","10_15_7","null","es-US,es-419;q=0.9,es;q=0.8","true","977","tones/880hz_short.mp3","s","","","empty_block","","treinta y seis","","","","2","22",""
"","","","","","html-keyboard-response","158","442319","0.0-161.0-1.0","51","1","2023-11-01 10:57:21","a725c3012b74bf33a1020a98cb69c237","181.164.121.216","Mozilla/5.0 (Macintosh; Intel Mac OS X 10_15_7) AppleWebKit/537.36 (KHTML, like Gecko) Chrome/118.0.0.0 Safari/537.36","Macintosh","Chrome","118.0.0.0","OS X","10_15_7","null","es-US,es-419;q=0.9,es;q=0.8","true","683","tones/880hz_short.mp3","j","","","empty_block","","treinta y seis","","","","2","22",""
"","","","","","html-keyboard-response","159","445154","0.0-163.0","51","1","2023-11-01 10:57:21","a725c3012b74bf33a1020a98cb69c237","181.164.121.216","Mozilla/5.0 (Macintosh; Intel Mac OS X 10_15_7) AppleWebKit/537.36 (KHTML, like Gecko) Chrome/118.0.0.0 Safari/537.36","Macintosh","Chrome","118.0.0.0","OS X","10_15_7","null","es-US,es-419;q=0.9,es;q=0.8","true","null","<div style=""font-size:100px;"">X</div>","null","","","fixation","","","","","","","",""
"","","","","","audio-keyboard-response","160","445414","0.0-164.0","51","1","2023-11-01 10:57:21","a725c3012b74bf33a1020a98cb69c237","181.164.121.216","Mozilla/5.0 (Macintosh; Intel Mac OS X 10_15_7) AppleWebKit/537.36 (KHTML, like Gecko) Chrome/118.0.0.0 Safari/537.36","Macintosh","Chrome","118.0.0.0","OS X","10_15_7","null","es-US,es-419;q=0.9,es;q=0.8","true","null","tones/440hz_short.mp3","null","","","tone_number_task","102.5","sesenta y ocho","tones/440hz_short.mp3","252.5","60","2","23",""
"","","","","","html-keyboard-response","161","446063","0.0-167.0-0.0","51","1","2023-11-01 10:57:21","a725c3012b74bf33a1020a98cb69c237","181.164.121.216","Mozilla/5.0 (Macintosh; Intel Mac OS X 10_15_7) AppleWebKit/537.36 (KHTML, like Gecko) Chrome/118.0.0.0 Safari/537.36","Macintosh","Chrome","118.0.0.0","OS X","10_15_7","null","es-US,es-419;q=0.9,es;q=0.8","true","645","tones/440hz_short.mp3","a","","","empty_block","","sesenta y ocho","","","","2","23",""
"","","","","","html-keyboard-response","162","446584","0.0-167.0-1.0","51","1","2023-11-01 10:57:21","a725c3012b74bf33a1020a98cb69c237","181.164.121.216","Mozilla/5.0 (Macintosh; Intel Mac OS X 10_15_7) AppleWebKit/537.36 (KHTML, like Gecko) Chrome/118.0.0.0 Safari/537.36","Macintosh","Chrome","118.0.0.0","OS X","10_15_7","null","es-US,es-419;q=0.9,es;q=0.8","true","515","tones/440hz_short.mp3","k","","","empty_block","","sesenta y ocho","","","","2","23",""
"","","","","","html-keyboard-response","163","449422","0.0-169.0","51","1","2023-11-01 10:57:21","a725c3012b74bf33a1020a98cb69c237","181.164.121.216","Mozilla/5.0 (Macintosh; Intel Mac OS X 10_15_7) AppleWebKit/537.36 (KHTML, like Gecko) Chrome/118.0.0.0 Safari/537.36","Macintosh","Chrome","118.0.0.0","OS X","10_15_7","null","es-US,es-419;q=0.9,es;q=0.8","true","null","<div style=""font-size:100px;"">X</div>","null","","","fixation","","","","","","","",""
"","","","","","audio-keyboard-response","164","450180","0.0-170.0","51","1","2023-11-01 10:57:21","a725c3012b74bf33a1020a98cb69c237","181.164.121.216","Mozilla/5.0 (Macintosh; Intel Mac OS X 10_15_7) AppleWebKit/537.36 (KHTML, like Gecko) Chrome/118.0.0.0 Safari/537.36","Macintosh","Chrome","118.0.0.0","OS X","10_15_7","null","es-US,es-419;q=0.9,es;q=0.8","true","752","tones/440hz_short.mp3","a","","","tone_number_task","992.5","veintiseis","tones/440hz_short.mp3","1142.5","60","2","24",""
"","","","","","html-keyboard-response","165","450426","0.0-171.0-0.0","51","1","2023-11-01 10:57:21","a725c3012b74bf33a1020a98cb69c237","181.164.121.216","Mozilla/5.0 (Macintosh; Intel Mac OS X 10_15_7) AppleWebKit/537.36 (KHTML, like Gecko) Chrome/118.0.0.0 Safari/537.36","Macintosh","Chrome","118.0.0.0","OS X","10_15_7","null","es-US,es-419;q=0.9,es;q=0.8","true","null","","null","","","delay_block","","","","","","2","24",""
"","","","","","html-keyboard-response","166","450585","0.0-171.0-1.0","51","1","2023-11-01 10:57:21","a725c3012b74bf33a1020a98cb69c237","181.164.121.216","Mozilla/5.0 (Macintosh; Intel Mac OS X 10_15_7) AppleWebKit/537.36 (KHTML, like Gecko) Chrome/118.0.0.0 Safari/537.36","Macintosh","Chrome","118.0.0.0","OS X","10_15_7","null","es-US,es-419;q=0.9,es;q=0.8","true","null","<p id=""stimulus"" style=""font-size:60px;"">veintiseis</p>","null","","","tone_number_task_remaining_before_delay","","veintiseis","","390.5","60","2","24",""
"","","","","","html-keyboard-response","167","451264","0.0-174.0-0.0","51","1","2023-11-01 10:57:21","a725c3012b74bf33a1020a98cb69c237","181.164.121.216","Mozilla/5.0 (Macintosh; Intel Mac OS X 10_15_7) AppleWebKit/537.36 (KHTML, like Gecko) Chrome/118.0.0.0 Safari/537.36","Macintosh","Chrome","118.0.0.0","OS X","10_15_7","null","es-US,es-419;q=0.9,es;q=0.8","true","673","<p id=""stimulus"" style=""font-size:60px;"">veintiseis</p>","j","","","empty_block","","veintiseis","","","","2","24",""
"","","","","","html-keyboard-response","168","454103","0.0-175.0","51","1","2023-11-01 10:57:21","a725c3012b74bf33a1020a98cb69c237","181.164.121.216","Mozilla/5.0 (Macintosh; Intel Mac OS X 10_15_7) AppleWebKit/537.36 (KHTML, like Gecko) Chrome/118.0.0.0 Safari/537.36","Macintosh","Chrome","118.0.0.0","OS X","10_15_7","null","es-US,es-419;q=0.9,es;q=0.8","true","null","<div style=""font-size:100px;"">X</div>","null","","","fixation","","","","","","","",""
"","","","","","audio-keyboard-response","169","454362","0.0-176.0","51","1","2023-11-01 10:57:21","a725c3012b74bf33a1020a98cb69c237","181.164.121.216","Mozilla/5.0 (Macintosh; Intel Mac OS X 10_15_7) AppleWebKit/537.36 (KHTML, like Gecko) Chrome/118.0.0.0 Safari/537.36","Macintosh","Chrome","118.0.0.0","OS X","10_15_7","null","es-US,es-419;q=0.9,es;q=0.8","true","null","tones/880hz_short.mp3","null","","","tone_number_task","102.5","cuarenta y nueve","tones/880hz_short.mp3","252.5","60","2","25",""
"","","","","","html-keyboard-response","170","454975","0.0-179.0-0.0","51","1","2023-11-01 10:57:21","a725c3012b74bf33a1020a98cb69c237","181.164.121.216","Mozilla/5.0 (Macintosh; Intel Mac OS X 10_15_7) AppleWebKit/537.36 (KHTML, like Gecko) Chrome/118.0.0.0 Safari/537.36","Macintosh","Chrome","118.0.0.0","OS X","10_15_7","null","es-US,es-419;q=0.9,es;q=0.8","true","607","tones/880hz_short.mp3","s","","","empty_block","","cuarenta y nueve","","","","2","25",""
"","","","","","html-keyboard-response","171","455384","0.0-179.0-1.0","51","1","2023-11-01 10:57:21","a725c3012b74bf33a1020a98cb69c237","181.164.121.216","Mozilla/5.0 (Macintosh; Intel Mac OS X 10_15_7) AppleWebKit/537.36 (KHTML, like Gecko) Chrome/118.0.0.0 Safari/537.36","Macintosh","Chrome","118.0.0.0","OS X","10_15_7","null","es-US,es-419;q=0.9,es;q=0.8","true","403","tones/880hz_short.mp3","k","","","empty_block","","cuarenta y nueve","","","","2","25",""
"","","","","","html-keyboard-response","172","458219","0.0-181.0","51","1","2023-11-01 10:57:21","a725c3012b74bf33a1020a98cb69c237","181.164.121.216","Mozilla/5.0 (Macintosh; Intel Mac OS X 10_15_7) AppleWebKit/537.36 (KHTML, like Gecko) Chrome/118.0.0.0 Safari/537.36","Macintosh","Chrome","118.0.0.0","OS X","10_15_7","null","es-US,es-419;q=0.9,es;q=0.8","true","null","<div style=""font-size:100px;"">X</div>","null","","","fixation","","","","","","","",""
"","","","","","audio-keyboard-response","173","459358","0.0-182.0","51","1","2023-11-01 10:57:21","a725c3012b74bf33a1020a98cb69c237","181.164.121.216","Mozilla/5.0 (Macintosh; Intel Mac OS X 10_15_7) AppleWebKit/537.36 (KHTML, like Gecko) Chrome/118.0.0.0 Safari/537.36","Macintosh","Chrome","118.0.0.0","OS X","10_15_7","null","es-US,es-419;q=0.9,es;q=0.8","true","1136","tones/440hz_short.mp3","a","","","tone_number_task","992.5","cincuenta y nueve","tones/440hz_short.mp3","1142.5","60","2","26",""
"","","","","","html-keyboard-response","174","459369","0.0-184.0-0.0","51","1","2023-11-01 10:57:21","a725c3012b74bf33a1020a98cb69c237","181.164.121.216","Mozilla/5.0 (Macintosh; Intel Mac OS X 10_15_7) AppleWebKit/537.36 (KHTML, like Gecko) Chrome/118.0.0.0 Safari/537.36","Macintosh","Chrome","118.0.0.0","OS X","10_15_7","null","es-US,es-419;q=0.9,es;q=0.8","true","null","<p id=""stimulus"" style=""font-size:60px;"">cincuenta y nueve</p>","null","","","tone_number_task_remaining_after_delay","","cincuenta y nueve","","","60","2","26",""
"","","","","","html-keyboard-response","175","460007","0.0-186.0-0.0","51","1","2023-11-01 10:57:21","a725c3012b74bf33a1020a98cb69c237","181.164.121.216","Mozilla/5.0 (Macintosh; Intel Mac OS X 10_15_7) AppleWebKit/537.36 (KHTML, like Gecko) Chrome/118.0.0.0 Safari/537.36","Macintosh","Chrome","118.0.0.0","OS X","10_15_7","null","es-US,es-419;q=0.9,es;q=0.8","true","634","<p id=""stimulus"" style=""font-size:60px;"">cincuenta y nueve</p>","k","","","empty_block","","cincuenta y nueve","","","","2","26",""
"","","","","","html-keyboard-response","176","462844","0.0-187.0","51","1","2023-11-01 10:57:21","a725c3012b74bf33a1020a98cb69c237","181.164.121.216","Mozilla/5.0 (Macintosh; Intel Mac OS X 10_15_7) AppleWebKit/537.36 (KHTML, like Gecko) Chrome/118.0.0.0 Safari/537.36","Macintosh","Chrome","118.0.0.0","OS X","10_15_7","null","es-US,es-419;q=0.9,es;q=0.8","true","null","<div style=""font-size:100px;"">X</div>","null","","","fixation","","","","","","","",""
"","","","","","audio-keyboard-response","177","463005","0.0-188.0","51","1","2023-11-01 10:57:21","a725c3012b74bf33a1020a98cb69c237","181.164.121.216","Mozilla/5.0 (Macintosh; Intel Mac OS X 10_15_7) AppleWebKit/537.36 (KHTML, like Gecko) Chrome/118.0.0.0 Safari/537.36","Macintosh","Chrome","118.0.0.0","OS X","10_15_7","null","es-US,es-419;q=0.9,es;q=0.8","true","null","tones/880hz_short.mp3","null","","","tone_number_task","0","sesenta y seis","tones/880hz_short.mp3","150","60","2","27",""
"","","","","","html-keyboard-response","178","463336","0.0-191.0-0.0","51","1","2023-11-01 10:57:21","a725c3012b74bf33a1020a98cb69c237","181.164.121.216","Mozilla/5.0 (Macintosh; Intel Mac OS X 10_15_7) AppleWebKit/537.36 (KHTML, like Gecko) Chrome/118.0.0.0 Safari/537.36","Macintosh","Chrome","118.0.0.0","OS X","10_15_7","null","es-US,es-419;q=0.9,es;q=0.8","true","324","tones/880hz_short.mp3","s","","","empty_block","","sesenta y seis","","","","2","27",""
"","","","","","html-keyboard-response","179","464196","0.0-191.0-1.0","51","1","2023-11-01 10:57:21","a725c3012b74bf33a1020a98cb69c237","181.164.121.216","Mozilla/5.0 (Macintosh; Intel Mac OS X 10_15_7) AppleWebKit/537.36 (KHTML, like Gecko) Chrome/118.0.0.0 Safari/537.36","Macintosh","Chrome","118.0.0.0","OS X","10_15_7","null","es-US,es-419;q=0.9,es;q=0.8","true","855","tones/880hz_short.mp3","k","","","empty_block","","sesenta y seis","","","","2","27",""
"","","","","","html-keyboard-response","180","467036","0.0-193.0","51","1","2023-11-01 10:57:21","a725c3012b74bf33a1020a98cb69c237","181.164.121.216","Mozilla/5.0 (Macintosh; Intel Mac OS X 10_15_7) AppleWebKit/537.36 (KHTML, like Gecko) Chrome/118.0.0.0 Safari/537.36","Macintosh","Chrome","118.0.0.0","OS X","10_15_7","null","es-US,es-419;q=0.9,es;q=0.8","true","null","<div style=""font-size:100px;"">X</div>","null","","","fixation","","","","","","","",""
"","","","","","audio-keyboard-response","181","468068","0.0-194.0","51","1","2023-11-01 10:57:21","a725c3012b74bf33a1020a98cb69c237","181.164.121.216","Mozilla/5.0 (Macintosh; Intel Mac OS X 10_15_7) AppleWebKit/537.36 (KHTML, like Gecko) Chrome/118.0.0.0 Safari/537.36","Macintosh","Chrome","118.0.0.0","OS X","10_15_7","null","es-US,es-419;q=0.9,es;q=0.8","true","1024","tones/440hz_short.mp3","a","","","tone_number_task","992.5","cincuenta y seis","tones/440hz_short.mp3","1142.5","60","2","28",""
"","","","","","html-keyboard-response","182","468192","0.0-196.0-0.0","51","1","2023-11-01 10:57:21","a725c3012b74bf33a1020a98cb69c237","181.164.121.216","Mozilla/5.0 (Macintosh; Intel Mac OS X 10_15_7) AppleWebKit/537.36 (KHTML, like Gecko) Chrome/118.0.0.0 Safari/537.36","Macintosh","Chrome","118.0.0.0","OS X","10_15_7","null","es-US,es-419;q=0.9,es;q=0.8","true","null","<p id=""stimulus"" style=""font-size:60px;"">cincuenta y seis</p>","null","","","tone_number_task_remaining_after_delay","","cincuenta y seis","","","60","2","28",""
"","","","","","html-keyboard-response","183","468909","0.0-198.0-0.0","51","1","2023-11-01 10:57:21","a725c3012b74bf33a1020a98cb69c237","181.164.121.216","Mozilla/5.0 (Macintosh; Intel Mac OS X 10_15_7) AppleWebKit/537.36 (KHTML, like Gecko) Chrome/118.0.0.0 Safari/537.36","Macintosh","Chrome","118.0.0.0","OS X","10_15_7","null","es-US,es-419;q=0.9,es;q=0.8","true","713","<p id=""stimulus"" style=""font-size:60px;"">cincuenta y seis</p>","k","","","empty_block","","cincuenta y seis","","","","2","28",""
"","","","","","html-keyboard-response","184","471746","0.0-199.0","51","1","2023-11-01 10:57:21","a725c3012b74bf33a1020a98cb69c237","181.164.121.216","Mozilla/5.0 (Macintosh; Intel Mac OS X 10_15_7) AppleWebKit/537.36 (KHTML, like Gecko) Chrome/118.0.0.0 Safari/537.36","Macintosh","Chrome","118.0.0.0","OS X","10_15_7","null","es-US,es-419;q=0.9,es;q=0.8","true","null","<div style=""font-size:100px;"">X</div>","null","","","fixation","","","","","","","",""
"","","","","","audio-keyboard-response","185","471906","0.0-200.0","51","1","2023-11-01 10:57:21","a725c3012b74bf33a1020a98cb69c237","181.164.121.216","Mozilla/5.0 (Macintosh; Intel Mac OS X 10_15_7) AppleWebKit/537.36 (KHTML, like Gecko) Chrome/118.0.0.0 Safari/537.36","Macintosh","Chrome","118.0.0.0","OS X","10_15_7","null","es-US,es-419;q=0.9,es;q=0.8","true","null","tones/440hz_short.mp3","null","","","tone_number_task","0","veintiseis","tones/440hz_short.mp3","150","60","2","29",""
"","","","","","html-keyboard-response","186","472350","0.0-203.0-0.0","51","1","2023-11-01 10:57:21","a725c3012b74bf33a1020a98cb69c237","181.164.121.216","Mozilla/5.0 (Macintosh; Intel Mac OS X 10_15_7) AppleWebKit/537.36 (KHTML, like Gecko) Chrome/118.0.0.0 Safari/537.36","Macintosh","Chrome","118.0.0.0","OS X","10_15_7","null","es-US,es-419;q=0.9,es;q=0.8","true","437","tones/440hz_short.mp3","a","","","empty_block","","veintiseis","","","","2","29",""
"","","","","","html-keyboard-response","187","473453","0.0-203.0-1.0","51","1","2023-11-01 10:57:21","a725c3012b74bf33a1020a98cb69c237","181.164.121.216","Mozilla/5.0 (Macintosh; Intel Mac OS X 10_15_7) AppleWebKit/537.36 (KHTML, like Gecko) Chrome/118.0.0.0 Safari/537.36","Macintosh","Chrome","118.0.0.0","OS X","10_15_7","null","es-US,es-419;q=0.9,es;q=0.8","true","1097","tones/440hz_short.mp3","j","","","empty_block","","veintiseis","","","","2","29",""
"","","","","","html-keyboard-response","188","476290","0.0-205.0","51","1","2023-11-01 10:57:21","a725c3012b74bf33a1020a98cb69c237","181.164.121.216","Mozilla/5.0 (Macintosh; Intel Mac OS X 10_15_7) AppleWebKit/537.36 (KHTML, like Gecko) Chrome/118.0.0.0 Safari/537.36","Macintosh","Chrome","118.0.0.0","OS X","10_15_7","null","es-US,es-419;q=0.9,es;q=0.8","true","null","<div style=""font-size:100px;"">X</div>","null","","","fixation","","","","","","","",""
"","","","","","audio-keyboard-response","189","476551","0.0-206.0","51","1","2023-11-01 10:57:21","a725c3012b74bf33a1020a98cb69c237","181.164.121.216","Mozilla/5.0 (Macintosh; Intel Mac OS X 10_15_7) AppleWebKit/537.36 (KHTML, like Gecko) Chrome/118.0.0.0 Safari/537.36","Macintosh","Chrome","118.0.0.0","OS X","10_15_7","null","es-US,es-419;q=0.9,es;q=0.8","true","null","tones/440hz_short.mp3","null","","","tone_number_task","102.5","veinticinco","tones/440hz_short.mp3","252.5","60","2","30",""
"","","","","","html-keyboard-response","190","477760","0.0-209.0-0.0","51","1","2023-11-01 10:57:21","a725c3012b74bf33a1020a98cb69c237","181.164.121.216","Mozilla/5.0 (Macintosh; Intel Mac OS X 10_15_7) AppleWebKit/537.36 (KHTML, like Gecko) Chrome/118.0.0.0 Safari/537.36","Macintosh","Chrome","118.0.0.0","OS X","10_15_7","null","es-US,es-419;q=0.9,es;q=0.8","true","null","tones/440hz_short.mp3","null","","","empty_block","","veinticinco","","","","2","30",""
"","","","","","html-keyboard-response","191","478587","0.0-209.0-1.0","51","1","2023-11-01 10:57:21","a725c3012b74bf33a1020a98cb69c237","181.164.121.216","Mozilla/5.0 (Macintosh; Intel Mac OS X 10_15_7) AppleWebKit/537.36 (KHTML, like Gecko) Chrome/118.0.0.0 Safari/537.36","Macintosh","Chrome","118.0.0.0","OS X","10_15_7","null","es-US,es-419;q=0.9,es;q=0.8","true","819","tones/440hz_short.mp3","a","","","empty_block","","veinticinco","","","","2","30",""
"","","","","","html-keyboard-response","192","481425","0.0-211.0","51","1","2023-11-01 10:57:21","a725c3012b74bf33a1020a98cb69c237","181.164.121.216","Mozilla/5.0 (Macintosh; Intel Mac OS X 10_15_7) AppleWebKit/537.36 (KHTML, like Gecko) Chrome/118.0.0.0 Safari/537.36","Macintosh","Chrome","118.0.0.0","OS X","10_15_7","null","es-US,es-419;q=0.9,es;q=0.8","true","null","<div style=""font-size:100px;"">X</div>","null","","","fixation","","","","","","","",""
"","","","","","audio-keyboard-response","193","481899","0.0-212.0","51","1","2023-11-01 10:57:21","a725c3012b74bf33a1020a98cb69c237","181.164.121.216","Mozilla/5.0 (Macintosh; Intel Mac OS X 10_15_7) AppleWebKit/537.36 (KHTML, like Gecko) Chrome/118.0.0.0 Safari/537.36","Macintosh","Chrome","118.0.0.0","OS X","10_15_7","null","es-US,es-419;q=0.9,es;q=0.8","true","464","tones/440hz_short.mp3","a","","","tone_number_task","992.5","veinticinco","tones/440hz_short.mp3","1142.5","60","2","31",""
"","","","","","html-keyboard-response","194","482433","0.0-213.0-0.0","51","1","2023-11-01 10:57:21","a725c3012b74bf33a1020a98cb69c237","181.164.121.216","Mozilla/5.0 (Macintosh; Intel Mac OS X 10_15_7) AppleWebKit/537.36 (KHTML, like Gecko) Chrome/118.0.0.0 Safari/537.36","Macintosh","Chrome","118.0.0.0","OS X","10_15_7","null","es-US,es-419;q=0.9,es;q=0.8","true","null","","null","","","delay_block","","","","","","2","31",""
"","","","","","html-keyboard-response","195","482592","0.0-213.0-1.0","51","1","2023-11-01 10:57:21","a725c3012b74bf33a1020a98cb69c237","181.164.121.216","Mozilla/5.0 (Macintosh; Intel Mac OS X 10_15_7) AppleWebKit/537.36 (KHTML, like Gecko) Chrome/118.0.0.0 Safari/537.36","Macintosh","Chrome","118.0.0.0","OS X","10_15_7","null","es-US,es-419;q=0.9,es;q=0.8","true","null","<p id=""stimulus"" style=""font-size:60px;"">veinticinco</p>","null","","","tone_number_task_remaining_before_delay","","veinticinco","","678.5","60","2","31",""
"","","","","","html-keyboard-response","196","483086","0.0-216.0-0.0","51","1","2023-11-01 10:57:21","a725c3012b74bf33a1020a98cb69c237","181.164.121.216","Mozilla/5.0 (Macintosh; Intel Mac OS X 10_15_7) AppleWebKit/537.36 (KHTML, like Gecko) Chrome/118.0.0.0 Safari/537.36","Macintosh","Chrome","118.0.0.0","OS X","10_15_7","null","es-US,es-419;q=0.9,es;q=0.8","true","489","<p id=""stimulus"" style=""font-size:60px;"">veinticinco</p>","j","","","empty_block","","veinticinco","","","","2","31",""
"","","","","","html-keyboard-response","197","485925","0.0-217.0","51","1","2023-11-01 10:57:21","a725c3012b74bf33a1020a98cb69c237","181.164.121.216","Mozilla/5.0 (Macintosh; Intel Mac OS X 10_15_7) AppleWebKit/537.36 (KHTML, like Gecko) Chrome/118.0.0.0 Safari/537.36","Macintosh","Chrome","118.0.0.0","OS X","10_15_7","null","es-US,es-419;q=0.9,es;q=0.8","true","null","<div style=""font-size:100px;"">X</div>","null","","","fixation","","","","","","","",""
"","","","","","audio-keyboard-response","198","486084","0.0-218.0","51","1","2023-11-01 10:57:21","a725c3012b74bf33a1020a98cb69c237","181.164.121.216","Mozilla/5.0 (Macintosh; Intel Mac OS X 10_15_7) AppleWebKit/537.36 (KHTML, like Gecko) Chrome/118.0.0.0 Safari/537.36","Macintosh","Chrome","118.0.0.0","OS X","10_15_7","null","es-US,es-419;q=0.9,es;q=0.8","true","null","tones/440hz_short.mp3","null","","","tone_number_task","0","veintinueve","tones/440hz_short.mp3","150","60","2","32",""
"","","","","","html-keyboard-response","199","486481","0.0-221.0-0.0","51","1","2023-11-01 10:57:21","a725c3012b74bf33a1020a98cb69c237","181.164.121.216","Mozilla/5.0 (Macintosh; Intel Mac OS X 10_15_7) AppleWebKit/537.36 (KHTML, like Gecko) Chrome/118.0.0.0 Safari/537.36","Macintosh","Chrome","118.0.0.0","OS X","10_15_7","null","es-US,es-419;q=0.9,es;q=0.8","true","389","tones/440hz_short.mp3","a","","","empty_block","","veintinueve","","","","2","32",""
"","","","","","html-keyboard-response","200","486844","0.0-221.0-1.0","51","1","2023-11-01 10:57:21","a725c3012b74bf33a1020a98cb69c237","181.164.121.216","Mozilla/5.0 (Macintosh; Intel Mac OS X 10_15_7) AppleWebKit/537.36 (KHTML, like Gecko) Chrome/118.0.0.0 Safari/537.36","Macintosh","Chrome","118.0.0.0","OS X","10_15_7","null","es-US,es-419;q=0.9,es;q=0.8","true","360","tones/440hz_short.mp3","j","","","empty_block","","veintinueve","","","","2","32",""
"","","","","","html-keyboard-response","201","489680","0.0-223.0","51","1","2023-11-01 10:57:21","a725c3012b74bf33a1020a98cb69c237","181.164.121.216","Mozilla/5.0 (Macintosh; Intel Mac OS X 10_15_7) AppleWebKit/537.36 (KHTML, like Gecko) Chrome/118.0.0.0 Safari/537.36","Macintosh","Chrome","118.0.0.0","OS X","10_15_7","null","es-US,es-419;q=0.9,es;q=0.8","true","null","<div style=""font-size:100px;"">X</div>","null","","","fixation","","","","","","","",""
"","","","","","audio-keyboard-response","202","490444","0.0-224.0","51","1","2023-11-01 10:57:21","a725c3012b74bf33a1020a98cb69c237","181.164.121.216","Mozilla/5.0 (Macintosh; Intel Mac OS X 10_15_7) AppleWebKit/537.36 (KHTML, like Gecko) Chrome/118.0.0.0 Safari/537.36","Macintosh","Chrome","118.0.0.0","OS X","10_15_7","null","es-US,es-419;q=0.9,es;q=0.8","true","757","tones/880hz_short.mp3","s","","","tone_number_task","992.5","sesenta y uno","tones/880hz_short.mp3","1142.5","60","2","33",""
"","","","","","html-keyboard-response","203","490686","0.0-225.0-0.0","51","1","2023-11-01 10:57:21","a725c3012b74bf33a1020a98cb69c237","181.164.121.216","Mozilla/5.0 (Macintosh; Intel Mac OS X 10_15_7) AppleWebKit/537.36 (KHTML, like Gecko) Chrome/118.0.0.0 Safari/537.36","Macintosh","Chrome","118.0.0.0","OS X","10_15_7","null","es-US,es-419;q=0.9,es;q=0.8","true","null","","null","","","delay_block","","","","","","2","33",""
"","","","","","html-keyboard-response","204","490848","0.0-225.0-1.0","51","1","2023-11-01 10:57:21","a725c3012b74bf33a1020a98cb69c237","181.164.121.216","Mozilla/5.0 (Macintosh; Intel Mac OS X 10_15_7) AppleWebKit/537.36 (KHTML, like Gecko) Chrome/118.0.0.0 Safari/537.36","Macintosh","Chrome","118.0.0.0","OS X","10_15_7","null","es-US,es-419;q=0.9,es;q=0.8","true","null","<p id=""stimulus"" style=""font-size:60px;"">sesenta y uno</p>","null","","","tone_number_task_remaining_before_delay","","sesenta y uno","","385.5","60","2","33",""
