"success","timeout","failed_images","failed_audio","failed_video","trial_type","trial_index","time_elapsed","internal_node_id","run_id","condition","recorded_at","source_code_version","ip","user_agent","device","browser","browser_version","platform","platform_version","referer","accept_language","check","rt","stimulus","response","question_order","url","task","delay","number","audioFile","trial_duration","font_size","block","round","value"
"true","false","[]","[]","[]","preload","0","9","0.0-0.0","14","1","2023-10-27 19:04:14","a725c3012b74bf33a1020a98cb69c237","45.71.5.119","Mozilla/5.0 (Windows NT 10.0; Win64; x64) AppleWebKit/537.36 (KHTML, like Gecko) Chrome/117.0.0.0 Safari/537.36","WebKit","Chrome","117.0.0.0","Windows","10.0","null","es-ES,es;q=0.9","true","","","","","","","","","","","","","",""
"true","","","","","fullscreen","1","3440","0.0-1.0","14","1","2023-10-27 19:04:14","a725c3012b74bf33a1020a98cb69c237","45.71.5.119","Mozilla/5.0 (Windows NT 10.0; Win64; x64) AppleWebKit/537.36 (KHTML, like Gecko) Chrome/117.0.0.0 Safari/537.36","WebKit","Chrome","117.0.0.0","Windows","10.0","null","es-ES,es;q=0.9","true","","","","","","","","","","","","","",""
"","","","","","html-button-response","2","6767","0.0-2.0","14","1","2023-10-27 19:04:14","a725c3012b74bf33a1020a98cb69c237","45.71.5.119","Mozilla/5.0 (Windows NT 10.0; Win64; x64) AppleWebKit/537.36 (KHTML, like Gecko) Chrome/117.0.0.0 Safari/537.36","WebKit","Chrome","117.0.0.0","Windows","10.0","null","es-ES,es;q=0.9","true","3325","<p style=""font-size:24px; color:red;"">Cosas importantes a tener en cuenta antes de comenzar el experimento:</p>","0","","","","","","","","","","",""
"","","","","","html-button-response","3","14782","0.0-3.0","14","1","2023-10-27 19:04:14","a725c3012b74bf33a1020a98cb69c237","45.71.5.119","Mozilla/5.0 (Windows NT 10.0; Win64; x64) AppleWebKit/537.36 (KHTML, like Gecko) Chrome/117.0.0.0 Safari/537.36","WebKit","Chrome","117.0.0.0","Windows","10.0","null","es-ES,es;q=0.9","true","8015","<p style=""font-size:24px;"">El experimento dura aproximadamente 15 minutos.</p><p style=""font-size:24px;"">Por favor, no cierres la ventana del navegador durante el experimento.</p><p style=""font-size:24px;"">Si se completa de forma parcial, no se guardará ningún resultado.</p>","0","","","","","","","","","","",""
"","","","","","html-button-response","4","17094","0.0-4.0","14","1","2023-10-27 19:04:14","a725c3012b74bf33a1020a98cb69c237","45.71.5.119","Mozilla/5.0 (Windows NT 10.0; Win64; x64) AppleWebKit/537.36 (KHTML, like Gecko) Chrome/117.0.0.0 Safari/537.36","WebKit","Chrome","117.0.0.0","Windows","10.0","null","es-ES,es;q=0.9","true","2311","<p style=""font-size:24px;"">El experimento contiene estímulos sonoros.</p>","0","","","","","","","","","","",""
"","","","","","audio-button-response","5","20270","0.0-5.0-0.0","14","1","2023-10-27 19:04:14","a725c3012b74bf33a1020a98cb69c237","45.71.5.119","Mozilla/5.0 (Windows NT 10.0; Win64; x64) AppleWebKit/537.36 (KHTML, like Gecko) Chrome/117.0.0.0 Safari/537.36","WebKit","Chrome","117.0.0.0","Windows","10.0","null","es-ES,es;q=0.9","true","3160","tones/440hz_short.mp3","1","","","","","","","","","","",""
"","","","","","audio-button-response","6","22390","0.0-6.0-0.0","14","1","2023-10-27 19:04:14","a725c3012b74bf33a1020a98cb69c237","45.71.5.119","Mozilla/5.0 (Windows NT 10.0; Win64; x64) AppleWebKit/537.36 (KHTML, like Gecko) Chrome/117.0.0.0 Safari/537.36","WebKit","Chrome","117.0.0.0","Windows","10.0","null","es-ES,es;q=0.9","true","2120","tones/880hz_short.mp3","1","","","","","","","","","","",""
"","","","","","survey-html-form","7","25606","0.0-7.0","14","1","2023-10-27 19:04:14","a725c3012b74bf33a1020a98cb69c237","45.71.5.119","Mozilla/5.0 (Windows NT 10.0; Win64; x64) AppleWebKit/537.36 (KHTML, like Gecko) Chrome/117.0.0.0 Safari/537.36","WebKit","Chrome","117.0.0.0","Windows","10.0","null","es-ES,es;q=0.9","true","3214","","{""response"":""32""}","","","","","","","","","","",""
"","","","","","survey-multi-choice","8","28686","0.0-8.0","14","1","2023-10-27 19:04:14","a725c3012b74bf33a1020a98cb69c237","45.71.5.119","Mozilla/5.0 (Windows NT 10.0; Win64; x64) AppleWebKit/537.36 (KHTML, like Gecko) Chrome/117.0.0.0 Safari/537.36","WebKit","Chrome","117.0.0.0","Windows","10.0","null","es-ES,es;q=0.9","true","3079","","{""gender"":""Hombre"",""hand"":""Derecha""}","[0,1]","","","","","","","","","",""
"","","","","","external-html","9","57007","0.0-9.0","14","1","2023-10-27 19:04:14","a725c3012b74bf33a1020a98cb69c237","45.71.5.119","Mozilla/5.0 (Windows NT 10.0; Win64; x64) AppleWebKit/537.36 (KHTML, like Gecko) Chrome/117.0.0.0 Safari/537.36","WebKit","Chrome","117.0.0.0","Windows","10.0","null","es-ES,es;q=0.9","true","27744","","","","instructions/instructions.html","","","","","","","","",""
"","","","","","external-html","10","90057","0.0-10.0","14","1","2023-10-27 19:04:14","a725c3012b74bf33a1020a98cb69c237","45.71.5.119","Mozilla/5.0 (Windows NT 10.0; Win64; x64) AppleWebKit/537.36 (KHTML, like Gecko) Chrome/117.0.0.0 Safari/537.36","WebKit","Chrome","117.0.0.0","Windows","10.0","null","es-ES,es;q=0.9","true","32758","","","","instructions/animation.html","","","","","","","","",""
"","","","","","html-keyboard-response","11","92836","0.0-11.0-0.0","14","1","2023-10-27 19:04:14","a725c3012b74bf33a1020a98cb69c237","45.71.5.119","Mozilla/5.0 (Windows NT 10.0; Win64; x64) AppleWebKit/537.36 (KHTML, like Gecko) Chrome/117.0.0.0 Safari/537.36","WebKit","Chrome","117.0.0.0","Windows","10.0","null","es-ES,es;q=0.9","true","null","<div style=""font-size:100px;"">X</div>","null","","","fixation","","","","","","","",""
"","","","","","audio-keyboard-response","12","93562","0.0-11.0-1.0","14","1","2023-10-27 19:04:14","a725c3012b74bf33a1020a98cb69c237","45.71.5.119","Mozilla/5.0 (Windows NT 10.0; Win64; x64) AppleWebKit/537.36 (KHTML, like Gecko) Chrome/117.0.0.0 Safari/537.36","WebKit","Chrome","117.0.0.0","Windows","10.0","null","es-ES,es;q=0.9","true","701","tones/440hz_short.mp3","a","","","tone_number_task","1000","22","tones/440hz_short.mp3","1150","100","null","null",""
"","","","","","html-keyboard-response","13","93863","0.0-11.0-2.0-0.0","14","1","2023-10-27 19:04:14","a725c3012b74bf33a1020a98cb69c237","45.71.5.119","Mozilla/5.0 (Windows NT 10.0; Win64; x64) AppleWebKit/537.36 (KHTML, like Gecko) Chrome/117.0.0.0 Safari/537.36","WebKit","Chrome","117.0.0.0","Windows","10.0","null","es-ES,es;q=0.9","true","null","","null","","","delay_block","","","","","","null","null",""
"","","","","","html-keyboard-response","14","94017","0.0-11.0-2.0-1.0","14","1","2023-10-27 19:04:14","a725c3012b74bf33a1020a98cb69c237","45.71.5.119","Mozilla/5.0 (Windows NT 10.0; Win64; x64) AppleWebKit/537.36 (KHTML, like Gecko) Chrome/117.0.0.0 Safari/537.36","WebKit","Chrome","117.0.0.0","Windows","10.0","null","es-ES,es;q=0.9","true","null","<p id=""stimulus"" style=""font-size:100px;"">22</p>","null","","","tone_number_task_remaining_before_delay","","22","","449","100","null","null",""
"","","","","","html-keyboard-response","15","94545","0.0-11.0-5.0-0.0","14","1","2023-10-27 19:04:14","a725c3012b74bf33a1020a98cb69c237","45.71.5.119","Mozilla/5.0 (Windows NT 10.0; Win64; x64) AppleWebKit/537.36 (KHTML, like Gecko) Chrome/117.0.0.0 Safari/537.36","WebKit","Chrome","117.0.0.0","Windows","10.0","null","es-ES,es;q=0.9","true","526","<p id=""stimulus"" style=""font-size:100px;"">22</p>","j","","","empty_block","","22","","","","null","null",""
"","","","","","html-keyboard-response","16","97323","0.0-13.0-0.0","14","1","2023-10-27 19:04:14","a725c3012b74bf33a1020a98cb69c237","45.71.5.119","Mozilla/5.0 (Windows NT 10.0; Win64; x64) AppleWebKit/537.36 (KHTML, like Gecko) Chrome/117.0.0.0 Safari/537.36","WebKit","Chrome","117.0.0.0","Windows","10.0","null","es-ES,es;q=0.9","true","null","<div style=""font-size:100px;"">X</div>","null","","","fixation","","","","","","","",""
"","","","","","audio-keyboard-response","17","97977","0.0-13.0-1.0","14","1","2023-10-27 19:04:14","a725c3012b74bf33a1020a98cb69c237","45.71.5.119","Mozilla/5.0 (Windows NT 10.0; Win64; x64) AppleWebKit/537.36 (KHTML, like Gecko) Chrome/117.0.0.0 Safari/537.36","WebKit","Chrome","117.0.0.0","Windows","10.0","null","es-ES,es;q=0.9","true","null","tones/880hz_short.mp3","null","","","tone_number_task","500","55","tones/880hz_short.mp3","650","100","null","null",""
"","","","","","html-keyboard-response","18","98091","0.0-13.0-4.0-0.0","14","1","2023-10-27 19:04:14","a725c3012b74bf33a1020a98cb69c237","45.71.5.119","Mozilla/5.0 (Windows NT 10.0; Win64; x64) AppleWebKit/537.36 (KHTML, like Gecko) Chrome/117.0.0.0 Safari/537.36","WebKit","Chrome","117.0.0.0","Windows","10.0","null","es-ES,es;q=0.9","true","112","tones/880hz_short.mp3","s","","","empty_block","","55","","","","null","null",""
"","","","","","html-keyboard-response","19","98561","0.0-13.0-4.0-1.0","14","1","2023-10-27 19:04:14","a725c3012b74bf33a1020a98cb69c237","45.71.5.119","Mozilla/5.0 (Windows NT 10.0; Win64; x64) AppleWebKit/537.36 (KHTML, like Gecko) Chrome/117.0.0.0 Safari/537.36","WebKit","Chrome","117.0.0.0","Windows","10.0","null","es-ES,es;q=0.9","true","468","tones/880hz_short.mp3","k","","","empty_block","","55","","","","null","null",""
"","","","","","html-keyboard-response","20","101339","0.0-15.0-0.0","14","1","2023-10-27 19:04:14","a725c3012b74bf33a1020a98cb69c237","45.71.5.119","Mozilla/5.0 (Windows NT 10.0; Win64; x64) AppleWebKit/537.36 (KHTML, like Gecko) Chrome/117.0.0.0 Safari/537.36","WebKit","Chrome","117.0.0.0","Windows","10.0","null","es-ES,es;q=0.9","true","null","<div style=""font-size:100px;"">X</div>","null","","","fixation","","","","","","","",""
"","","","","","audio-keyboard-response","21","101642","0.0-15.0-1.0","14","1","2023-10-27 19:04:14","a725c3012b74bf33a1020a98cb69c237","45.71.5.119","Mozilla/5.0 (Windows NT 10.0; Win64; x64) AppleWebKit/537.36 (KHTML, like Gecko) Chrome/117.0.0.0 Safari/537.36","WebKit","Chrome","117.0.0.0","Windows","10.0","null","es-ES,es;q=0.9","true","null","tones/440hz_short.mp3","null","","","tone_number_task","150","24","tones/440hz_short.mp3","300","100","null","null",""
"","","","","","html-keyboard-response","22","102330","0.0-15.0-4.0-0.0","14","1","2023-10-27 19:04:14","a725c3012b74bf33a1020a98cb69c237","45.71.5.119","Mozilla/5.0 (Windows NT 10.0; Win64; x64) AppleWebKit/537.36 (KHTML, like Gecko) Chrome/117.0.0.0 Safari/537.36","WebKit","Chrome","117.0.0.0","Windows","10.0","null","es-ES,es;q=0.9","true","687","tones/440hz_short.mp3","a","","","empty_block","","24","","","","null","null",""
"","","","","","html-keyboard-response","23","103129","0.0-15.0-4.0-1.0","14","1","2023-10-27 19:04:14","a725c3012b74bf33a1020a98cb69c237","45.71.5.119","Mozilla/5.0 (Windows NT 10.0; Win64; x64) AppleWebKit/537.36 (KHTML, like Gecko) Chrome/117.0.0.0 Safari/537.36","WebKit","Chrome","117.0.0.0","Windows","10.0","null","es-ES,es;q=0.9","true","797","tones/440hz_short.mp3","j","","","empty_block","","24","","","","null","null",""
"","","","","","html-keyboard-response","24","105907","0.0-17.0-0.0","14","1","2023-10-27 19:04:14","a725c3012b74bf33a1020a98cb69c237","45.71.5.119","Mozilla/5.0 (Windows NT 10.0; Win64; x64) AppleWebKit/537.36 (KHTML, like Gecko) Chrome/117.0.0.0 Safari/537.36","WebKit","Chrome","117.0.0.0","Windows","10.0","null","es-ES,es;q=0.9","true","null","<div style=""font-size:100px;"">X</div>","null","","","fixation","","","","","","","",""
"","","","","","audio-keyboard-response","25","106112","0.0-17.0-1.0","14","1","2023-10-27 19:04:14","a725c3012b74bf33a1020a98cb69c237","45.71.5.119","Mozilla/5.0 (Windows NT 10.0; Win64; x64) AppleWebKit/537.36 (KHTML, like Gecko) Chrome/117.0.0.0 Safari/537.36","WebKit","Chrome","117.0.0.0","Windows","10.0","null","es-ES,es;q=0.9","true","null","tones/440hz_short.mp3","null","","","tone_number_task","50","25","tones/440hz_short.mp3","200","100","null","null",""
"","","","","","html-keyboard-response","26","106857","0.0-17.0-4.0-0.0","14","1","2023-10-27 19:04:14","a725c3012b74bf33a1020a98cb69c237","45.71.5.119","Mozilla/5.0 (Windows NT 10.0; Win64; x64) AppleWebKit/537.36 (KHTML, like Gecko) Chrome/117.0.0.0 Safari/537.36","WebKit","Chrome","117.0.0.0","Windows","10.0","null","es-ES,es;q=0.9","true","745","tones/440hz_short.mp3","a","","","empty_block","","25","","","","null","null",""
"","","","","","html-keyboard-response","27","107058","0.0-17.0-4.0-1.0","14","1","2023-10-27 19:04:14","a725c3012b74bf33a1020a98cb69c237","45.71.5.119","Mozilla/5.0 (Windows NT 10.0; Win64; x64) AppleWebKit/537.36 (KHTML, like Gecko) Chrome/117.0.0.0 Safari/537.36","WebKit","Chrome","117.0.0.0","Windows","10.0","null","es-ES,es;q=0.9","true","200","tones/440hz_short.mp3","j","","","empty_block","","25","","","","null","null",""
"","","","","","html-button-response","28","114873","0.0-19.0","14","1","2023-10-27 19:04:14","a725c3012b74bf33a1020a98cb69c237","45.71.5.119","Mozilla/5.0 (Windows NT 10.0; Win64; x64) AppleWebKit/537.36 (KHTML, like Gecko) Chrome/117.0.0.0 Safari/537.36","WebKit","Chrome","117.0.0.0","Windows","10.0","null","es-ES,es;q=0.9","true","7812","
  <h1> Muy bien </h1>
  <p> Ahora, en vez de ser presentados en dígitos, los números vendrán escritos en palabras. </p>
  <p> Por ejemplo, en vez de 44 te aparecerá ""cuarenta y cuatro"". </p>
  ","0","","","","","","","","","","",""
"","","","","","html-keyboard-response","29","117664","0.0-20.0-0.0","14","1","2023-10-27 19:04:14","a725c3012b74bf33a1020a98cb69c237","45.71.5.119","Mozilla/5.0 (Windows NT 10.0; Win64; x64) AppleWebKit/537.36 (KHTML, like Gecko) Chrome/117.0.0.0 Safari/537.36","WebKit","Chrome","117.0.0.0","Windows","10.0","null","es-ES,es;q=0.9","true","null","<div style=""font-size:100px;"">X</div>","null","","","fixation","","","","","","","",""
"","","","","","audio-keyboard-response","30","118234","0.0-20.0-1.0","14","1","2023-10-27 19:04:14","a725c3012b74bf33a1020a98cb69c237","45.71.5.119","Mozilla/5.0 (Windows NT 10.0; Win64; x64) AppleWebKit/537.36 (KHTML, like Gecko) Chrome/117.0.0.0 Safari/537.36","WebKit","Chrome","117.0.0.0","Windows","10.0","null","es-ES,es;q=0.9","true","571","tones/440hz_short.mp3","a","","","tone_number_task","1000","veinticinco","tones/440hz_short.mp3","1150","60","null","null",""
"","","","","","html-keyboard-response","31","118668","0.0-20.0-2.0-0.0","14","1","2023-10-27 19:04:14","a725c3012b74bf33a1020a98cb69c237","45.71.5.119","Mozilla/5.0 (Windows NT 10.0; Win64; x64) AppleWebKit/537.36 (KHTML, like Gecko) Chrome/117.0.0.0 Safari/537.36","WebKit","Chrome","117.0.0.0","Windows","10.0","null","es-ES,es;q=0.9","true","null","","null","","","delay_block","","","","","","null","null",""
"","","","","","html-keyboard-response","32","118821","0.0-20.0-2.0-1.0","14","1","2023-10-27 19:04:14","a725c3012b74bf33a1020a98cb69c237","45.71.5.119","Mozilla/5.0 (Windows NT 10.0; Win64; x64) AppleWebKit/537.36 (KHTML, like Gecko) Chrome/117.0.0.0 Safari/537.36","WebKit","Chrome","117.0.0.0","Windows","10.0","null","es-ES,es;q=0.9","true","null","<p id=""stimulus"" style=""font-size:60px;"">veinticinco</p>","null","","","tone_number_task_remaining_before_delay","","veinticinco","","579","60","null","null",""
"","","","","","html-keyboard-response","33","119498","0.0-20.0-5.0-0.0","14","1","2023-10-27 19:04:14","a725c3012b74bf33a1020a98cb69c237","45.71.5.119","Mozilla/5.0 (Windows NT 10.0; Win64; x64) AppleWebKit/537.36 (KHTML, like Gecko) Chrome/117.0.0.0 Safari/537.36","WebKit","Chrome","117.0.0.0","Windows","10.0","null","es-ES,es;q=0.9","true","676","<p id=""stimulus"" style=""font-size:60px;"">veinticinco</p>","j","","","empty_block","","veinticinco","","","","null","null",""
"","","","","","html-button-response","34","122245","0.0-22.0","14","1","2023-10-27 19:04:14","a725c3012b74bf33a1020a98cb69c237","45.71.5.119","Mozilla/5.0 (Windows NT 10.0; Win64; x64) AppleWebKit/537.36 (KHTML, like Gecko) Chrome/117.0.0.0 Safari/537.36","WebKit","Chrome","117.0.0.0","Windows","10.0","null","es-ES,es;q=0.9","true","2750","
  <h1> Fin del Entrenamiento </h1>
  <p> ¡Felicitaciones, terminaste el entrenamiento! Ahora vamos a comenzar con el experimento. </p>
  <p> Es importante tener en cuenta que consta de cuatro bloques.</p>
  <p> Podés aprovechar los momentos entre bloques para tomar un breve descanso o tomar agua entre cada uno</p>
  <p> Recordá que tenés que responder lo más rápido que puedas, pero sin equivocarte. </p>
  ","0","","","","","","","","","","",""
"","","","","","external-html","35","132805","0.0-23.0","14","1","2023-10-27 19:04:14","a725c3012b74bf33a1020a98cb69c237","45.71.5.119","Mozilla/5.0 (Windows NT 10.0; Win64; x64) AppleWebKit/537.36 (KHTML, like Gecko) Chrome/117.0.0.0 Safari/537.36","WebKit","Chrome","117.0.0.0","Windows","10.0","null","es-ES,es;q=0.9","true","10283","","","","instructions/instructions_digits_first.html","","","","","","","","",""
"","","","","","call-function","36","132808","0.0-24.0","14","1","2023-10-27 19:04:14","a725c3012b74bf33a1020a98cb69c237","45.71.5.119","Mozilla/5.0 (Windows NT 10.0; Win64; x64) AppleWebKit/537.36 (KHTML, like Gecko) Chrome/117.0.0.0 Safari/537.36","WebKit","Chrome","117.0.0.0","Windows","10.0","null","es-ES,es;q=0.9","true","","","","","","","","","","","","","",""
"","","","","","html-keyboard-response","37","135586","0.0-25.0","14","1","2023-10-27 19:04:14","a725c3012b74bf33a1020a98cb69c237","45.71.5.119","Mozilla/5.0 (Windows NT 10.0; Win64; x64) AppleWebKit/537.36 (KHTML, like Gecko) Chrome/117.0.0.0 Safari/537.36","WebKit","Chrome","117.0.0.0","Windows","10.0","null","es-ES,es;q=0.9","true","null","<div style=""font-size:100px;"">X</div>","null","","","fixation","","","","","","","",""
"","","","","","audio-keyboard-response","38","135839","0.0-26.0","14","1","2023-10-27 19:04:14","a725c3012b74bf33a1020a98cb69c237","45.71.5.119","Mozilla/5.0 (Windows NT 10.0; Win64; x64) AppleWebKit/537.36 (KHTML, like Gecko) Chrome/117.0.0.0 Safari/537.36","WebKit","Chrome","117.0.0.0","Windows","10.0","null","es-ES,es;q=0.9","true","null","tones/440hz_short.mp3","null","","","tone_number_task","102.5","25","tones/440hz_short.mp3","252.5","100","0","0",""
"","","","","","html-keyboard-response","39","136060","0.0-29.0-0.0","14","1","2023-10-27 19:04:14","a725c3012b74bf33a1020a98cb69c237","45.71.5.119","Mozilla/5.0 (Windows NT 10.0; Win64; x64) AppleWebKit/537.36 (KHTML, like Gecko) Chrome/117.0.0.0 Safari/537.36","WebKit","Chrome","117.0.0.0","Windows","10.0","null","es-ES,es;q=0.9","true","220","tones/440hz_short.mp3","a","","","empty_block","","25","","","","0","0",""
"","","","","","html-keyboard-response","40","136404","0.0-29.0-1.0","14","1","2023-10-27 19:04:14","a725c3012b74bf33a1020a98cb69c237","45.71.5.119","Mozilla/5.0 (Windows NT 10.0; Win64; x64) AppleWebKit/537.36 (KHTML, like Gecko) Chrome/117.0.0.0 Safari/537.36","WebKit","Chrome","117.0.0.0","Windows","10.0","null","es-ES,es;q=0.9","true","343","tones/440hz_short.mp3","j","","","empty_block","","25","","","","0","0",""
"","","","","","html-keyboard-response","41","139182","0.0-31.0","14","1","2023-10-27 19:04:14","a725c3012b74bf33a1020a98cb69c237","45.71.5.119","Mozilla/5.0 (Windows NT 10.0; Win64; x64) AppleWebKit/537.36 (KHTML, like Gecko) Chrome/117.0.0.0 Safari/537.36","WebKit","Chrome","117.0.0.0","Windows","10.0","null","es-ES,es;q=0.9","true","null","<div style=""font-size:100px;"">X</div>","null","","","fixation","","","","","","","",""
"","","","","","audio-keyboard-response","42","139435","0.0-32.0","14","1","2023-10-27 19:04:14","a725c3012b74bf33a1020a98cb69c237","45.71.5.119","Mozilla/5.0 (Windows NT 10.0; Win64; x64) AppleWebKit/537.36 (KHTML, like Gecko) Chrome/117.0.0.0 Safari/537.36","WebKit","Chrome","117.0.0.0","Windows","10.0","null","es-ES,es;q=0.9","true","null","tones/880hz_short.mp3","null","","","tone_number_task","102.5","47","tones/880hz_short.mp3","252.5","100","0","1",""
"","","","","","html-keyboard-response","43","139884","0.0-35.0-0.0","14","1","2023-10-27 19:04:14","a725c3012b74bf33a1020a98cb69c237","45.71.5.119","Mozilla/5.0 (Windows NT 10.0; Win64; x64) AppleWebKit/537.36 (KHTML, like Gecko) Chrome/117.0.0.0 Safari/537.36","WebKit","Chrome","117.0.0.0","Windows","10.0","null","es-ES,es;q=0.9","true","448","tones/880hz_short.mp3","s","","","empty_block","","47","","","","0","1",""
"","","","","","html-keyboard-response","44","141086","0.0-35.0-1.0","14","1","2023-10-27 19:04:14","a725c3012b74bf33a1020a98cb69c237","45.71.5.119","Mozilla/5.0 (Windows NT 10.0; Win64; x64) AppleWebKit/537.36 (KHTML, like Gecko) Chrome/117.0.0.0 Safari/537.36","WebKit","Chrome","117.0.0.0","Windows","10.0","null","es-ES,es;q=0.9","true","null","tones/880hz_short.mp3","null","","","empty_block","","47","","","","0","1",""
"","","","","","html-keyboard-response","45","143864","0.0-37.0","14","1","2023-10-27 19:04:14","a725c3012b74bf33a1020a98cb69c237","45.71.5.119","Mozilla/5.0 (Windows NT 10.0; Win64; x64) AppleWebKit/537.36 (KHTML, like Gecko) Chrome/117.0.0.0 Safari/537.36","WebKit","Chrome","117.0.0.0","Windows","10.0","null","es-ES,es;q=0.9","true","null","<div style=""font-size:100px;"">X</div>","null","","","fixation","","","","","","","",""
"","","","","","audio-keyboard-response","46","144017","0.0-38.0","14","1","2023-10-27 19:04:14","a725c3012b74bf33a1020a98cb69c237","45.71.5.119","Mozilla/5.0 (Windows NT 10.0; Win64; x64) AppleWebKit/537.36 (KHTML, like Gecko) Chrome/117.0.0.0 Safari/537.36","WebKit","Chrome","117.0.0.0","Windows","10.0","null","es-ES,es;q=0.9","true","null","tones/440hz_short.mp3","null","","","tone_number_task","0","29","tones/440hz_short.mp3","150","100","0","2",""
"","","","","","html-keyboard-response","47","144604","0.0-41.0-0.0","14","1","2023-10-27 19:04:14","a725c3012b74bf33a1020a98cb69c237","45.71.5.119","Mozilla/5.0 (Windows NT 10.0; Win64; x64) AppleWebKit/537.36 (KHTML, like Gecko) Chrome/117.0.0.0 Safari/537.36","WebKit","Chrome","117.0.0.0","Windows","10.0","null","es-ES,es;q=0.9","true","586","tones/440hz_short.mp3","a","","","empty_block","","29","","","","0","2",""
"","","","","","html-keyboard-response","48","144756","0.0-41.0-1.0","14","1","2023-10-27 19:04:14","a725c3012b74bf33a1020a98cb69c237","45.71.5.119","Mozilla/5.0 (Windows NT 10.0; Win64; x64) AppleWebKit/537.36 (KHTML, like Gecko) Chrome/117.0.0.0 Safari/537.36","WebKit","Chrome","117.0.0.0","Windows","10.0","null","es-ES,es;q=0.9","true","151","tones/440hz_short.mp3","j","","","empty_block","","29","","","","0","2",""
"","","","","","html-keyboard-response","49","147533","0.0-43.0","14","1","2023-10-27 19:04:14","a725c3012b74bf33a1020a98cb69c237","45.71.5.119","Mozilla/5.0 (Windows NT 10.0; Win64; x64) AppleWebKit/537.36 (KHTML, like Gecko) Chrome/117.0.0.0 Safari/537.36","WebKit","Chrome","117.0.0.0","Windows","10.0","null","es-ES,es;q=0.9","true","null","<div style=""font-size:100px;"">X</div>","null","","","fixation","","","","","","","",""
"","","","","","audio-keyboard-response","50","148228","0.0-44.0","14","1","2023-10-27 19:04:14","a725c3012b74bf33a1020a98cb69c237","45.71.5.119","Mozilla/5.0 (Windows NT 10.0; Win64; x64) AppleWebKit/537.36 (KHTML, like Gecko) Chrome/117.0.0.0 Safari/537.36","WebKit","Chrome","117.0.0.0","Windows","10.0","null","es-ES,es;q=0.9","true","691","tones/440hz_short.mp3","a","","","tone_number_task","1025","29","tones/440hz_short.mp3","1175","100","0","3",""
"","","","","","html-keyboard-response","51","148565","0.0-45.0-0.0","14","1","2023-10-27 19:04:14","a725c3012b74bf33a1020a98cb69c237","45.71.5.119","Mozilla/5.0 (Windows NT 10.0; Win64; x64) AppleWebKit/537.36 (KHTML, like Gecko) Chrome/117.0.0.0 Safari/537.36","WebKit","Chrome","117.0.0.0","Windows","10.0","null","es-ES,es;q=0.9","true","null","","null","","","delay_block","","","","","","0","3",""
"","","","","","html-keyboard-response","52","148717","0.0-45.0-1.0","14","1","2023-10-27 19:04:14","a725c3012b74bf33a1020a98cb69c237","45.71.5.119","Mozilla/5.0 (Windows NT 10.0; Win64; x64) AppleWebKit/537.36 (KHTML, like Gecko) Chrome/117.0.0.0 Safari/537.36","WebKit","Chrome","117.0.0.0","Windows","10.0","null","es-ES,es;q=0.9","true","null","<p id=""stimulus"" style=""font-size:100px;"">29</p>","null","","","tone_number_task_remaining_before_delay","","29","","484","100","0","3",""
"","","","","","html-keyboard-response","53","149332","0.0-48.0-0.0","14","1","2023-10-27 19:04:14","a725c3012b74bf33a1020a98cb69c237","45.71.5.119","Mozilla/5.0 (Windows NT 10.0; Win64; x64) AppleWebKit/537.36 (KHTML, like Gecko) Chrome/117.0.0.0 Safari/537.36","WebKit","Chrome","117.0.0.0","Windows","10.0","null","es-ES,es;q=0.9","true","614","<p id=""stimulus"" style=""font-size:100px;"">29</p>","j","","","empty_block","","29","","","","0","3",""
"","","","","","html-keyboard-response","54","152110","0.0-49.0","14","1","2023-10-27 19:04:14","a725c3012b74bf33a1020a98cb69c237","45.71.5.119","Mozilla/5.0 (Windows NT 10.0; Win64; x64) AppleWebKit/537.36 (KHTML, like Gecko) Chrome/117.0.0.0 Safari/537.36","WebKit","Chrome","117.0.0.0","Windows","10.0","null","es-ES,es;q=0.9","true","null","<div style=""font-size:100px;"">X</div>","null","","","fixation","","","","","","","",""
"","","","","","audio-keyboard-response","55","152364","0.0-50.0","14","1","2023-10-27 19:04:14","a725c3012b74bf33a1020a98cb69c237","45.71.5.119","Mozilla/5.0 (Windows NT 10.0; Win64; x64) AppleWebKit/537.36 (KHTML, like Gecko) Chrome/117.0.0.0 Safari/537.36","WebKit","Chrome","117.0.0.0","Windows","10.0","null","es-ES,es;q=0.9","true","null","tones/440hz_short.mp3","null","","","tone_number_task","102.5","56","tones/440hz_short.mp3","252.5","100","0","4",""
"","","","","","html-keyboard-response","56","152820","0.0-53.0-0.0","14","1","2023-10-27 19:04:14","a725c3012b74bf33a1020a98cb69c237","45.71.5.119","Mozilla/5.0 (Windows NT 10.0; Win64; x64) AppleWebKit/537.36 (KHTML, like Gecko) Chrome/117.0.0.0 Safari/537.36","WebKit","Chrome","117.0.0.0","Windows","10.0","null","es-ES,es;q=0.9","true","455","tones/440hz_short.mp3","a","","","empty_block","","56","","","","0","4",""
"","","","","","html-keyboard-response","57","153069","0.0-53.0-1.0","14","1","2023-10-27 19:04:14","a725c3012b74bf33a1020a98cb69c237","45.71.5.119","Mozilla/5.0 (Windows NT 10.0; Win64; x64) AppleWebKit/537.36 (KHTML, like Gecko) Chrome/117.0.0.0 Safari/537.36","WebKit","Chrome","117.0.0.0","Windows","10.0","null","es-ES,es;q=0.9","true","248","tones/440hz_short.mp3","k","","","empty_block","","56","","","","0","4",""
"","","","","","html-keyboard-response","58","155848","0.0-55.0","14","1","2023-10-27 19:04:14","a725c3012b74bf33a1020a98cb69c237","45.71.5.119","Mozilla/5.0 (Windows NT 10.0; Win64; x64) AppleWebKit/537.36 (KHTML, like Gecko) Chrome/117.0.0.0 Safari/537.36","WebKit","Chrome","117.0.0.0","Windows","10.0","null","es-ES,es;q=0.9","true","null","<div style=""font-size:100px;"">X</div>","null","","","fixation","","","","","","","",""
"","","","","","audio-keyboard-response","59","157026","0.0-56.0","14","1","2023-10-27 19:04:14","a725c3012b74bf33a1020a98cb69c237","45.71.5.119","Mozilla/5.0 (Windows NT 10.0; Win64; x64) AppleWebKit/537.36 (KHTML, like Gecko) Chrome/117.0.0.0 Safari/537.36","WebKit","Chrome","117.0.0.0","Windows","10.0","null","es-ES,es;q=0.9","true","null","tones/880hz_short.mp3","null","","","tone_number_task","1025","59","tones/880hz_short.mp3","1175","100","0","5",""
"","","","","","html-keyboard-response","60","157316","0.0-59.0-0.0","14","1","2023-10-27 19:04:14","a725c3012b74bf33a1020a98cb69c237","45.71.5.119","Mozilla/5.0 (Windows NT 10.0; Win64; x64) AppleWebKit/537.36 (KHTML, like Gecko) Chrome/117.0.0.0 Safari/537.36","WebKit","Chrome","117.0.0.0","Windows","10.0","null","es-ES,es;q=0.9","true","289","tones/880hz_short.mp3","s","","","empty_block","","59","","","","0","5",""
"","","","","","html-keyboard-response","61","157660","0.0-59.0-1.0","14","1","2023-10-27 19:04:14","a725c3012b74bf33a1020a98cb69c237","45.71.5.119","Mozilla/5.0 (Windows NT 10.0; Win64; x64) AppleWebKit/537.36 (KHTML, like Gecko) Chrome/117.0.0.0 Safari/537.36","WebKit","Chrome","117.0.0.0","Windows","10.0","null","es-ES,es;q=0.9","true","343","tones/880hz_short.mp3","k","","","empty_block","","59","","","","0","5",""
"","","","","","html-keyboard-response","62","160437","0.0-61.0","14","1","2023-10-27 19:04:14","a725c3012b74bf33a1020a98cb69c237","45.71.5.119","Mozilla/5.0 (Windows NT 10.0; Win64; x64) AppleWebKit/537.36 (KHTML, like Gecko) Chrome/117.0.0.0 Safari/537.36","WebKit","Chrome","117.0.0.0","Windows","10.0","null","es-ES,es;q=0.9","true","null","<div style=""font-size:100px;"">X</div>","null","","","fixation","","","","","","","",""
"","","","","","audio-keyboard-response","63","160590","0.0-62.0","14","1","2023-10-27 19:04:14","a725c3012b74bf33a1020a98cb69c237","45.71.5.119","Mozilla/5.0 (Windows NT 10.0; Win64; x64) AppleWebKit/537.36 (KHTML, like Gecko) Chrome/117.0.0.0 Safari/537.36","WebKit","Chrome","117.0.0.0","Windows","10.0","null","es-ES,es;q=0.9","true","null","tones/880hz_short.mp3","null","","","tone_number_task","0","49","tones/880hz_short.mp3","150","100","0","6",""
"","","","","","html-keyboard-response","64","161052","0.0-65.0-0.0","14","1","2023-10-27 19:04:14","a725c3012b74bf33a1020a98cb69c237","45.71.5.119","Mozilla/5.0 (Windows NT 10.0; Win64; x64) AppleWebKit/537.36 (KHTML, like Gecko) Chrome/117.0.0.0 Safari/537.36","WebKit","Chrome","117.0.0.0","Windows","10.0","null","es-ES,es;q=0.9","true","461","tones/880hz_short.mp3","s","","","empty_block","","49","","","","0","6",""
"","","","","","html-keyboard-response","65","161332","0.0-65.0-1.0","14","1","2023-10-27 19:04:14","a725c3012b74bf33a1020a98cb69c237","45.71.5.119","Mozilla/5.0 (Windows NT 10.0; Win64; x64) AppleWebKit/537.36 (KHTML, like Gecko) Chrome/117.0.0.0 Safari/537.36","WebKit","Chrome","117.0.0.0","Windows","10.0","null","es-ES,es;q=0.9","true","279","tones/880hz_short.mp3","k","","","empty_block","","49","","","","0","6",""
"","","","","","html-keyboard-response","66","164110","0.0-67.0","14","1","2023-10-27 19:04:14","a725c3012b74bf33a1020a98cb69c237","45.71.5.119","Mozilla/5.0 (Windows NT 10.0; Win64; x64) AppleWebKit/537.36 (KHTML, like Gecko) Chrome/117.0.0.0 Safari/537.36","WebKit","Chrome","117.0.0.0","Windows","10.0","null","es-ES,es;q=0.9","true","null","<div style=""font-size:100px;"">X</div>","null","","","fixation","","","","","","","",""
"","","","","","audio-keyboard-response","67","164363","0.0-68.0","14","1","2023-10-27 19:04:14","a725c3012b74bf33a1020a98cb69c237","45.71.5.119","Mozilla/5.0 (Windows NT 10.0; Win64; x64) AppleWebKit/537.36 (KHTML, like Gecko) Chrome/117.0.0.0 Safari/537.36","WebKit","Chrome","117.0.0.0","Windows","10.0","null","es-ES,es;q=0.9","true","null","tones/440hz_short.mp3","null","","","tone_number_task","102.5","56","tones/440hz_short.mp3","252.5","100","0","7",""
"","","","","","html-keyboard-response","68","165060","0.0-71.0-0.0","14","1","2023-10-27 19:04:14","a725c3012b74bf33a1020a98cb69c237","45.71.5.119","Mozilla/5.0 (Windows NT 10.0; Win64; x64) AppleWebKit/537.36 (KHTML, like Gecko) Chrome/117.0.0.0 Safari/537.36","WebKit","Chrome","117.0.0.0","Windows","10.0","null","es-ES,es;q=0.9","true","696","tones/440hz_short.mp3","a","","","empty_block","","56","","","","0","7",""
"","","","","","html-keyboard-response","69","165332","0.0-71.0-1.0","14","1","2023-10-27 19:04:14","a725c3012b74bf33a1020a98cb69c237","45.71.5.119","Mozilla/5.0 (Windows NT 10.0; Win64; x64) AppleWebKit/537.36 (KHTML, like Gecko) Chrome/117.0.0.0 Safari/537.36","WebKit","Chrome","117.0.0.0","Windows","10.0","null","es-ES,es;q=0.9","true","271","tones/440hz_short.mp3","k","","","empty_block","","56","","","","0","7",""
"","","","","","html-keyboard-response","70","168110","0.0-73.0","14","1","2023-10-27 19:04:14","a725c3012b74bf33a1020a98cb69c237","45.71.5.119","Mozilla/5.0 (Windows NT 10.0; Win64; x64) AppleWebKit/537.36 (KHTML, like Gecko) Chrome/117.0.0.0 Safari/537.36","WebKit","Chrome","117.0.0.0","Windows","10.0","null","es-ES,es;q=0.9","true","null","<div style=""font-size:100px;"">X</div>","null","","","fixation","","","","","","","",""
"","","","","","audio-keyboard-response","71","168805","0.0-74.0","14","1","2023-10-27 19:04:14","a725c3012b74bf33a1020a98cb69c237","45.71.5.119","Mozilla/5.0 (Windows NT 10.0; Win64; x64) AppleWebKit/537.36 (KHTML, like Gecko) Chrome/117.0.0.0 Safari/537.36","WebKit","Chrome","117.0.0.0","Windows","10.0","null","es-ES,es;q=0.9","true","691","tones/440hz_short.mp3","a","","","tone_number_task","992.5","23","tones/440hz_short.mp3","1142.5","100","0","8",""
"","","","","","html-keyboard-response","72","169110","0.0-75.0-0.0","14","1","2023-10-27 19:04:14","a725c3012b74bf33a1020a98cb69c237","45.71.5.119","Mozilla/5.0 (Windows NT 10.0; Win64; x64) AppleWebKit/537.36 (KHTML, like Gecko) Chrome/117.0.0.0 Safari/537.36","WebKit","Chrome","117.0.0.0","Windows","10.0","null","es-ES,es;q=0.9","true","null","","null","","","delay_block","","","","","","0","8",""
"","","","","","html-keyboard-response","73","169264","0.0-75.0-1.0","14","1","2023-10-27 19:04:14","a725c3012b74bf33a1020a98cb69c237","45.71.5.119","Mozilla/5.0 (Windows NT 10.0; Win64; x64) AppleWebKit/537.36 (KHTML, like Gecko) Chrome/117.0.0.0 Safari/537.36","WebKit","Chrome","117.0.0.0","Windows","10.0","null","es-ES,es;q=0.9","true","null","<p id=""stimulus"" style=""font-size:100px;"">23</p>","null","","","tone_number_task_remaining_before_delay","","23","","451.5","100","0","8",""
"","","","","","html-keyboard-response","74","169748","0.0-78.0-0.0","14","1","2023-10-27 19:04:14","a725c3012b74bf33a1020a98cb69c237","45.71.5.119","Mozilla/5.0 (Windows NT 10.0; Win64; x64) AppleWebKit/537.36 (KHTML, like Gecko) Chrome/117.0.0.0 Safari/537.36","WebKit","Chrome","117.0.0.0","Windows","10.0","null","es-ES,es;q=0.9","true","479","<p id=""stimulus"" style=""font-size:100px;"">23</p>","j","","","empty_block","","23","","","","0","8",""
"","","","","","html-keyboard-response","75","172526","0.0-79.0","14","1","2023-10-27 19:04:14","a725c3012b74bf33a1020a98cb69c237","45.71.5.119","Mozilla/5.0 (Windows NT 10.0; Win64; x64) AppleWebKit/537.36 (KHTML, like Gecko) Chrome/117.0.0.0 Safari/537.36","WebKit","Chrome","117.0.0.0","Windows","10.0","null","es-ES,es;q=0.9","true","null","<div style=""font-size:100px;"">X</div>","null","","","fixation","","","","","","","",""
"","","","","","audio-keyboard-response","76","172682","0.0-80.0","14","1","2023-10-27 19:04:14","a725c3012b74bf33a1020a98cb69c237","45.71.5.119","Mozilla/5.0 (Windows NT 10.0; Win64; x64) AppleWebKit/537.36 (KHTML, like Gecko) Chrome/117.0.0.0 Safari/537.36","WebKit","Chrome","117.0.0.0","Windows","10.0","null","es-ES,es;q=0.9","true","null","tones/440hz_short.mp3","null","","","tone_number_task","0","52","tones/440hz_short.mp3","150","100","0","9",""
"","","","","","html-keyboard-response","77","173054","0.0-83.0-0.0","14","1","2023-10-27 19:04:14","a725c3012b74bf33a1020a98cb69c237","45.71.5.119","Mozilla/5.0 (Windows NT 10.0; Win64; x64) AppleWebKit/537.36 (KHTML, like Gecko) Chrome/117.0.0.0 Safari/537.36","WebKit","Chrome","117.0.0.0","Windows","10.0","null","es-ES,es;q=0.9","true","368","tones/440hz_short.mp3","a","","","empty_block","","52","","","","0","9",""
"","","","","","html-keyboard-response","78","173461","0.0-83.0-1.0","14","1","2023-10-27 19:04:14","a725c3012b74bf33a1020a98cb69c237","45.71.5.119","Mozilla/5.0 (Windows NT 10.0; Win64; x64) AppleWebKit/537.36 (KHTML, like Gecko) Chrome/117.0.0.0 Safari/537.36","WebKit","Chrome","117.0.0.0","Windows","10.0","null","es-ES,es;q=0.9","true","403","tones/440hz_short.mp3","k","","","empty_block","","52","","","","0","9",""
"","","","","","html-keyboard-response","79","176242","0.0-85.0","14","1","2023-10-27 19:04:14","a725c3012b74bf33a1020a98cb69c237","45.71.5.119","Mozilla/5.0 (Windows NT 10.0; Win64; x64) AppleWebKit/537.36 (KHTML, like Gecko) Chrome/117.0.0.0 Safari/537.36","WebKit","Chrome","117.0.0.0","Windows","10.0","null","es-ES,es;q=0.9","true","null","<div style=""font-size:100px;"">X</div>","null","","","fixation","","","","","","","",""
"","","","","","audio-keyboard-response","80","176394","0.0-86.0","14","1","2023-10-27 19:04:14","a725c3012b74bf33a1020a98cb69c237","45.71.5.119","Mozilla/5.0 (Windows NT 10.0; Win64; x64) AppleWebKit/537.36 (KHTML, like Gecko) Chrome/117.0.0.0 Safari/537.36","WebKit","Chrome","117.0.0.0","Windows","10.0","null","es-ES,es;q=0.9","true","null","tones/880hz_short.mp3","null","","","tone_number_task","0","24","tones/880hz_short.mp3","150","100","0","10",""
"","","","","","html-keyboard-response","81","177189","0.0-89.0-0.0","14","1","2023-10-27 19:04:14","a725c3012b74bf33a1020a98cb69c237","45.71.5.119","Mozilla/5.0 (Windows NT 10.0; Win64; x64) AppleWebKit/537.36 (KHTML, like Gecko) Chrome/117.0.0.0 Safari/537.36","WebKit","Chrome","117.0.0.0","Windows","10.0","null","es-ES,es;q=0.9","true","793","tones/880hz_short.mp3","s","","","empty_block","","24","","","","0","10",""
"","","","","","html-keyboard-response","82","177614","0.0-89.0-1.0","14","1","2023-10-27 19:04:14","a725c3012b74bf33a1020a98cb69c237","45.71.5.119","Mozilla/5.0 (Windows NT 10.0; Win64; x64) AppleWebKit/537.36 (KHTML, like Gecko) Chrome/117.0.0.0 Safari/537.36","WebKit","Chrome","117.0.0.0","Windows","10.0","null","es-ES,es;q=0.9","true","420","tones/880hz_short.mp3","j","","","empty_block","","24","","","","0","10",""
"","","","","","html-keyboard-response","83","180395","0.0-91.0","14","1","2023-10-27 19:04:14","a725c3012b74bf33a1020a98cb69c237","45.71.5.119","Mozilla/5.0 (Windows NT 10.0; Win64; x64) AppleWebKit/537.36 (KHTML, like Gecko) Chrome/117.0.0.0 Safari/537.36","WebKit","Chrome","117.0.0.0","Windows","10.0","null","es-ES,es;q=0.9","true","null","<div style=""font-size:100px;"">X</div>","null","","","fixation","","","","","","","",""
"","","","","","audio-keyboard-response","84","181061","0.0-92.0","14","1","2023-10-27 19:04:14","a725c3012b74bf33a1020a98cb69c237","45.71.5.119","Mozilla/5.0 (Windows NT 10.0; Win64; x64) AppleWebKit/537.36 (KHTML, like Gecko) Chrome/117.0.0.0 Safari/537.36","WebKit","Chrome","117.0.0.0","Windows","10.0","null","es-ES,es;q=0.9","true","659","tones/880hz_short.mp3","s","","","tone_number_task","992.5","37","tones/880hz_short.mp3","1142.5","100","0","11",""
"","","","","","html-keyboard-response","85","181401","0.0-93.0-0.0","14","1","2023-10-27 19:04:14","a725c3012b74bf33a1020a98cb69c237","45.71.5.119","Mozilla/5.0 (Windows NT 10.0; Win64; x64) AppleWebKit/537.36 (KHTML, like Gecko) Chrome/117.0.0.0 Safari/537.36","WebKit","Chrome","117.0.0.0","Windows","10.0","null","es-ES,es;q=0.9","true","null","","null","","","delay_block","","","","","","0","11",""
"","","","","","html-keyboard-response","86","181551","0.0-93.0-1.0","14","1","2023-10-27 19:04:14","a725c3012b74bf33a1020a98cb69c237","45.71.5.119","Mozilla/5.0 (Windows NT 10.0; Win64; x64) AppleWebKit/537.36 (KHTML, like Gecko) Chrome/117.0.0.0 Safari/537.36","WebKit","Chrome","117.0.0.0","Windows","10.0","null","es-ES,es;q=0.9","true","null","<p id=""stimulus"" style=""font-size:100px;"">37</p>","null","","","tone_number_task_remaining_before_delay","","37","","483.5","100","0","11",""
"","","","","","html-keyboard-response","87","182257","0.0-96.0-0.0","14","1","2023-10-27 19:04:14","a725c3012b74bf33a1020a98cb69c237","45.71.5.119","Mozilla/5.0 (Windows NT 10.0; Win64; x64) AppleWebKit/537.36 (KHTML, like Gecko) Chrome/117.0.0.0 Safari/537.36","WebKit","Chrome","117.0.0.0","Windows","10.0","null","es-ES,es;q=0.9","true","700","<p id=""stimulus"" style=""font-size:100px;"">37</p>","j","","","empty_block","","37","","","","0","11",""
"","","","","","html-keyboard-response","88","185039","0.0-97.0","14","1","2023-10-27 19:04:14","a725c3012b74bf33a1020a98cb69c237","45.71.5.119","Mozilla/5.0 (Windows NT 10.0; Win64; x64) AppleWebKit/537.36 (KHTML, like Gecko) Chrome/117.0.0.0 Safari/537.36","WebKit","Chrome","117.0.0.0","Windows","10.0","null","es-ES,es;q=0.9","true","null","<div style=""font-size:100px;"">X</div>","null","","","fixation","","","","","","","",""
"","","","","","audio-keyboard-response","89","185195","0.0-98.0","14","1","2023-10-27 19:04:14","a725c3012b74bf33a1020a98cb69c237","45.71.5.119","Mozilla/5.0 (Windows NT 10.0; Win64; x64) AppleWebKit/537.36 (KHTML, like Gecko) Chrome/117.0.0.0 Safari/537.36","WebKit","Chrome","117.0.0.0","Windows","10.0","null","es-ES,es;q=0.9","true","null","tones/440hz_short.mp3","null","","","tone_number_task","0","50","tones/440hz_short.mp3","150","100","0","12",""
"","","","","","html-keyboard-response","90","185920","0.0-101.0-0.0","14","1","2023-10-27 19:04:14","a725c3012b74bf33a1020a98cb69c237","45.71.5.119","Mozilla/5.0 (Windows NT 10.0; Win64; x64) AppleWebKit/537.36 (KHTML, like Gecko) Chrome/117.0.0.0 Safari/537.36","WebKit","Chrome","117.0.0.0","Windows","10.0","null","es-ES,es;q=0.9","true","719","tones/440hz_short.mp3","a","","","empty_block","","50","","","","0","12",""
"","","","","","html-keyboard-response","91","186192","0.0-101.0-1.0","14","1","2023-10-27 19:04:14","a725c3012b74bf33a1020a98cb69c237","45.71.5.119","Mozilla/5.0 (Windows NT 10.0; Win64; x64) AppleWebKit/537.36 (KHTML, like Gecko) Chrome/117.0.0.0 Safari/537.36","WebKit","Chrome","117.0.0.0","Windows","10.0","null","es-ES,es;q=0.9","true","271","tones/440hz_short.mp3","k","","","empty_block","","50","","","","0","12",""
"","","","","","html-keyboard-response","92","188983","0.0-103.0","14","1","2023-10-27 19:04:14","a725c3012b74bf33a1020a98cb69c237","45.71.5.119","Mozilla/5.0 (Windows NT 10.0; Win64; x64) AppleWebKit/537.36 (KHTML, like Gecko) Chrome/117.0.0.0 Safari/537.36","WebKit","Chrome","117.0.0.0","Windows","10.0","null","es-ES,es;q=0.9","true","null","<div style=""font-size:100px;"">X</div>","null","","","fixation","","","","","","","",""
"","","","","","audio-keyboard-response","93","189775","0.0-104.0","14","1","2023-10-27 19:04:14","a725c3012b74bf33a1020a98cb69c237","45.71.5.119","Mozilla/5.0 (Windows NT 10.0; Win64; x64) AppleWebKit/537.36 (KHTML, like Gecko) Chrome/117.0.0.0 Safari/537.36","WebKit","Chrome","117.0.0.0","Windows","10.0","null","es-ES,es;q=0.9","true","789","tones/440hz_short.mp3","a","","","tone_number_task","1025","61","tones/440hz_short.mp3","1175","100","0","13",""
"","","","","","html-keyboard-response","94","190015","0.0-105.0-0.0","14","1","2023-10-27 19:04:14","a725c3012b74bf33a1020a98cb69c237","45.71.5.119","Mozilla/5.0 (Windows NT 10.0; Win64; x64) AppleWebKit/537.36 (KHTML, like Gecko) Chrome/117.0.0.0 Safari/537.36","WebKit","Chrome","117.0.0.0","Windows","10.0","null","es-ES,es;q=0.9","true","null","","null","","","delay_block","","","","","","0","13",""
"","","","","","html-keyboard-response","95","190167","0.0-105.0-1.0","14","1","2023-10-27 19:04:14","a725c3012b74bf33a1020a98cb69c237","45.71.5.119","Mozilla/5.0 (Windows NT 10.0; Win64; x64) AppleWebKit/537.36 (KHTML, like Gecko) Chrome/117.0.0.0 Safari/537.36","WebKit","Chrome","117.0.0.0","Windows","10.0","null","es-ES,es;q=0.9","true","null","<p id=""stimulus"" style=""font-size:100px;"">61</p>","null","","","tone_number_task_remaining_before_delay","","61","","386","100","0","13",""
"","","","","","html-keyboard-response","96","190561","0.0-108.0-0.0","14","1","2023-10-27 19:04:14","a725c3012b74bf33a1020a98cb69c237","45.71.5.119","Mozilla/5.0 (Windows NT 10.0; Win64; x64) AppleWebKit/537.36 (KHTML, like Gecko) Chrome/117.0.0.0 Safari/537.36","WebKit","Chrome","117.0.0.0","Windows","10.0","null","es-ES,es;q=0.9","true","392","<p id=""stimulus"" style=""font-size:100px;"">61</p>","k","","","empty_block","","61","","","","0","13",""
"","","","","","html-keyboard-response","97","193350","0.0-109.0","14","1","2023-10-27 19:04:14","a725c3012b74bf33a1020a98cb69c237","45.71.5.119","Mozilla/5.0 (Windows NT 10.0; Win64; x64) AppleWebKit/537.36 (KHTML, like Gecko) Chrome/117.0.0.0 Safari/537.36","WebKit","Chrome","117.0.0.0","Windows","10.0","null","es-ES,es;q=0.9","true","null","<div style=""font-size:100px;"">X</div>","null","","","fixation","","","","","","","",""
"","","","","","audio-keyboard-response","98","193506","0.0-110.0","14","1","2023-10-27 19:04:14","a725c3012b74bf33a1020a98cb69c237","45.71.5.119","Mozilla/5.0 (Windows NT 10.0; Win64; x64) AppleWebKit/537.36 (KHTML, like Gecko) Chrome/117.0.0.0 Safari/537.36","WebKit","Chrome","117.0.0.0","Windows","10.0","null","es-ES,es;q=0.9","true","null","tones/880hz_short.mp3","null","","","tone_number_task","0","57","tones/880hz_short.mp3","150","100","0","14",""
"","","","","","html-keyboard-response","99","194057","0.0-113.0-0.0","14","1","2023-10-27 19:04:14","a725c3012b74bf33a1020a98cb69c237","45.71.5.119","Mozilla/5.0 (Windows NT 10.0; Win64; x64) AppleWebKit/537.36 (KHTML, like Gecko) Chrome/117.0.0.0 Safari/537.36","WebKit","Chrome","117.0.0.0","Windows","10.0","null","es-ES,es;q=0.9","true","545","tones/880hz_short.mp3","s","","","empty_block","","57","","","","0","14",""
"","","","","","html-keyboard-response","100","194264","0.0-113.0-1.0","14","1","2023-10-27 19:04:14","a725c3012b74bf33a1020a98cb69c237","45.71.5.119","Mozilla/5.0 (Windows NT 10.0; Win64; x64) AppleWebKit/537.36 (KHTML, like Gecko) Chrome/117.0.0.0 Safari/537.36","WebKit","Chrome","117.0.0.0","Windows","10.0","null","es-ES,es;q=0.9","true","202","tones/880hz_short.mp3","k","","","empty_block","","57","","","","0","14",""
"","","","","","html-keyboard-response","101","197046","0.0-115.0","14","1","2023-10-27 19:04:14","a725c3012b74bf33a1020a98cb69c237","45.71.5.119","Mozilla/5.0 (Windows NT 10.0; Win64; x64) AppleWebKit/537.36 (KHTML, like Gecko) Chrome/117.0.0.0 Safari/537.36","WebKit","Chrome","117.0.0.0","Windows","10.0","null","es-ES,es;q=0.9","true","null","<div style=""font-size:100px;"">X</div>","null","","","fixation","","","","","","","",""
"","","","","","audio-keyboard-response","102","197695","0.0-116.0","14","1","2023-10-27 19:04:14","a725c3012b74bf33a1020a98cb69c237","45.71.5.119","Mozilla/5.0 (Windows NT 10.0; Win64; x64) AppleWebKit/537.36 (KHTML, like Gecko) Chrome/117.0.0.0 Safari/537.36","WebKit","Chrome","117.0.0.0","Windows","10.0","null","es-ES,es;q=0.9","true","648","tones/880hz_short.mp3","s","","","tone_number_task","1025","40","tones/880hz_short.mp3","1175","100","0","15",""
"","","","","","html-keyboard-response","103","198075","0.0-117.0-0.0","14","1","2023-10-27 19:04:14","a725c3012b74bf33a1020a98cb69c237","45.71.5.119","Mozilla/5.0 (Windows NT 10.0; Win64; x64) AppleWebKit/537.36 (KHTML, like Gecko) Chrome/117.0.0.0 Safari/537.36","WebKit","Chrome","117.0.0.0","Windows","10.0","null","es-ES,es;q=0.9","true","null","","null","","","delay_block","","","","","","0","15",""
"","","","","","html-keyboard-response","104","198229","0.0-117.0-1.0","14","1","2023-10-27 19:04:14","a725c3012b74bf33a1020a98cb69c237","45.71.5.119","Mozilla/5.0 (Windows NT 10.0; Win64; x64) AppleWebKit/537.36 (KHTML, like Gecko) Chrome/117.0.0.0 Safari/537.36","WebKit","Chrome","117.0.0.0","Windows","10.0","null","es-ES,es;q=0.9","true","null","<p id=""stimulus"" style=""font-size:100px;"">40</p>","null","","","tone_number_task_remaining_before_delay","","40","","527","100","0","15",""
"","","","","","html-keyboard-response","105","199437","0.0-120.0-0.0","14","1","2023-10-27 19:04:14","a725c3012b74bf33a1020a98cb69c237","45.71.5.119","Mozilla/5.0 (Windows NT 10.0; Win64; x64) AppleWebKit/537.36 (KHTML, like Gecko) Chrome/117.0.0.0 Safari/537.36","WebKit","Chrome","117.0.0.0","Windows","10.0","null","es-ES,es;q=0.9","true","null","<p id=""stimulus"" style=""font-size:100px;"">40</p>","null","","","empty_block","","40","","","","0","15",""
"","","","","","html-keyboard-response","106","202218","0.0-121.0","14","1","2023-10-27 19:04:14","a725c3012b74bf33a1020a98cb69c237","45.71.5.119","Mozilla/5.0 (Windows NT 10.0; Win64; x64) AppleWebKit/537.36 (KHTML, like Gecko) Chrome/117.0.0.0 Safari/537.36","WebKit","Chrome","117.0.0.0","Windows","10.0","null","es-ES,es;q=0.9","true","null","<div style=""font-size:100px;"">X</div>","null","","","fixation","","","","","","","",""
"","","","","","audio-keyboard-response","107","202477","0.0-122.0","14","1","2023-10-27 19:04:14","a725c3012b74bf33a1020a98cb69c237","45.71.5.119","Mozilla/5.0 (Windows NT 10.0; Win64; x64) AppleWebKit/537.36 (KHTML, like Gecko) Chrome/117.0.0.0 Safari/537.36","WebKit","Chrome","117.0.0.0","Windows","10.0","null","es-ES,es;q=0.9","true","null","tones/880hz_short.mp3","null","","","tone_number_task","102.5","65","tones/880hz_short.mp3","252.5","100","0","16",""
"","","","","","html-keyboard-response","108","203119","0.0-125.0-0.0","14","1","2023-10-27 19:04:14","a725c3012b74bf33a1020a98cb69c237","45.71.5.119","Mozilla/5.0 (Windows NT 10.0; Win64; x64) AppleWebKit/537.36 (KHTML, like Gecko) Chrome/117.0.0.0 Safari/537.36","WebKit","Chrome","117.0.0.0","Windows","10.0","null","es-ES,es;q=0.9","true","641","tones/880hz_short.mp3","s","","","empty_block","","65","","","","0","16",""
"","","","","","html-keyboard-response","109","203353","0.0-125.0-1.0","14","1","2023-10-27 19:04:14","a725c3012b74bf33a1020a98cb69c237","45.71.5.119","Mozilla/5.0 (Windows NT 10.0; Win64; x64) AppleWebKit/537.36 (KHTML, like Gecko) Chrome/117.0.0.0 Safari/537.36","WebKit","Chrome","117.0.0.0","Windows","10.0","null","es-ES,es;q=0.9","true","231","tones/880hz_short.mp3","k","","","empty_block","","65","","","","0","16",""
"","","","","","html-keyboard-response","110","206135","0.0-127.0","14","1","2023-10-27 19:04:14","a725c3012b74bf33a1020a98cb69c237","45.71.5.119","Mozilla/5.0 (Windows NT 10.0; Win64; x64) AppleWebKit/537.36 (KHTML, like Gecko) Chrome/117.0.0.0 Safari/537.36","WebKit","Chrome","117.0.0.0","Windows","10.0","null","es-ES,es;q=0.9","true","null","<div style=""font-size:100px;"">X</div>","null","","","fixation","","","","","","","",""
"","","","","","audio-keyboard-response","111","206785","0.0-128.0","14","1","2023-10-27 19:04:14","a725c3012b74bf33a1020a98cb69c237","45.71.5.119","Mozilla/5.0 (Windows NT 10.0; Win64; x64) AppleWebKit/537.36 (KHTML, like Gecko) Chrome/117.0.0.0 Safari/537.36","WebKit","Chrome","117.0.0.0","Windows","10.0","null","es-ES,es;q=0.9","true","640","tones/440hz_short.mp3","a","","","tone_number_task","992.5","67","tones/440hz_short.mp3","1142.5","100","0","17",""
"","","","","","html-keyboard-response","112","207143","0.0-129.0-0.0","14","1","2023-10-27 19:04:14","a725c3012b74bf33a1020a98cb69c237","45.71.5.119","Mozilla/5.0 (Windows NT 10.0; Win64; x64) AppleWebKit/537.36 (KHTML, like Gecko) Chrome/117.0.0.0 Safari/537.36","WebKit","Chrome","117.0.0.0","Windows","10.0","null","es-ES,es;q=0.9","true","null","","null","","","delay_block","","","","","","0","17",""
"","","","","","html-keyboard-response","113","207300","0.0-129.0-1.0","14","1","2023-10-27 19:04:14","a725c3012b74bf33a1020a98cb69c237","45.71.5.119","Mozilla/5.0 (Windows NT 10.0; Win64; x64) AppleWebKit/537.36 (KHTML, like Gecko) Chrome/117.0.0.0 Safari/537.36","WebKit","Chrome","117.0.0.0","Windows","10.0","null","es-ES,es;q=0.9","true","null","<p id=""stimulus"" style=""font-size:100px;"">67</p>","null","","","tone_number_task_remaining_before_delay","","67","","502.5","100","0","17",""
"","","","","","html-keyboard-response","114","207656","0.0-132.0-0.0","14","1","2023-10-27 19:04:14","a725c3012b74bf33a1020a98cb69c237","45.71.5.119","Mozilla/5.0 (Windows NT 10.0; Win64; x64) AppleWebKit/537.36 (KHTML, like Gecko) Chrome/117.0.0.0 Safari/537.36","WebKit","Chrome","117.0.0.0","Windows","10.0","null","es-ES,es;q=0.9","true","351","<p id=""stimulus"" style=""font-size:100px;"">67</p>","k","","","empty_block","","67","","","","0","17",""
"","","","","","html-keyboard-response","115","210438","0.0-133.0","14","1","2023-10-27 19:04:14","a725c3012b74bf33a1020a98cb69c237","45.71.5.119","Mozilla/5.0 (Windows NT 10.0; Win64; x64) AppleWebKit/537.36 (KHTML, like Gecko) Chrome/117.0.0.0 Safari/537.36","WebKit","Chrome","117.0.0.0","Windows","10.0","null","es-ES,es;q=0.9","true","null","<div style=""font-size:100px;"">X</div>","null","","","fixation","","","","","","","",""
"","","","","","audio-keyboard-response","116","210594","0.0-134.0","14","1","2023-10-27 19:04:14","a725c3012b74bf33a1020a98cb69c237","45.71.5.119","Mozilla/5.0 (Windows NT 10.0; Win64; x64) AppleWebKit/537.36 (KHTML, like Gecko) Chrome/117.0.0.0 Safari/537.36","WebKit","Chrome","117.0.0.0","Windows","10.0","null","es-ES,es;q=0.9","true","null","tones/880hz_short.mp3","null","","","tone_number_task","0","62","tones/880hz_short.mp3","150","100","0","18",""
"","","","","","html-keyboard-response","117","211361","0.0-137.0-0.0","14","1","2023-10-27 19:04:14","a725c3012b74bf33a1020a98cb69c237","45.71.5.119","Mozilla/5.0 (Windows NT 10.0; Win64; x64) AppleWebKit/537.36 (KHTML, like Gecko) Chrome/117.0.0.0 Safari/537.36","WebKit","Chrome","117.0.0.0","Windows","10.0","null","es-ES,es;q=0.9","true","762","tones/880hz_short.mp3","s","","","empty_block","","62","","","","0","18",""
"","","","","","html-keyboard-response","118","211689","0.0-137.0-1.0","14","1","2023-10-27 19:04:14","a725c3012b74bf33a1020a98cb69c237","45.71.5.119","Mozilla/5.0 (Windows NT 10.0; Win64; x64) AppleWebKit/537.36 (KHTML, like Gecko) Chrome/117.0.0.0 Safari/537.36","WebKit","Chrome","117.0.0.0","Windows","10.0","null","es-ES,es;q=0.9","true","322","tones/880hz_short.mp3","k","","","empty_block","","62","","","","0","18",""
"","","","","","html-keyboard-response","119","214471","0.0-139.0","14","1","2023-10-27 19:04:14","a725c3012b74bf33a1020a98cb69c237","45.71.5.119","Mozilla/5.0 (Windows NT 10.0; Win64; x64) AppleWebKit/537.36 (KHTML, like Gecko) Chrome/117.0.0.0 Safari/537.36","WebKit","Chrome","117.0.0.0","Windows","10.0","null","es-ES,es;q=0.9","true","null","<div style=""font-size:100px;"">X</div>","null","","","fixation","","","","","","","",""
"","","","","","audio-keyboard-response","120","214628","0.0-140.0","14","1","2023-10-27 19:04:14","a725c3012b74bf33a1020a98cb69c237","45.71.5.119","Mozilla/5.0 (Windows NT 10.0; Win64; x64) AppleWebKit/537.36 (KHTML, like Gecko) Chrome/117.0.0.0 Safari/537.36","WebKit","Chrome","117.0.0.0","Windows","10.0","null","es-ES,es;q=0.9","true","null","tones/880hz_short.mp3","null","","","tone_number_task","0","47","tones/880hz_short.mp3","150","100","0","19",""
"","","","","","html-keyboard-response","121","215033","0.0-143.0-0.0","14","1","2023-10-27 19:04:14","a725c3012b74bf33a1020a98cb69c237","45.71.5.119","Mozilla/5.0 (Windows NT 10.0; Win64; x64) AppleWebKit/537.36 (KHTML, like Gecko) Chrome/117.0.0.0 Safari/537.36","WebKit","Chrome","117.0.0.0","Windows","10.0","null","es-ES,es;q=0.9","true","399","tones/880hz_short.mp3","s","","","empty_block","","47","","","","0","19",""
"","","","","","html-keyboard-response","122","215272","0.0-143.0-1.0","14","1","2023-10-27 19:04:14","a725c3012b74bf33a1020a98cb69c237","45.71.5.119","Mozilla/5.0 (Windows NT 10.0; Win64; x64) AppleWebKit/537.36 (KHTML, like Gecko) Chrome/117.0.0.0 Safari/537.36","WebKit","Chrome","117.0.0.0","Windows","10.0","null","es-ES,es;q=0.9","true","234","tones/880hz_short.mp3","k","","","empty_block","","47","","","","0","19",""
"","","","","","html-keyboard-response","123","218055","0.0-145.0","14","1","2023-10-27 19:04:14","a725c3012b74bf33a1020a98cb69c237","45.71.5.119","Mozilla/5.0 (Windows NT 10.0; Win64; x64) AppleWebKit/537.36 (KHTML, like Gecko) Chrome/117.0.0.0 Safari/537.36","WebKit","Chrome","117.0.0.0","Windows","10.0","null","es-ES,es;q=0.9","true","null","<div style=""font-size:100px;"">X</div>","null","","","fixation","","","","","","","",""
"","","","","","audio-keyboard-response","124","218569","0.0-146.0","14","1","2023-10-27 19:04:14","a725c3012b74bf33a1020a98cb69c237","45.71.5.119","Mozilla/5.0 (Windows NT 10.0; Win64; x64) AppleWebKit/537.36 (KHTML, like Gecko) Chrome/117.0.0.0 Safari/537.36","WebKit","Chrome","117.0.0.0","Windows","10.0","null","es-ES,es;q=0.9","true","501","tones/440hz_short.mp3","a","","","tone_number_task","992.5","54","tones/440hz_short.mp3","1142.5","100","0","20",""
"","","","","","html-keyboard-response","125","219066","0.0-147.0-0.0","14","1","2023-10-27 19:04:14","a725c3012b74bf33a1020a98cb69c237","45.71.5.119","Mozilla/5.0 (Windows NT 10.0; Win64; x64) AppleWebKit/537.36 (KHTML, like Gecko) Chrome/117.0.0.0 Safari/537.36","WebKit","Chrome","117.0.0.0","Windows","10.0","null","es-ES,es;q=0.9","true","null","","null","","","delay_block","","","","","","0","20",""
"","","","","","html-keyboard-response","126","219224","0.0-147.0-1.0","14","1","2023-10-27 19:04:14","a725c3012b74bf33a1020a98cb69c237","45.71.5.119","Mozilla/5.0 (Windows NT 10.0; Win64; x64) AppleWebKit/537.36 (KHTML, like Gecko) Chrome/117.0.0.0 Safari/537.36","WebKit","Chrome","117.0.0.0","Windows","10.0","null","es-ES,es;q=0.9","true","null","<p id=""stimulus"" style=""font-size:100px;"">54</p>","null","","","tone_number_task_remaining_before_delay","","54","","641.5","100","0","20",""
"","","","","","html-keyboard-response","127","219569","0.0-150.0-0.0","14","1","2023-10-27 19:04:14","a725c3012b74bf33a1020a98cb69c237","45.71.5.119","Mozilla/5.0 (Windows NT 10.0; Win64; x64) AppleWebKit/537.36 (KHTML, like Gecko) Chrome/117.0.0.0 Safari/537.36","WebKit","Chrome","117.0.0.0","Windows","10.0","null","es-ES,es;q=0.9","true","342","<p id=""stimulus"" style=""font-size:100px;"">54</p>","k","","","empty_block","","54","","","","0","20",""
"","","","","","html-keyboard-response","128","222351","0.0-151.0","14","1","2023-10-27 19:04:14","a725c3012b74bf33a1020a98cb69c237","45.71.5.119","Mozilla/5.0 (Windows NT 10.0; Win64; x64) AppleWebKit/537.36 (KHTML, like Gecko) Chrome/117.0.0.0 Safari/537.36","WebKit","Chrome","117.0.0.0","Windows","10.0","null","es-ES,es;q=0.9","true","null","<div style=""font-size:100px;"">X</div>","null","","","fixation","","","","","","","",""
"","","","","","audio-keyboard-response","129","223017","0.0-152.0","14","1","2023-10-27 19:04:14","a725c3012b74bf33a1020a98cb69c237","45.71.5.119","Mozilla/5.0 (Windows NT 10.0; Win64; x64) AppleWebKit/537.36 (KHTML, like Gecko) Chrome/117.0.0.0 Safari/537.36","WebKit","Chrome","117.0.0.0","Windows","10.0","null","es-ES,es;q=0.9","true","659","tones/440hz_short.mp3","a","","","tone_number_task","992.5","41","tones/440hz_short.mp3","1142.5","100","0","21",""
"","","","","","html-keyboard-response","130","223357","0.0-153.0-0.0","14","1","2023-10-27 19:04:14","a725c3012b74bf33a1020a98cb69c237","45.71.5.119","Mozilla/5.0 (Windows NT 10.0; Win64; x64) AppleWebKit/537.36 (KHTML, like Gecko) Chrome/117.0.0.0 Safari/537.36","WebKit","Chrome","117.0.0.0","Windows","10.0","null","es-ES,es;q=0.9","true","null","","null","","","delay_block","","","","","","0","21",""
"","","","","","html-keyboard-response","131","223513","0.0-153.0-1.0","14","1","2023-10-27 19:04:14","a725c3012b74bf33a1020a98cb69c237","45.71.5.119","Mozilla/5.0 (Windows NT 10.0; Win64; x64) AppleWebKit/537.36 (KHTML, like Gecko) Chrome/117.0.0.0 Safari/537.36","WebKit","Chrome","117.0.0.0","Windows","10.0","null","es-ES,es;q=0.9","true","null","<p id=""stimulus"" style=""font-size:100px;"">41</p>","null","","","tone_number_task_remaining_before_delay","","41","","483.5","100","0","21",""
"","","","","","html-keyboard-response","132","223929","0.0-156.0-0.0","14","1","2023-10-27 19:04:14","a725c3012b74bf33a1020a98cb69c237","45.71.5.119","Mozilla/5.0 (Windows NT 10.0; Win64; x64) AppleWebKit/537.36 (KHTML, like Gecko) Chrome/117.0.0.0 Safari/537.36","WebKit","Chrome","117.0.0.0","Windows","10.0","null","es-ES,es;q=0.9","true","408","<p id=""stimulus"" style=""font-size:100px;"">41</p>","j","","","empty_block","","41","","","","0","21",""
"","","","","","html-keyboard-response","133","226711","0.0-157.0","14","1","2023-10-27 19:04:14","a725c3012b74bf33a1020a98cb69c237","45.71.5.119","Mozilla/5.0 (Windows NT 10.0; Win64; x64) AppleWebKit/537.36 (KHTML, like Gecko) Chrome/117.0.0.0 Safari/537.36","WebKit","Chrome","117.0.0.0","Windows","10.0","null","es-ES,es;q=0.9","true","null","<div style=""font-size:100px;"">X</div>","null","","","fixation","","","","","","","",""
"","","","","","audio-keyboard-response","134","226864","0.0-158.0","14","1","2023-10-27 19:04:14","a725c3012b74bf33a1020a98cb69c237","45.71.5.119","Mozilla/5.0 (Windows NT 10.0; Win64; x64) AppleWebKit/537.36 (KHTML, like Gecko) Chrome/117.0.0.0 Safari/537.36","WebKit","Chrome","117.0.0.0","Windows","10.0","null","es-ES,es;q=0.9","true","null","tones/440hz_short.mp3","null","","","tone_number_task","0","25","tones/440hz_short.mp3","150","100","0","22",""
"","","","","","html-keyboard-response","135","227355","0.0-161.0-0.0","14","1","2023-10-27 19:04:14","a725c3012b74bf33a1020a98cb69c237","45.71.5.119","Mozilla/5.0 (Windows NT 10.0; Win64; x64) AppleWebKit/537.36 (KHTML, like Gecko) Chrome/117.0.0.0 Safari/537.36","WebKit","Chrome","117.0.0.0","Windows","10.0","null","es-ES,es;q=0.9","true","484","tones/440hz_short.mp3","a","","","empty_block","","25","","","","0","22",""
"","","","","","html-keyboard-response","136","227608","0.0-161.0-1.0","14","1","2023-10-27 19:04:14","a725c3012b74bf33a1020a98cb69c237","45.71.5.119","Mozilla/5.0 (Windows NT 10.0; Win64; x64) AppleWebKit/537.36 (KHTML, like Gecko) Chrome/117.0.0.0 Safari/537.36","WebKit","Chrome","117.0.0.0","Windows","10.0","null","es-ES,es;q=0.9","true","252","tones/440hz_short.mp3","j","","","empty_block","","25","","","","0","22",""
"","","","","","html-keyboard-response","137","230392","0.0-163.0","14","1","2023-10-27 19:04:14","a725c3012b74bf33a1020a98cb69c237","45.71.5.119","Mozilla/5.0 (Windows NT 10.0; Win64; x64) AppleWebKit/537.36 (KHTML, like Gecko) Chrome/117.0.0.0 Safari/537.36","WebKit","Chrome","117.0.0.0","Windows","10.0","null","es-ES,es;q=0.9","true","null","<div style=""font-size:100px;"">X</div>","null","","","fixation","","","","","","","",""
"","","","","","audio-keyboard-response","138","230937","0.0-164.0","14","1","2023-10-27 19:04:14","a725c3012b74bf33a1020a98cb69c237","45.71.5.119","Mozilla/5.0 (Windows NT 10.0; Win64; x64) AppleWebKit/537.36 (KHTML, like Gecko) Chrome/117.0.0.0 Safari/537.36","WebKit","Chrome","117.0.0.0","Windows","10.0","null","es-ES,es;q=0.9","true","539","tones/440hz_short.mp3","a","","","tone_number_task","992.5","41","tones/440hz_short.mp3","1142.5","100","0","23",""
"","","","","","html-keyboard-response","139","231396","0.0-165.0-0.0","14","1","2023-10-27 19:04:14","a725c3012b74bf33a1020a98cb69c237","45.71.5.119","Mozilla/5.0 (Windows NT 10.0; Win64; x64) AppleWebKit/537.36 (KHTML, like Gecko) Chrome/117.0.0.0 Safari/537.36","WebKit","Chrome","117.0.0.0","Windows","10.0","null","es-ES,es;q=0.9","true","null","","null","","","delay_block","","","","","","0","23",""
"","","","","","html-keyboard-response","140","231553","0.0-165.0-1.0","14","1","2023-10-27 19:04:14","a725c3012b74bf33a1020a98cb69c237","45.71.5.119","Mozilla/5.0 (Windows NT 10.0; Win64; x64) AppleWebKit/537.36 (KHTML, like Gecko) Chrome/117.0.0.0 Safari/537.36","WebKit","Chrome","117.0.0.0","Windows","10.0","null","es-ES,es;q=0.9","true","null","<p id=""stimulus"" style=""font-size:100px;"">41</p>","null","","","tone_number_task_remaining_before_delay","","41","","603.5","100","0","23",""
"","","","","","html-keyboard-response","141","231960","0.0-168.0-0.0","14","1","2023-10-27 19:04:14","a725c3012b74bf33a1020a98cb69c237","45.71.5.119","Mozilla/5.0 (Windows NT 10.0; Win64; x64) AppleWebKit/537.36 (KHTML, like Gecko) Chrome/117.0.0.0 Safari/537.36","WebKit","Chrome","117.0.0.0","Windows","10.0","null","es-ES,es;q=0.9","true","400","<p id=""stimulus"" style=""font-size:100px;"">41</p>","j","","","empty_block","","41","","","","0","23",""
"","","","","","html-keyboard-response","142","234743","0.0-169.0","14","1","2023-10-27 19:04:14","a725c3012b74bf33a1020a98cb69c237","45.71.5.119","Mozilla/5.0 (Windows NT 10.0; Win64; x64) AppleWebKit/537.36 (KHTML, like Gecko) Chrome/117.0.0.0 Safari/537.36","WebKit","Chrome","117.0.0.0","Windows","10.0","null","es-ES,es;q=0.9","true","null","<div style=""font-size:100px;"">X</div>","null","","","fixation","","","","","","","",""
"","","","","","audio-keyboard-response","143","235137","0.0-170.0","14","1","2023-10-27 19:04:14","a725c3012b74bf33a1020a98cb69c237","45.71.5.119","Mozilla/5.0 (Windows NT 10.0; Win64; x64) AppleWebKit/537.36 (KHTML, like Gecko) Chrome/117.0.0.0 Safari/537.36","WebKit","Chrome","117.0.0.0","Windows","10.0","null","es-ES,es;q=0.9","true","389","tones/440hz_short.mp3","a","","","tone_number_task","1025","58","tones/440hz_short.mp3","1175","100","0","24",""
"","","","","","html-keyboard-response","144","235782","0.0-171.0-0.0","14","1","2023-10-27 19:04:14","a725c3012b74bf33a1020a98cb69c237","45.71.5.119","Mozilla/5.0 (Windows NT 10.0; Win64; x64) AppleWebKit/537.36 (KHTML, like Gecko) Chrome/117.0.0.0 Safari/537.36","WebKit","Chrome","117.0.0.0","Windows","10.0","null","es-ES,es;q=0.9","true","null","","null","","","delay_block","","","","","","0","24",""
"","","","","","html-keyboard-response","145","235940","0.0-171.0-1.0","14","1","2023-10-27 19:04:14","a725c3012b74bf33a1020a98cb69c237","45.71.5.119","Mozilla/5.0 (Windows NT 10.0; Win64; x64) AppleWebKit/537.36 (KHTML, like Gecko) Chrome/117.0.0.0 Safari/537.36","WebKit","Chrome","117.0.0.0","Windows","10.0","null","es-ES,es;q=0.9","true","null","<p id=""stimulus"" style=""font-size:100px;"">58</p>","null","","","tone_number_task_remaining_before_delay","","58","","786","100","0","24",""
"","","","","","html-keyboard-response","146","236137","0.0-174.0-0.0","14","1","2023-10-27 19:04:14","a725c3012b74bf33a1020a98cb69c237","45.71.5.119","Mozilla/5.0 (Windows NT 10.0; Win64; x64) AppleWebKit/537.36 (KHTML, like Gecko) Chrome/117.0.0.0 Safari/537.36","WebKit","Chrome","117.0.0.0","Windows","10.0","null","es-ES,es;q=0.9","true","191","<p id=""stimulus"" style=""font-size:100px;"">58</p>","k","","","empty_block","","58","","","","0","24",""
"","","","","","html-keyboard-response","147","238935","0.0-175.0","14","1","2023-10-27 19:04:14","a725c3012b74bf33a1020a98cb69c237","45.71.5.119","Mozilla/5.0 (Windows NT 10.0; Win64; x64) AppleWebKit/537.36 (KHTML, like Gecko) Chrome/117.0.0.0 Safari/537.36","WebKit","Chrome","117.0.0.0","Windows","10.0","null","es-ES,es;q=0.9","true","null","<div style=""font-size:100px;"">X</div>","null","","","fixation","","","","","","","",""
"","","","","","audio-keyboard-response","148","239561","0.0-176.0","14","1","2023-10-27 19:04:14","a725c3012b74bf33a1020a98cb69c237","45.71.5.119","Mozilla/5.0 (Windows NT 10.0; Win64; x64) AppleWebKit/537.36 (KHTML, like Gecko) Chrome/117.0.0.0 Safari/537.36","WebKit","Chrome","117.0.0.0","Windows","10.0","null","es-ES,es;q=0.9","true","621","tones/440hz_short.mp3","a","","","tone_number_task","1025","66","tones/440hz_short.mp3","1175","100","0","25",""
"","","","","","html-keyboard-response","149","239982","0.0-177.0-0.0","14","1","2023-10-27 19:04:14","a725c3012b74bf33a1020a98cb69c237","45.71.5.119","Mozilla/5.0 (Windows NT 10.0; Win64; x64) AppleWebKit/537.36 (KHTML, like Gecko) Chrome/117.0.0.0 Safari/537.36","WebKit","Chrome","117.0.0.0","Windows","10.0","null","es-ES,es;q=0.9","true","null","","null","","","delay_block","","","","","","0","25",""
"","","","","","html-keyboard-response","150","240142","0.0-177.0-1.0","14","1","2023-10-27 19:04:14","a725c3012b74bf33a1020a98cb69c237","45.71.5.119","Mozilla/5.0 (Windows NT 10.0; Win64; x64) AppleWebKit/537.36 (KHTML, like Gecko) Chrome/117.0.0.0 Safari/537.36","WebKit","Chrome","117.0.0.0","Windows","10.0","null","es-ES,es;q=0.9","true","null","<p id=""stimulus"" style=""font-size:100px;"">66</p>","null","","","tone_number_task_remaining_before_delay","","66","","554","100","0","25",""
"","","","","","html-keyboard-response","151","240465","0.0-180.0-0.0","14","1","2023-10-27 19:04:14","a725c3012b74bf33a1020a98cb69c237","45.71.5.119","Mozilla/5.0 (Windows NT 10.0; Win64; x64) AppleWebKit/537.36 (KHTML, like Gecko) Chrome/117.0.0.0 Safari/537.36","WebKit","Chrome","117.0.0.0","Windows","10.0","null","es-ES,es;q=0.9","true","318","<p id=""stimulus"" style=""font-size:100px;"">66</p>","k","","","empty_block","","66","","","","0","25",""
"","","","","","html-keyboard-response","152","243243","0.0-181.0","14","1","2023-10-27 19:04:14","a725c3012b74bf33a1020a98cb69c237","45.71.5.119","Mozilla/5.0 (Windows NT 10.0; Win64; x64) AppleWebKit/537.36 (KHTML, like Gecko) Chrome/117.0.0.0 Safari/537.36","WebKit","Chrome","117.0.0.0","Windows","10.0","null","es-ES,es;q=0.9","true","null","<div style=""font-size:100px;"">X</div>","null","","","fixation","","","","","","","",""
"","","","","","audio-keyboard-response","153","243501","0.0-182.0","14","1","2023-10-27 19:04:14","a725c3012b74bf33a1020a98cb69c237","45.71.5.119","Mozilla/5.0 (Windows NT 10.0; Win64; x64) AppleWebKit/537.36 (KHTML, like Gecko) Chrome/117.0.0.0 Safari/537.36","WebKit","Chrome","117.0.0.0","Windows","10.0","null","es-ES,es;q=0.9","true","null","tones/440hz_short.mp3","null","","","tone_number_task","102.5","52","tones/440hz_short.mp3","252.5","100","0","26",""
"","","","","","html-keyboard-response","154","243813","0.0-185.0-0.0","14","1","2023-10-27 19:04:14","a725c3012b74bf33a1020a98cb69c237","45.71.5.119","Mozilla/5.0 (Windows NT 10.0; Win64; x64) AppleWebKit/537.36 (KHTML, like Gecko) Chrome/117.0.0.0 Safari/537.36","WebKit","Chrome","117.0.0.0","Windows","10.0","null","es-ES,es;q=0.9","true","306","tones/440hz_short.mp3","a","","","empty_block","","52","","","","0","26",""
"","","","","","html-keyboard-response","155","244434","0.0-185.0-1.0","14","1","2023-10-27 19:04:14","a725c3012b74bf33a1020a98cb69c237","45.71.5.119","Mozilla/5.0 (Windows NT 10.0; Win64; x64) AppleWebKit/537.36 (KHTML, like Gecko) Chrome/117.0.0.0 Safari/537.36","WebKit","Chrome","117.0.0.0","Windows","10.0","null","es-ES,es;q=0.9","true","620","tones/440hz_short.mp3","k","","","empty_block","","52","","","","0","26",""
"","","","","","html-keyboard-response","156","247213","0.0-187.0","14","1","2023-10-27 19:04:14","a725c3012b74bf33a1020a98cb69c237","45.71.5.119","Mozilla/5.0 (Windows NT 10.0; Win64; x64) AppleWebKit/537.36 (KHTML, like Gecko) Chrome/117.0.0.0 Safari/537.36","WebKit","Chrome","117.0.0.0","Windows","10.0","null","es-ES,es;q=0.9","true","null","<div style=""font-size:100px;"">X</div>","null","","","fixation","","","","","","","",""
"","","","","","audio-keyboard-response","157","247660","0.0-188.0","14","1","2023-10-27 19:04:14","a725c3012b74bf33a1020a98cb69c237","45.71.5.119","Mozilla/5.0 (Windows NT 10.0; Win64; x64) AppleWebKit/537.36 (KHTML, like Gecko) Chrome/117.0.0.0 Safari/537.36","WebKit","Chrome","117.0.0.0","Windows","10.0","null","es-ES,es;q=0.9","true","440","tones/440hz_short.mp3","a","","","tone_number_task","992.5","36","tones/440hz_short.mp3","1142.5","100","0","27",""
"","","","","","html-keyboard-response","158","248218","0.0-189.0-0.0","14","1","2023-10-27 19:04:14","a725c3012b74bf33a1020a98cb69c237","45.71.5.119","Mozilla/5.0 (Windows NT 10.0; Win64; x64) AppleWebKit/537.36 (KHTML, like Gecko) Chrome/117.0.0.0 Safari/537.36","WebKit","Chrome","117.0.0.0","Windows","10.0","null","es-ES,es;q=0.9","true","null","","null","","","delay_block","","","","","","0","27",""
"","","","","","html-keyboard-response","159","248375","0.0-189.0-1.0","14","1","2023-10-27 19:04:14","a725c3012b74bf33a1020a98cb69c237","45.71.5.119","Mozilla/5.0 (Windows NT 10.0; Win64; x64) AppleWebKit/537.36 (KHTML, like Gecko) Chrome/117.0.0.0 Safari/537.36","WebKit","Chrome","117.0.0.0","Windows","10.0","null","es-ES,es;q=0.9","true","null","<p id=""stimulus"" style=""font-size:100px;"">36</p>","null","","","tone_number_task_remaining_before_delay","","36","","702.5","100","0","27",""
"","","","","","html-keyboard-response","160","248964","0.0-192.0-0.0","14","1","2023-10-27 19:04:14","a725c3012b74bf33a1020a98cb69c237","45.71.5.119","Mozilla/5.0 (Windows NT 10.0; Win64; x64) AppleWebKit/537.36 (KHTML, like Gecko) Chrome/117.0.0.0 Safari/537.36","WebKit","Chrome","117.0.0.0","Windows","10.0","null","es-ES,es;q=0.9","true","582","<p id=""stimulus"" style=""font-size:100px;"">36</p>","j","","","empty_block","","36","","","","0","27",""
"","","","","","html-keyboard-response","161","251745","0.0-193.0","14","1","2023-10-27 19:04:14","a725c3012b74bf33a1020a98cb69c237","45.71.5.119","Mozilla/5.0 (Windows NT 10.0; Win64; x64) AppleWebKit/537.36 (KHTML, like Gecko) Chrome/117.0.0.0 Safari/537.36","WebKit","Chrome","117.0.0.0","Windows","10.0","null","es-ES,es;q=0.9","true","null","<div style=""font-size:100px;"">X</div>","null","","","fixation","","","","","","","",""
"","","","","","audio-keyboard-response","162","252332","0.0-194.0","14","1","2023-10-27 19:04:14","a725c3012b74bf33a1020a98cb69c237","45.71.5.119","Mozilla/5.0 (Windows NT 10.0; Win64; x64) AppleWebKit/537.36 (KHTML, like Gecko) Chrome/117.0.0.0 Safari/537.36","WebKit","Chrome","117.0.0.0","Windows","10.0","null","es-ES,es;q=0.9","true","579","tones/440hz_short.mp3","a","","","tone_number_task","1025","22","tones/440hz_short.mp3","1175","100","0","28",""
"","","","","","html-keyboard-response","163","252786","0.0-195.0-0.0","14","1","2023-10-27 19:04:14","a725c3012b74bf33a1020a98cb69c237","45.71.5.119","Mozilla/5.0 (Windows NT 10.0; Win64; x64) AppleWebKit/537.36 (KHTML, like Gecko) Chrome/117.0.0.0 Safari/537.36","WebKit","Chrome","117.0.0.0","Windows","10.0","null","es-ES,es;q=0.9","true","null","","null","","","delay_block","","","","","","0","28",""
"","","","","","html-keyboard-response","164","252940","0.0-195.0-1.0","14","1","2023-10-27 19:04:14","a725c3012b74bf33a1020a98cb69c237","45.71.5.119","Mozilla/5.0 (Windows NT 10.0; Win64; x64) AppleWebKit/537.36 (KHTML, like Gecko) Chrome/117.0.0.0 Safari/537.36","WebKit","Chrome","117.0.0.0","Windows","10.0","null","es-ES,es;q=0.9","true","null","<p id=""stimulus"" style=""font-size:100px;"">22</p>","null","","","tone_number_task_remaining_before_delay","","22","","596","100","0","28",""
"","","","","","html-keyboard-response","165","253388","0.0-198.0-0.0","14","1","2023-10-27 19:04:14","a725c3012b74bf33a1020a98cb69c237","45.71.5.119","Mozilla/5.0 (Windows NT 10.0; Win64; x64) AppleWebKit/537.36 (KHTML, like Gecko) Chrome/117.0.0.0 Safari/537.36","WebKit","Chrome","117.0.0.0","Windows","10.0","null","es-ES,es;q=0.9","true","442","<p id=""stimulus"" style=""font-size:100px;"">22</p>","j","","","empty_block","","22","","","","0","28",""
"","","","","","html-keyboard-response","166","256172","0.0-199.0","14","1","2023-10-27 19:04:14","a725c3012b74bf33a1020a98cb69c237","45.71.5.119","Mozilla/5.0 (Windows NT 10.0; Win64; x64) AppleWebKit/537.36 (KHTML, like Gecko) Chrome/117.0.0.0 Safari/537.36","WebKit","Chrome","117.0.0.0","Windows","10.0","null","es-ES,es;q=0.9","true","null","<div style=""font-size:100px;"">X</div>","null","","","fixation","","","","","","","",""
"","","","","","audio-keyboard-response","167","256922","0.0-200.0","14","1","2023-10-27 19:04:14","a725c3012b74bf33a1020a98cb69c237","45.71.5.119","Mozilla/5.0 (Windows NT 10.0; Win64; x64) AppleWebKit/537.36 (KHTML, like Gecko) Chrome/117.0.0.0 Safari/537.36","WebKit","Chrome","117.0.0.0","Windows","10.0","null","es-ES,es;q=0.9","true","741","tones/880hz_short.mp3","s","","","tone_number_task","1025","52","tones/880hz_short.mp3","1175","100","0","29",""
"","","","","","html-keyboard-response","168","257210","0.0-201.0-0.0","14","1","2023-10-27 19:04:14","a725c3012b74bf33a1020a98cb69c237","45.71.5.119","Mozilla/5.0 (Windows NT 10.0; Win64; x64) AppleWebKit/537.36 (KHTML, like Gecko) Chrome/117.0.0.0 Safari/537.36","WebKit","Chrome","117.0.0.0","Windows","10.0","null","es-ES,es;q=0.9","true","null","","null","","","delay_block","","","","","","0","29",""
"","","","","","html-keyboard-response","169","257362","0.0-201.0-1.0","14","1","2023-10-27 19:04:14","a725c3012b74bf33a1020a98cb69c237","45.71.5.119","Mozilla/5.0 (Windows NT 10.0; Win64; x64) AppleWebKit/537.36 (KHTML, like Gecko) Chrome/117.0.0.0 Safari/537.36","WebKit","Chrome","117.0.0.0","Windows","10.0","null","es-ES,es;q=0.9","true","null","<p id=""stimulus"" style=""font-size:100px;"">52</p>","null","","","tone_number_task_remaining_before_delay","","52","","434","100","0","29",""
"","","","","","html-keyboard-response","170","257675","0.0-204.0-0.0","14","1","2023-10-27 19:04:14","a725c3012b74bf33a1020a98cb69c237","45.71.5.119","Mozilla/5.0 (Windows NT 10.0; Win64; x64) AppleWebKit/537.36 (KHTML, like Gecko) Chrome/117.0.0.0 Safari/537.36","WebKit","Chrome","117.0.0.0","Windows","10.0","null","es-ES,es;q=0.9","true","311","<p id=""stimulus"" style=""font-size:100px;"">52</p>","k","","","empty_block","","52","","","","0","29",""
"","","","","","html-keyboard-response","171","260454","0.0-205.0","14","1","2023-10-27 19:04:14","a725c3012b74bf33a1020a98cb69c237","45.71.5.119","Mozilla/5.0 (Windows NT 10.0; Win64; x64) AppleWebKit/537.36 (KHTML, like Gecko) Chrome/117.0.0.0 Safari/537.36","WebKit","Chrome","117.0.0.0","Windows","10.0","null","es-ES,es;q=0.9","true","null","<div style=""font-size:100px;"">X</div>","null","","","fixation","","","","","","","",""
"","","","","","audio-keyboard-response","172","260709","0.0-206.0","14","1","2023-10-27 19:04:14","a725c3012b74bf33a1020a98cb69c237","45.71.5.119","Mozilla/5.0 (Windows NT 10.0; Win64; x64) AppleWebKit/537.36 (KHTML, like Gecko) Chrome/117.0.0.0 Safari/537.36","WebKit","Chrome","117.0.0.0","Windows","10.0","null","es-ES,es;q=0.9","true","null","tones/440hz_short.mp3","null","","","tone_number_task","102.5","39","tones/440hz_short.mp3","252.5","100","0","30",""
"","","","","","html-keyboard-response","173","260874","0.0-209.0-0.0","14","1","2023-10-27 19:04:14","a725c3012b74bf33a1020a98cb69c237","45.71.5.119","Mozilla/5.0 (Windows NT 10.0; Win64; x64) AppleWebKit/537.36 (KHTML, like Gecko) Chrome/117.0.0.0 Safari/537.36","WebKit","Chrome","117.0.0.0","Windows","10.0","null","es-ES,es;q=0.9","true","163","tones/440hz_short.mp3","a","","","empty_block","","39","","","","0","30",""
"","","","","","html-keyboard-response","174","261298","0.0-209.0-1.0","14","1","2023-10-27 19:04:14","a725c3012b74bf33a1020a98cb69c237","45.71.5.119","Mozilla/5.0 (Windows NT 10.0; Win64; x64) AppleWebKit/537.36 (KHTML, like Gecko) Chrome/117.0.0.0 Safari/537.36","WebKit","Chrome","117.0.0.0","Windows","10.0","null","es-ES,es;q=0.9","true","422","tones/440hz_short.mp3","k","","","empty_block","","39","","","","0","30",""
"","","","","","html-keyboard-response","175","264078","0.0-211.0","14","1","2023-10-27 19:04:14","a725c3012b74bf33a1020a98cb69c237","45.71.5.119","Mozilla/5.0 (Windows NT 10.0; Win64; x64) AppleWebKit/537.36 (KHTML, like Gecko) Chrome/117.0.0.0 Safari/537.36","WebKit","Chrome","117.0.0.0","Windows","10.0","null","es-ES,es;q=0.9","true","null","<div style=""font-size:100px;"">X</div>","null","","","fixation","","","","","","","",""
"","","","","","audio-keyboard-response","176","265042","0.0-212.0","14","1","2023-10-27 19:04:14","a725c3012b74bf33a1020a98cb69c237","45.71.5.119","Mozilla/5.0 (Windows NT 10.0; Win64; x64) AppleWebKit/537.36 (KHTML, like Gecko) Chrome/117.0.0.0 Safari/537.36","WebKit","Chrome","117.0.0.0","Windows","10.0","null","es-ES,es;q=0.9","true","960","tones/440hz_short.mp3","a","","","tone_number_task","1025","67","tones/440hz_short.mp3","1175","100","0","31",""
"","","","","","html-keyboard-response","177","265117","0.0-213.0-0.0","14","1","2023-10-27 19:04:14","a725c3012b74bf33a1020a98cb69c237","45.71.5.119","Mozilla/5.0 (Windows NT 10.0; Win64; x64) AppleWebKit/537.36 (KHTML, like Gecko) Chrome/117.0.0.0 Safari/537.36","WebKit","Chrome","117.0.0.0","Windows","10.0","null","es-ES,es;q=0.9","true","null","","null","","","delay_block","","","","","","0","31",""
"","","","","","html-keyboard-response","178","265271","0.0-213.0-1.0","14","1","2023-10-27 19:04:14","a725c3012b74bf33a1020a98cb69c237","45.71.5.119","Mozilla/5.0 (Windows NT 10.0; Win64; x64) AppleWebKit/537.36 (KHTML, like Gecko) Chrome/117.0.0.0 Safari/537.36","WebKit","Chrome","117.0.0.0","Windows","10.0","null","es-ES,es;q=0.9","true","null","<p id=""stimulus"" style=""font-size:100px;"">67</p>","null","","","tone_number_task_remaining_before_delay","","67","","215","100","0","31",""
"","","","","","html-keyboard-response","179","265706","0.0-216.0-0.0","14","1","2023-10-27 19:04:14","a725c3012b74bf33a1020a98cb69c237","45.71.5.119","Mozilla/5.0 (Windows NT 10.0; Win64; x64) AppleWebKit/537.36 (KHTML, like Gecko) Chrome/117.0.0.0 Safari/537.36","WebKit","Chrome","117.0.0.0","Windows","10.0","null","es-ES,es;q=0.9","true","434","<p id=""stimulus"" style=""font-size:100px;"">67</p>","k","","","empty_block","","67","","","","0","31",""
"","","","","","html-keyboard-response","180","268484","0.0-217.0","14","1","2023-10-27 19:04:14","a725c3012b74bf33a1020a98cb69c237","45.71.5.119","Mozilla/5.0 (Windows NT 10.0; Win64; x64) AppleWebKit/537.36 (KHTML, like Gecko) Chrome/117.0.0.0 Safari/537.36","WebKit","Chrome","117.0.0.0","Windows","10.0","null","es-ES,es;q=0.9","true","null","<div style=""font-size:100px;"">X</div>","null","","","fixation","","","","","","","",""
"","","","","","audio-keyboard-response","181","269243","0.0-218.0","14","1","2023-10-27 19:04:14","a725c3012b74bf33a1020a98cb69c237","45.71.5.119","Mozilla/5.0 (Windows NT 10.0; Win64; x64) AppleWebKit/537.36 (KHTML, like Gecko) Chrome/117.0.0.0 Safari/537.36","WebKit","Chrome","117.0.0.0","Windows","10.0","null","es-ES,es;q=0.9","true","752","tones/880hz_short.mp3","s","","","tone_number_task","992.5","35","tones/880hz_short.mp3","1142.5","100","0","32",""
"","","","","","html-keyboard-response","182","269485","0.0-219.0-0.0","14","1","2023-10-27 19:04:14","a725c3012b74bf33a1020a98cb69c237","45.71.5.119","Mozilla/5.0 (Windows NT 10.0; Win64; x64) AppleWebKit/537.36 (KHTML, like Gecko) Chrome/117.0.0.0 Safari/537.36","WebKit","Chrome","117.0.0.0","Windows","10.0","null","es-ES,es;q=0.9","true","null","","null","","","delay_block","","","","","","0","32",""
"","","","","","html-keyboard-response","183","269637","0.0-219.0-1.0","14","1","2023-10-27 19:04:14","a725c3012b74bf33a1020a98cb69c237","45.71.5.119","Mozilla/5.0 (Windows NT 10.0; Win64; x64) AppleWebKit/537.36 (KHTML, like Gecko) Chrome/117.0.0.0 Safari/537.36","WebKit","Chrome","117.0.0.0","Windows","10.0","null","es-ES,es;q=0.9","true","null","<p id=""stimulus"" style=""font-size:100px;"">35</p>","null","","","tone_number_task_remaining_before_delay","","35","","390.5","100","0","32",""
"","","","","","html-keyboard-response","184","270074","0.0-222.0-0.0","14","1","2023-10-27 19:04:14","a725c3012b74bf33a1020a98cb69c237","45.71.5.119","Mozilla/5.0 (Windows NT 10.0; Win64; x64) AppleWebKit/537.36 (KHTML, like Gecko) Chrome/117.0.0.0 Safari/537.36","WebKit","Chrome","117.0.0.0","Windows","10.0","null","es-ES,es;q=0.9","true","435","<p id=""stimulus"" style=""font-size:100px;"">35</p>","j","","","empty_block","","35","","","","0","32",""
"","","","","","html-keyboard-response","185","272853","0.0-223.0","14","1","2023-10-27 19:04:14","a725c3012b74bf33a1020a98cb69c237","45.71.5.119","Mozilla/5.0 (Windows NT 10.0; Win64; x64) AppleWebKit/537.36 (KHTML, like Gecko) Chrome/117.0.0.0 Safari/537.36","WebKit","Chrome","117.0.0.0","Windows","10.0","null","es-ES,es;q=0.9","true","null","<div style=""font-size:100px;"">X</div>","null","","","fixation","","","","","","","",""
"","","","","","audio-keyboard-response","186","273562","0.0-224.0","14","1","2023-10-27 19:04:14","a725c3012b74bf33a1020a98cb69c237","45.71.5.119","Mozilla/5.0 (Windows NT 10.0; Win64; x64) AppleWebKit/537.36 (KHTML, like Gecko) Chrome/117.0.0.0 Safari/537.36","WebKit","Chrome","117.0.0.0","Windows","10.0","null","es-ES,es;q=0.9","true","701","tones/880hz_short.mp3","s","","","tone_number_task","992.5","32","tones/880hz_short.mp3","1142.5","100","0","33",""
"","","","","","html-keyboard-response","187","273857","0.0-225.0-0.0","14","1","2023-10-27 19:04:14","a725c3012b74bf33a1020a98cb69c237","45.71.5.119","Mozilla/5.0 (Windows NT 10.0; Win64; x64) AppleWebKit/537.36 (KHTML, like Gecko) Chrome/117.0.0.0 Safari/537.36","WebKit","Chrome","117.0.0.0","Windows","10.0","null","es-ES,es;q=0.9","true","null","","null","","","delay_block","","","","","","0","33",""
"","","","","","html-keyboard-response","188","274010","0.0-225.0-1.0","14","1","2023-10-27 19:04:14","a725c3012b74bf33a1020a98cb69c237","45.71.5.119","Mozilla/5.0 (Windows NT 10.0; Win64; x64) AppleWebKit/537.36 (KHTML, like Gecko) Chrome/117.0.0.0 Safari/537.36","WebKit","Chrome","117.0.0.0","Windows","10.0","null","es-ES,es;q=0.9","true","null","<p id=""stimulus"" style=""font-size:100px;"">32</p>","null","","","tone_number_task_remaining_before_delay","","32","","441.5","100","0","33",""
"","","","","","html-keyboard-response","189","274474","0.0-228.0-0.0","14","1","2023-10-27 19:04:14","a725c3012b74bf33a1020a98cb69c237","45.71.5.119","Mozilla/5.0 (Windows NT 10.0; Win64; x64) AppleWebKit/537.36 (KHTML, like Gecko) Chrome/117.0.0.0 Safari/537.36","WebKit","Chrome","117.0.0.0","Windows","10.0","null","es-ES,es;q=0.9","true","462","<p id=""stimulus"" style=""font-size:100px;"">32</p>","j","","","empty_block","","32","","","","0","33",""
"","","","","","html-keyboard-response","190","277253","0.0-229.0","14","1","2023-10-27 19:04:14","a725c3012b74bf33a1020a98cb69c237","45.71.5.119","Mozilla/5.0 (Windows NT 10.0; Win64; x64) AppleWebKit/537.36 (KHTML, like Gecko) Chrome/117.0.0.0 Safari/537.36","WebKit","Chrome","117.0.0.0","Windows","10.0","null","es-ES,es;q=0.9","true","null","<div style=""font-size:100px;"">X</div>","null","","","fixation","","","","","","","",""
"","","","","","audio-keyboard-response","191","277508","0.0-230.0","14","1","2023-10-27 19:04:14","a725c3012b74bf33a1020a98cb69c237","45.71.5.119","Mozilla/5.0 (Windows NT 10.0; Win64; x64) AppleWebKit/537.36 (KHTML, like Gecko) Chrome/117.0.0.0 Safari/537.36","WebKit","Chrome","117.0.0.0","Windows","10.0","null","es-ES,es;q=0.9","true","null","tones/440hz_short.mp3","null","","","tone_number_task","102.5","32","tones/440hz_short.mp3","252.5","100","0","34",""
"","","","","","html-keyboard-response","192","277906","0.0-233.0-0.0","14","1","2023-10-27 19:04:14","a725c3012b74bf33a1020a98cb69c237","45.71.5.119","Mozilla/5.0 (Windows NT 10.0; Win64; x64) AppleWebKit/537.36 (KHTML, like Gecko) Chrome/117.0.0.0 Safari/537.36","WebKit","Chrome","117.0.0.0","Windows","10.0","null","es-ES,es;q=0.9","true","396","tones/440hz_short.mp3","a","","","empty_block","","32","","","","0","34",""
"","","","","","html-keyboard-response","193","278378","0.0-233.0-1.0","14","1","2023-10-27 19:04:14","a725c3012b74bf33a1020a98cb69c237","45.71.5.119","Mozilla/5.0 (Windows NT 10.0; Win64; x64) AppleWebKit/537.36 (KHTML, like Gecko) Chrome/117.0.0.0 Safari/537.36","WebKit","Chrome","117.0.0.0","Windows","10.0","null","es-ES,es;q=0.9","true","470","tones/440hz_short.mp3","j","","","empty_block","","32","","","","0","34",""
"","","","","","html-keyboard-response","194","281158","0.0-235.0","14","1","2023-10-27 19:04:14","a725c3012b74bf33a1020a98cb69c237","45.71.5.119","Mozilla/5.0 (Windows NT 10.0; Win64; x64) AppleWebKit/537.36 (KHTML, like Gecko) Chrome/117.0.0.0 Safari/537.36","WebKit","Chrome","117.0.0.0","Windows","10.0","null","es-ES,es;q=0.9","true","null","<div style=""font-size:100px;"">X</div>","null","","","fixation","","","","","","","",""
"","","","","","audio-keyboard-response","195","281413","0.0-236.0","14","1","2023-10-27 19:04:14","a725c3012b74bf33a1020a98cb69c237","45.71.5.119","Mozilla/5.0 (Windows NT 10.0; Win64; x64) AppleWebKit/537.36 (KHTML, like Gecko) Chrome/117.0.0.0 Safari/537.36","WebKit","Chrome","117.0.0.0","Windows","10.0","null","es-ES,es;q=0.9","true","null","tones/880hz_short.mp3","null","","","tone_number_task","102.5","53","tones/880hz_short.mp3","252.5","100","0","35",""
"","","","","","html-keyboard-response","196","281667","0.0-239.0-0.0","14","1","2023-10-27 19:04:14","a725c3012b74bf33a1020a98cb69c237","45.71.5.119","Mozilla/5.0 (Windows NT 10.0; Win64; x64) AppleWebKit/537.36 (KHTML, like Gecko) Chrome/117.0.0.0 Safari/537.36","WebKit","Chrome","117.0.0.0","Windows","10.0","null","es-ES,es;q=0.9","true","251","tones/880hz_short.mp3","s","","","empty_block","","53","","","","0","35",""
"","","","","","html-keyboard-response","197","282106","0.0-239.0-1.0","14","1","2023-10-27 19:04:14","a725c3012b74bf33a1020a98cb69c237","45.71.5.119","Mozilla/5.0 (Windows NT 10.0; Win64; x64) AppleWebKit/537.36 (KHTML, like Gecko) Chrome/117.0.0.0 Safari/537.36","WebKit","Chrome","117.0.0.0","Windows","10.0","null","es-ES,es;q=0.9","true","438","tones/880hz_short.mp3","k","","","empty_block","","53","","","","0","35",""
"","","","","","html-keyboard-response","198","284885","0.0-241.0","14","1","2023-10-27 19:04:14","a725c3012b74bf33a1020a98cb69c237","45.71.5.119","Mozilla/5.0 (Windows NT 10.0; Win64; x64) AppleWebKit/537.36 (KHTML, like Gecko) Chrome/117.0.0.0 Safari/537.36","WebKit","Chrome","117.0.0.0","Windows","10.0","null","es-ES,es;q=0.9","true","null","<div style=""font-size:100px;"">X</div>","null","","","fixation","","","","","","","",""
"","","","","","audio-keyboard-response","199","285141","0.0-242.0","14","1","2023-10-27 19:04:14","a725c3012b74bf33a1020a98cb69c237","45.71.5.119","Mozilla/5.0 (Windows NT 10.0; Win64; x64) AppleWebKit/537.36 (KHTML, like Gecko) Chrome/117.0.0.0 Safari/537.36","WebKit","Chrome","117.0.0.0","Windows","10.0","null","es-ES,es;q=0.9","true","null","tones/440hz_short.mp3","null","","","tone_number_task","102.5","21","tones/440hz_short.mp3","252.5","100","0","36",""
"","","","","","html-keyboard-response","200","285434","0.0-245.0-0.0","14","1","2023-10-27 19:04:14","a725c3012b74bf33a1020a98cb69c237","45.71.5.119","Mozilla/5.0 (Windows NT 10.0; Win64; x64) AppleWebKit/537.36 (KHTML, like Gecko) Chrome/117.0.0.0 Safari/537.36","WebKit","Chrome","117.0.0.0","Windows","10.0","null","es-ES,es;q=0.9","true","291","tones/440hz_short.mp3","a","","","empty_block","","21","","","","0","36",""
"","","","","","html-keyboard-response","201","285826","0.0-245.0-1.0","14","1","2023-10-27 19:04:14","a725c3012b74bf33a1020a98cb69c237","45.71.5.119","Mozilla/5.0 (Windows NT 10.0; Win64; x64) AppleWebKit/537.36 (KHTML, like Gecko) Chrome/117.0.0.0 Safari/537.36","WebKit","Chrome","117.0.0.0","Windows","10.0","null","es-ES,es;q=0.9","true","390","tones/440hz_short.mp3","j","","","empty_block","","21","","","","0","36",""
"","","","","","html-keyboard-response","202","288606","0.0-247.0","14","1","2023-10-27 19:04:14","a725c3012b74bf33a1020a98cb69c237","45.71.5.119","Mozilla/5.0 (Windows NT 10.0; Win64; x64) AppleWebKit/537.36 (KHTML, like Gecko) Chrome/117.0.0.0 Safari/537.36","WebKit","Chrome","117.0.0.0","Windows","10.0","null","es-ES,es;q=0.9","true","null","<div style=""font-size:100px;"">X</div>","null","","","fixation","","","","","","","",""
"","","","","","audio-keyboard-response","203","288759","0.0-248.0","14","1","2023-10-27 19:04:14","a725c3012b74bf33a1020a98cb69c237","45.71.5.119","Mozilla/5.0 (Windows NT 10.0; Win64; x64) AppleWebKit/537.36 (KHTML, like Gecko) Chrome/117.0.0.0 Safari/537.36","WebKit","Chrome","117.0.0.0","Windows","10.0","null","es-ES,es;q=0.9","true","null","tones/440hz_short.mp3","null","","","tone_number_task","0","39","tones/440hz_short.mp3","150","100","0","37",""
"","","","","","html-keyboard-response","204","289268","0.0-251.0-0.0","14","1","2023-10-27 19:04:14","a725c3012b74bf33a1020a98cb69c237","45.71.5.119","Mozilla/5.0 (Windows NT 10.0; Win64; x64) AppleWebKit/537.36 (KHTML, like Gecko) Chrome/117.0.0.0 Safari/537.36","WebKit","Chrome","117.0.0.0","Windows","10.0","null","es-ES,es;q=0.9","true","506","tones/440hz_short.mp3","a","","","empty_block","","39","","","","0","37",""
"","","","","","html-keyboard-response","205","289851","0.0-251.0-1.0","14","1","2023-10-27 19:04:14","a725c3012b74bf33a1020a98cb69c237","45.71.5.119","Mozilla/5.0 (Windows NT 10.0; Win64; x64) AppleWebKit/537.36 (KHTML, like Gecko) Chrome/117.0.0.0 Safari/537.36","WebKit","Chrome","117.0.0.0","Windows","10.0","null","es-ES,es;q=0.9","true","578","tones/440hz_short.mp3","j","","","empty_block","","39","","","","0","37",""
"","","","","","html-keyboard-response","206","292634","0.0-253.0","14","1","2023-10-27 19:04:14","a725c3012b74bf33a1020a98cb69c237","45.71.5.119","Mozilla/5.0 (Windows NT 10.0; Win64; x64) AppleWebKit/537.36 (KHTML, like Gecko) Chrome/117.0.0.0 Safari/537.36","WebKit","Chrome","117.0.0.0","Windows","10.0","null","es-ES,es;q=0.9","true","null","<div style=""font-size:100px;"">X</div>","null","","","fixation","","","","","","","",""
"","","","","","audio-keyboard-response","207","293203","0.0-254.0","14","1","2023-10-27 19:04:14","a725c3012b74bf33a1020a98cb69c237","45.71.5.119","Mozilla/5.0 (Windows NT 10.0; Win64; x64) AppleWebKit/537.36 (KHTML, like Gecko) Chrome/117.0.0.0 Safari/537.36","WebKit","Chrome","117.0.0.0","Windows","10.0","null","es-ES,es;q=0.9","true","560","tones/880hz_short.mp3","s","","","tone_number_task","1025","66","tones/880hz_short.mp3","1175","100","0","38",""
"","","","","","html-keyboard-response","208","293674","0.0-255.0-0.0","14","1","2023-10-27 19:04:14","a725c3012b74bf33a1020a98cb69c237","45.71.5.119","Mozilla/5.0 (Windows NT 10.0; Win64; x64) AppleWebKit/537.36 (KHTML, like Gecko) Chrome/117.0.0.0 Safari/537.36","WebKit","Chrome","117.0.0.0","Windows","10.0","null","es-ES,es;q=0.9","true","null","","null","","","delay_block","","","","","","0","38",""
"","","","","","html-keyboard-response","209","293831","0.0-255.0-1.0","14","1","2023-10-27 19:04:14","a725c3012b74bf33a1020a98cb69c237","45.71.5.119","Mozilla/5.0 (Windows NT 10.0; Win64; x64) AppleWebKit/537.36 (KHTML, like Gecko) Chrome/117.0.0.0 Safari/537.36","WebKit","Chrome","117.0.0.0","Windows","10.0","null","es-ES,es;q=0.9","true","null","<p id=""stimulus"" style=""font-size:100px;"">66</p>","null","","","tone_number_task_remaining_before_delay","","66","","615","100","0","38",""
"","","","","","html-keyboard-response","210","294051","0.0-258.0-0.0","14","1","2023-10-27 19:04:14","a725c3012b74bf33a1020a98cb69c237","45.71.5.119","Mozilla/5.0 (Windows NT 10.0; Win64; x64) AppleWebKit/537.36 (KHTML, like Gecko) Chrome/117.0.0.0 Safari/537.36","WebKit","Chrome","117.0.0.0","Windows","10.0","null","es-ES,es;q=0.9","true","216","<p id=""stimulus"" style=""font-size:100px;"">66</p>","k","","","empty_block","","66","","","","0","38",""
"","","","","","html-keyboard-response","211","296835","0.0-259.0","14","1","2023-10-27 19:04:14","a725c3012b74bf33a1020a98cb69c237","45.71.5.119","Mozilla/5.0 (Windows NT 10.0; Win64; x64) AppleWebKit/537.36 (KHTML, like Gecko) Chrome/117.0.0.0 Safari/537.36","WebKit","Chrome","117.0.0.0","Windows","10.0","null","es-ES,es;q=0.9","true","null","<div style=""font-size:100px;"">X</div>","null","","","fixation","","","","","","","",""
"","","","","","audio-keyboard-response","212","297500","0.0-260.0","14","1","2023-10-27 19:04:14","a725c3012b74bf33a1020a98cb69c237","45.71.5.119","Mozilla/5.0 (Windows NT 10.0; Win64; x64) AppleWebKit/537.36 (KHTML, like Gecko) Chrome/117.0.0.0 Safari/537.36","WebKit","Chrome","117.0.0.0","Windows","10.0","null","es-ES,es;q=0.9","true","659","tones/880hz_short.mp3","s","","","tone_number_task","992.5","28","tones/880hz_short.mp3","1142.5","100","0","39",""
"","","","","","html-keyboard-response","213","297838","0.0-261.0-0.0","14","1","2023-10-27 19:04:14","a725c3012b74bf33a1020a98cb69c237","45.71.5.119","Mozilla/5.0 (Windows NT 10.0; Win64; x64) AppleWebKit/537.36 (KHTML, like Gecko) Chrome/117.0.0.0 Safari/537.36","WebKit","Chrome","117.0.0.0","Windows","10.0","null","es-ES,es;q=0.9","true","null","","null","","","delay_block","","","","","","0","39",""
"","","","","","html-keyboard-response","214","297991","0.0-261.0-1.0","14","1","2023-10-27 19:04:14","a725c3012b74bf33a1020a98cb69c237","45.71.5.119","Mozilla/5.0 (Windows NT 10.0; Win64; x64) AppleWebKit/537.36 (KHTML, like Gecko) Chrome/117.0.0.0 Safari/537.36","WebKit","Chrome","117.0.0.0","Windows","10.0","null","es-ES,es;q=0.9","true","null","<p id=""stimulus"" style=""font-size:100px;"">28</p>","null","","","tone_number_task_remaining_before_delay","","28","","483.5","100","0","39",""
"","","","","","html-keyboard-response","215","298242","0.0-264.0-0.0","14","1","2023-10-27 19:04:14","a725c3012b74bf33a1020a98cb69c237","45.71.5.119","Mozilla/5.0 (Windows NT 10.0; Win64; x64) AppleWebKit/537.36 (KHTML, like Gecko) Chrome/117.0.0.0 Safari/537.36","WebKit","Chrome","117.0.0.0","Windows","10.0","null","es-ES,es;q=0.9","true","245","<p id=""stimulus"" style=""font-size:100px;"">28</p>","j","","","empty_block","","28","","","","0","39",""
"","","","","","call-function","216","298244","0.0-265.0","14","1","2023-10-27 19:04:14","a725c3012b74bf33a1020a98cb69c237","45.71.5.119","Mozilla/5.0 (Windows NT 10.0; Win64; x64) AppleWebKit/537.36 (KHTML, like Gecko) Chrome/117.0.0.0 Safari/537.36","WebKit","Chrome","117.0.0.0","Windows","10.0","null","es-ES,es;q=0.9","true","","","","","","","","","","","","","",""
"","","","","","external-html","217","320791","0.0-266.0","14","1","2023-10-27 19:04:14","a725c3012b74bf33a1020a98cb69c237","45.71.5.119","Mozilla/5.0 (Windows NT 10.0; Win64; x64) AppleWebKit/537.36 (KHTML, like Gecko) Chrome/117.0.0.0 Safari/537.36","WebKit","Chrome","117.0.0.0","Windows","10.0","null","es-ES,es;q=0.9","true","22254","","","","instructions/instructions_digits_last.html","","","","","","","","",""
"","","","","","call-function","218","320796","0.0-267.0","14","1","2023-10-27 19:04:14","a725c3012b74bf33a1020a98cb69c237","45.71.5.119","Mozilla/5.0 (Windows NT 10.0; Win64; x64) AppleWebKit/537.36 (KHTML, like Gecko) Chrome/117.0.0.0 Safari/537.36","WebKit","Chrome","117.0.0.0","Windows","10.0","null","es-ES,es;q=0.9","true","","","","","","","","","","","","","",""
"","","","","","html-keyboard-response","219","323575","0.0-268.0","14","1","2023-10-27 19:04:14","a725c3012b74bf33a1020a98cb69c237","45.71.5.119","Mozilla/5.0 (Windows NT 10.0; Win64; x64) AppleWebKit/537.36 (KHTML, like Gecko) Chrome/117.0.0.0 Safari/537.36","WebKit","Chrome","117.0.0.0","Windows","10.0","null","es-ES,es;q=0.9","true","null","<div style=""font-size:100px;"">X</div>","null","","","fixation","","","","","","","",""
"","","","","","audio-keyboard-response","220","323840","0.0-269.0","14","1","2023-10-27 19:04:14","a725c3012b74bf33a1020a98cb69c237","45.71.5.119","Mozilla/5.0 (Windows NT 10.0; Win64; x64) AppleWebKit/537.36 (KHTML, like Gecko) Chrome/117.0.0.0 Safari/537.36","WebKit","Chrome","117.0.0.0","Windows","10.0","null","es-ES,es;q=0.9","true","null","tones/440hz_short.mp3","null","","","tone_number_task","102.5","65","tones/440hz_short.mp3","252.5","100","1","0",""
"","","","","","html-keyboard-response","221","324320","0.0-272.0-0.0","14","1","2023-10-27 19:04:14","a725c3012b74bf33a1020a98cb69c237","45.71.5.119","Mozilla/5.0 (Windows NT 10.0; Win64; x64) AppleWebKit/537.36 (KHTML, like Gecko) Chrome/117.0.0.0 Safari/537.36","WebKit","Chrome","117.0.0.0","Windows","10.0","null","es-ES,es;q=0.9","true","473","tones/440hz_short.mp3","a","","","empty_block","","65","","","","1","0",""
"","","","","","html-keyboard-response","222","324608","0.0-272.0-1.0","14","1","2023-10-27 19:04:14","a725c3012b74bf33a1020a98cb69c237","45.71.5.119","Mozilla/5.0 (Windows NT 10.0; Win64; x64) AppleWebKit/537.36 (KHTML, like Gecko) Chrome/117.0.0.0 Safari/537.36","WebKit","Chrome","117.0.0.0","Windows","10.0","null","es-ES,es;q=0.9","true","281","tones/440hz_short.mp3","k","","","empty_block","","65","","","","1","0",""
