"success","timeout","failed_images","failed_audio","failed_video","trial_type","trial_index","time_elapsed","internal_node_id","run_id","condition","recorded_at","source_code_version","ip","user_agent","device","browser","browser_version","platform","platform_version","referer","accept_language","check","rt","stimulus","response","question_order","url","task","delay","number","audioFile","trial_duration","font_size","block","round"
"true","false","[]","[]","[]","preload","0","14","0.0-0.0","9","1","2023-10-16 15:42:05","e9d48ac1168f4a655ba3cac2ff085c86","181.169.73.153","Mozilla/5.0 (Macintosh; Intel Mac OS X 10_15_7) AppleWebKit/537.36 (KHTML, like Gecko) Chrome/115.0.0.0 Safari/537.36","Macintosh","Chrome","115.0.0.0","OS X","10_15_7","null","es-ES,es;q=0.9","true","","","","","","","","","","","","",""
"true","","","","","fullscreen","1","10769439","0.0-1.0","9","1","2023-10-16 15:42:05","e9d48ac1168f4a655ba3cac2ff085c86","181.169.73.153","Mozilla/5.0 (Macintosh; Intel Mac OS X 10_15_7) AppleWebKit/537.36 (KHTML, like Gecko) Chrome/115.0.0.0 Safari/537.36","Macintosh","Chrome","115.0.0.0","OS X","10_15_7","null","es-ES,es;q=0.9","true","","","","","","","","","","","","",""
"","","","","","html-button-response","2","10773702","0.0-2.0","9","1","2023-10-16 15:42:05","e9d48ac1168f4a655ba3cac2ff085c86","181.169.73.153","Mozilla/5.0 (Macintosh; Intel Mac OS X 10_15_7) AppleWebKit/537.36 (KHTML, like Gecko) Chrome/115.0.0.0 Safari/537.36","Macintosh","Chrome","115.0.0.0","OS X","10_15_7","null","es-ES,es;q=0.9","true","4262","<p style=""font-size:24px; color:red;"">Cosas importantes a tener en cuenta antes de comenzar el experimento:</p>","0","","","","","","","","","",""
"","","","","","html-button-response","3","10778166","0.0-3.0","9","1","2023-10-16 15:42:05","e9d48ac1168f4a655ba3cac2ff085c86","181.169.73.153","Mozilla/5.0 (Macintosh; Intel Mac OS X 10_15_7) AppleWebKit/537.36 (KHTML, like Gecko) Chrome/115.0.0.0 Safari/537.36","Macintosh","Chrome","115.0.0.0","OS X","10_15_7","null","es-ES,es;q=0.9","true","4463","<p style=""font-size:24px;"">El experimento dura aproximadamente 15 minutos.</p><p style=""font-size:24px;"">Por favor, no cierres la ventana del navegador durante el experimento.</p><p style=""font-size:24px;"">Si se completa de forma parcial, no se guardará ningún resultado.</p>","0","","","","","","","","","",""
"","","","","","html-button-response","4","10780030","0.0-4.0","9","1","2023-10-16 15:42:05","e9d48ac1168f4a655ba3cac2ff085c86","181.169.73.153","Mozilla/5.0 (Macintosh; Intel Mac OS X 10_15_7) AppleWebKit/537.36 (KHTML, like Gecko) Chrome/115.0.0.0 Safari/537.36","Macintosh","Chrome","115.0.0.0","OS X","10_15_7","null","es-ES,es;q=0.9","true","1863","<p style=""font-size:24px;"">El experimento contiene estímulos sonoros.</p>","0","","","","","","","","","",""
"","","","","","audio-button-response","5","10784622","0.0-5.0-0.0","9","1","2023-10-16 15:42:05","e9d48ac1168f4a655ba3cac2ff085c86","181.169.73.153","Mozilla/5.0 (Macintosh; Intel Mac OS X 10_15_7) AppleWebKit/537.36 (KHTML, like Gecko) Chrome/115.0.0.0 Safari/537.36","Macintosh","Chrome","115.0.0.0","OS X","10_15_7","null","es-ES,es;q=0.9","true","4580","tones/440hz_short.mp3","1","","","","","","","","","",""
"","","","","","audio-button-response","6","10786694","0.0-6.0-0.0","9","1","2023-10-16 15:42:05","e9d48ac1168f4a655ba3cac2ff085c86","181.169.73.153","Mozilla/5.0 (Macintosh; Intel Mac OS X 10_15_7) AppleWebKit/537.36 (KHTML, like Gecko) Chrome/115.0.0.0 Safari/537.36","Macintosh","Chrome","115.0.0.0","OS X","10_15_7","null","es-ES,es;q=0.9","true","2061","tones/880hz_short.mp3","1","","","","","","","","","",""
"","","","","","survey-html-form","7","10792679","0.0-7.0","9","1","2023-10-16 15:42:05","e9d48ac1168f4a655ba3cac2ff085c86","181.169.73.153","Mozilla/5.0 (Macintosh; Intel Mac OS X 10_15_7) AppleWebKit/537.36 (KHTML, like Gecko) Chrome/115.0.0.0 Safari/537.36","Macintosh","Chrome","115.0.0.0","OS X","10_15_7","null","es-ES,es;q=0.9","true","5981","","{""response"":""61""}","","","","","","","","","",""
"","","","","","survey-multi-choice","8","10798135","0.0-8.0","9","1","2023-10-16 15:42:05","e9d48ac1168f4a655ba3cac2ff085c86","181.169.73.153","Mozilla/5.0 (Macintosh; Intel Mac OS X 10_15_7) AppleWebKit/537.36 (KHTML, like Gecko) Chrome/115.0.0.0 Safari/537.36","Macintosh","Chrome","115.0.0.0","OS X","10_15_7","null","es-ES,es;q=0.9","true","5439","","{""gender"":""Hombre"",""hand"":""Derecha""}","[0,1]","","","","","","","","",""
"","","","","","external-html","9","10840679","0.0-9.0","9","1","2023-10-16 15:42:05","e9d48ac1168f4a655ba3cac2ff085c86","181.169.73.153","Mozilla/5.0 (Macintosh; Intel Mac OS X 10_15_7) AppleWebKit/537.36 (KHTML, like Gecko) Chrome/115.0.0.0 Safari/537.36","Macintosh","Chrome","115.0.0.0","OS X","10_15_7","null","es-ES,es;q=0.9","true","41789","","","","instructions.html","","","","","","","",""
"","","","","","html-keyboard-response","10","10843648","0.0-10.0-0.0","9","1","2023-10-16 15:42:05","e9d48ac1168f4a655ba3cac2ff085c86","181.169.73.153","Mozilla/5.0 (Macintosh; Intel Mac OS X 10_15_7) AppleWebKit/537.36 (KHTML, like Gecko) Chrome/115.0.0.0 Safari/537.36","Macintosh","Chrome","115.0.0.0","OS X","10_15_7","null","es-ES,es;q=0.9","true","null","<div style=""font-size:100px;"">X</div>","null","","","fixation","","","","","","",""
"","","","","","audio-keyboard-response","11","10844808","0.0-10.0-1.0","9","1","2023-10-16 15:42:05","e9d48ac1168f4a655ba3cac2ff085c86","181.169.73.153","Mozilla/5.0 (Macintosh; Intel Mac OS X 10_15_7) AppleWebKit/537.36 (KHTML, like Gecko) Chrome/115.0.0.0 Safari/537.36","Macintosh","Chrome","115.0.0.0","OS X","10_15_7","null","es-ES,es;q=0.9","true","null","tones/880hz_short.mp3","null","","","tone_number_task","1000","48","tones/880hz_short.mp3","1150","100","null","null"
"","","","","","html-keyboard-response","12","10845735","0.0-10.0-4.0-0.0","9","1","2023-10-16 15:42:05","e9d48ac1168f4a655ba3cac2ff085c86","181.169.73.153","Mozilla/5.0 (Macintosh; Intel Mac OS X 10_15_7) AppleWebKit/537.36 (KHTML, like Gecko) Chrome/115.0.0.0 Safari/537.36","Macintosh","Chrome","115.0.0.0","OS X","10_15_7","null","es-ES,es;q=0.9","true","925","tones/880hz_short.mp3","k","","","empty_block","","48","","","","null","null"
"","","","","","html-keyboard-response","13","10847175","0.0-10.0-4.0-1.0","9","1","2023-10-16 15:42:05","e9d48ac1168f4a655ba3cac2ff085c86","181.169.73.153","Mozilla/5.0 (Macintosh; Intel Mac OS X 10_15_7) AppleWebKit/537.36 (KHTML, like Gecko) Chrome/115.0.0.0 Safari/537.36","Macintosh","Chrome","115.0.0.0","OS X","10_15_7","null","es-ES,es;q=0.9","true","1438","tones/880hz_short.mp3","a","","","empty_block","","48","","","","null","null"
"","","","","","html-button-response","14","10851143","0.0-10.0-6.0-0.0","9","1","2023-10-16 15:42:05","e9d48ac1168f4a655ba3cac2ff085c86","181.169.73.153","Mozilla/5.0 (Macintosh; Intel Mac OS X 10_15_7) AppleWebKit/537.36 (KHTML, like Gecko) Chrome/115.0.0.0 Safari/537.36","Macintosh","Chrome","115.0.0.0","OS X","10_15_7","null","es-ES,es;q=0.9","true","3966","
  '<p style=""font-size:24px; color:red;"">Incorrecto</p><p> Respondiste alguno de los estímulos de manera incorrecta.</p><p>Por favor, repasá las instrucciones y seguimos desde donde nos quedamos. </p>
  ","0","","","","","","","","","",""
"","","","","","external-html","15","10864103","0.0-10.0-6.0-1.0","9","1","2023-10-16 15:42:05","e9d48ac1168f4a655ba3cac2ff085c86","181.169.73.153","Mozilla/5.0 (Macintosh; Intel Mac OS X 10_15_7) AppleWebKit/537.36 (KHTML, like Gecko) Chrome/115.0.0.0 Safari/537.36","Macintosh","Chrome","115.0.0.0","OS X","10_15_7","null","es-ES,es;q=0.9","true","11447","","","","instructions_B.html","","","","","","","",""
"","","","","","html-keyboard-response","16","10867072","0.0-10.1-0.1","9","1","2023-10-16 15:42:05","e9d48ac1168f4a655ba3cac2ff085c86","181.169.73.153","Mozilla/5.0 (Macintosh; Intel Mac OS X 10_15_7) AppleWebKit/537.36 (KHTML, like Gecko) Chrome/115.0.0.0 Safari/537.36","Macintosh","Chrome","115.0.0.0","OS X","10_15_7","null","es-ES,es;q=0.9","true","null","<div style=""font-size:100px;"">X</div>","null","","","fixation","","","","","","",""
"","","","","","audio-keyboard-response","17","10868232","0.0-10.1-1.1","9","1","2023-10-16 15:42:05","e9d48ac1168f4a655ba3cac2ff085c86","181.169.73.153","Mozilla/5.0 (Macintosh; Intel Mac OS X 10_15_7) AppleWebKit/537.36 (KHTML, like Gecko) Chrome/115.0.0.0 Safari/537.36","Macintosh","Chrome","115.0.0.0","OS X","10_15_7","null","es-ES,es;q=0.9","true","null","tones/880hz_short.mp3","null","","","tone_number_task","1000","48","tones/880hz_short.mp3","1150","100","null","null"
"","","","","","html-keyboard-response","18","10868471","0.0-10.1-4.1-0.1","9","1","2023-10-16 15:42:05","e9d48ac1168f4a655ba3cac2ff085c86","181.169.73.153","Mozilla/5.0 (Macintosh; Intel Mac OS X 10_15_7) AppleWebKit/537.36 (KHTML, like Gecko) Chrome/115.0.0.0 Safari/537.36","Macintosh","Chrome","115.0.0.0","OS X","10_15_7","null","es-ES,es;q=0.9","true","238","tones/880hz_short.mp3","s","","","empty_block","","48","","","","null","null"
"","","","","","html-keyboard-response","19","10869279","0.0-10.1-4.1-1.1","9","1","2023-10-16 15:42:05","e9d48ac1168f4a655ba3cac2ff085c86","181.169.73.153","Mozilla/5.0 (Macintosh; Intel Mac OS X 10_15_7) AppleWebKit/537.36 (KHTML, like Gecko) Chrome/115.0.0.0 Safari/537.36","Macintosh","Chrome","115.0.0.0","OS X","10_15_7","null","es-ES,es;q=0.9","true","806","tones/880hz_short.mp3","k","","","empty_block","","48","","","","null","null"
"","","","","","html-keyboard-response","20","10872247","0.0-12.0-0.0","9","1","2023-10-16 15:42:05","e9d48ac1168f4a655ba3cac2ff085c86","181.169.73.153","Mozilla/5.0 (Macintosh; Intel Mac OS X 10_15_7) AppleWebKit/537.36 (KHTML, like Gecko) Chrome/115.0.0.0 Safari/537.36","Macintosh","Chrome","115.0.0.0","OS X","10_15_7","null","es-ES,es;q=0.9","true","null","<div style=""font-size:100px;"">X</div>","null","","","fixation","","","","","","",""
"","","","","","audio-keyboard-response","21","10872903","0.0-12.0-1.0","9","1","2023-10-16 15:42:05","e9d48ac1168f4a655ba3cac2ff085c86","181.169.73.153","Mozilla/5.0 (Macintosh; Intel Mac OS X 10_15_7) AppleWebKit/537.36 (KHTML, like Gecko) Chrome/115.0.0.0 Safari/537.36","Macintosh","Chrome","115.0.0.0","OS X","10_15_7","null","es-ES,es;q=0.9","true","null","tones/440hz_short.mp3","null","","","tone_number_task","500","32","tones/440hz_short.mp3","650","100","null","null"
"","","","","","html-keyboard-response","22","10873719","0.0-12.0-4.0-0.0","9","1","2023-10-16 15:42:05","e9d48ac1168f4a655ba3cac2ff085c86","181.169.73.153","Mozilla/5.0 (Macintosh; Intel Mac OS X 10_15_7) AppleWebKit/537.36 (KHTML, like Gecko) Chrome/115.0.0.0 Safari/537.36","Macintosh","Chrome","115.0.0.0","OS X","10_15_7","null","es-ES,es;q=0.9","true","814","tones/440hz_short.mp3","a","","","empty_block","","32","","","","null","null"
"","","","","","html-keyboard-response","23","10874879","0.0-12.0-4.0-1.0","9","1","2023-10-16 15:42:05","e9d48ac1168f4a655ba3cac2ff085c86","181.169.73.153","Mozilla/5.0 (Macintosh; Intel Mac OS X 10_15_7) AppleWebKit/537.36 (KHTML, like Gecko) Chrome/115.0.0.0 Safari/537.36","Macintosh","Chrome","115.0.0.0","OS X","10_15_7","null","es-ES,es;q=0.9","true","1159","tones/440hz_short.mp3","j","","","empty_block","","32","","","","null","null"
"","","","","","html-keyboard-response","24","10877848","0.0-14.0-0.0","9","1","2023-10-16 15:42:05","e9d48ac1168f4a655ba3cac2ff085c86","181.169.73.153","Mozilla/5.0 (Macintosh; Intel Mac OS X 10_15_7) AppleWebKit/537.36 (KHTML, like Gecko) Chrome/115.0.0.0 Safari/537.36","Macintosh","Chrome","115.0.0.0","OS X","10_15_7","null","es-ES,es;q=0.9","true","null","<div style=""font-size:100px;"">X</div>","null","","","fixation","","","","","","",""
"","","","","","audio-keyboard-response","25","10878152","0.0-14.0-1.0","9","1","2023-10-16 15:42:05","e9d48ac1168f4a655ba3cac2ff085c86","181.169.73.153","Mozilla/5.0 (Macintosh; Intel Mac OS X 10_15_7) AppleWebKit/537.36 (KHTML, like Gecko) Chrome/115.0.0.0 Safari/537.36","Macintosh","Chrome","115.0.0.0","OS X","10_15_7","null","es-ES,es;q=0.9","true","null","tones/440hz_short.mp3","null","","","tone_number_task","150","42","tones/440hz_short.mp3","300","100","null","null"
"","","","","","html-keyboard-response","26","10878951","0.0-14.0-4.0-0.0","9","1","2023-10-16 15:42:05","e9d48ac1168f4a655ba3cac2ff085c86","181.169.73.153","Mozilla/5.0 (Macintosh; Intel Mac OS X 10_15_7) AppleWebKit/537.36 (KHTML, like Gecko) Chrome/115.0.0.0 Safari/537.36","Macintosh","Chrome","115.0.0.0","OS X","10_15_7","null","es-ES,es;q=0.9","true","797","tones/440hz_short.mp3","k","","","empty_block","","42","","","","null","null"
"","","","","","html-keyboard-response","27","10879263","0.0-14.0-4.0-1.0","9","1","2023-10-16 15:42:05","e9d48ac1168f4a655ba3cac2ff085c86","181.169.73.153","Mozilla/5.0 (Macintosh; Intel Mac OS X 10_15_7) AppleWebKit/537.36 (KHTML, like Gecko) Chrome/115.0.0.0 Safari/537.36","Macintosh","Chrome","115.0.0.0","OS X","10_15_7","null","es-ES,es;q=0.9","true","310","tones/440hz_short.mp3","s","","","empty_block","","42","","","","null","null"
"","","","","","html-button-response","28","10883063","0.0-14.0-6.0-0.0","9","1","2023-10-16 15:42:05","e9d48ac1168f4a655ba3cac2ff085c86","181.169.73.153","Mozilla/5.0 (Macintosh; Intel Mac OS X 10_15_7) AppleWebKit/537.36 (KHTML, like Gecko) Chrome/115.0.0.0 Safari/537.36","Macintosh","Chrome","115.0.0.0","OS X","10_15_7","null","es-ES,es;q=0.9","true","3798","
  '<p style=""font-size:24px; color:red;"">Incorrecto</p><p> Respondiste alguno de los estímulos de manera incorrecta.</p><p>Por favor, repasá las instrucciones y seguimos desde donde nos quedamos. </p>
  ","0","","","","","","","","","",""
"","","","","","external-html","29","10905607","0.0-14.0-6.0-1.0","9","1","2023-10-16 15:42:05","e9d48ac1168f4a655ba3cac2ff085c86","181.169.73.153","Mozilla/5.0 (Macintosh; Intel Mac OS X 10_15_7) AppleWebKit/537.36 (KHTML, like Gecko) Chrome/115.0.0.0 Safari/537.36","Macintosh","Chrome","115.0.0.0","OS X","10_15_7","null","es-ES,es;q=0.9","true","22263","","","","instructions_B.html","","","","","","","",""
"","","","","","html-keyboard-response","30","10908576","0.0-14.1-0.1","9","1","2023-10-16 15:42:05","e9d48ac1168f4a655ba3cac2ff085c86","181.169.73.153","Mozilla/5.0 (Macintosh; Intel Mac OS X 10_15_7) AppleWebKit/537.36 (KHTML, like Gecko) Chrome/115.0.0.0 Safari/537.36","Macintosh","Chrome","115.0.0.0","OS X","10_15_7","null","es-ES,es;q=0.9","true","null","<div style=""font-size:100px;"">X</div>","null","","","fixation","","","","","","",""
"","","","","","audio-keyboard-response","31","10908880","0.0-14.1-1.1","9","1","2023-10-16 15:42:05","e9d48ac1168f4a655ba3cac2ff085c86","181.169.73.153","Mozilla/5.0 (Macintosh; Intel Mac OS X 10_15_7) AppleWebKit/537.36 (KHTML, like Gecko) Chrome/115.0.0.0 Safari/537.36","Macintosh","Chrome","115.0.0.0","OS X","10_15_7","null","es-ES,es;q=0.9","true","null","tones/440hz_short.mp3","null","","","tone_number_task","150","42","tones/440hz_short.mp3","300","100","null","null"
"","","","","","html-keyboard-response","32","10909455","0.0-14.1-4.1-0.1","9","1","2023-10-16 15:42:05","e9d48ac1168f4a655ba3cac2ff085c86","181.169.73.153","Mozilla/5.0 (Macintosh; Intel Mac OS X 10_15_7) AppleWebKit/537.36 (KHTML, like Gecko) Chrome/115.0.0.0 Safari/537.36","Macintosh","Chrome","115.0.0.0","OS X","10_15_7","null","es-ES,es;q=0.9","true","574","tones/440hz_short.mp3","s","","","empty_block","","42","","","","null","null"
"","","","","","html-keyboard-response","33","10910023","0.0-14.1-4.1-1.1","9","1","2023-10-16 15:42:05","e9d48ac1168f4a655ba3cac2ff085c86","181.169.73.153","Mozilla/5.0 (Macintosh; Intel Mac OS X 10_15_7) AppleWebKit/537.36 (KHTML, like Gecko) Chrome/115.0.0.0 Safari/537.36","Macintosh","Chrome","115.0.0.0","OS X","10_15_7","null","es-ES,es;q=0.9","true","566","tones/440hz_short.mp3","k","","","empty_block","","42","","","","null","null"
"","","","","","html-button-response","34","10918719","0.0-14.1-6.1-0.1","9","1","2023-10-16 15:42:05","e9d48ac1168f4a655ba3cac2ff085c86","181.169.73.153","Mozilla/5.0 (Macintosh; Intel Mac OS X 10_15_7) AppleWebKit/537.36 (KHTML, like Gecko) Chrome/115.0.0.0 Safari/537.36","Macintosh","Chrome","115.0.0.0","OS X","10_15_7","null","es-ES,es;q=0.9","true","8694","
  '<p style=""font-size:24px; color:red;"">Incorrecto</p><p> Respondiste alguno de los estímulos de manera incorrecta.</p><p>Por favor, repasá las instrucciones y seguimos desde donde nos quedamos. </p>
  ","0","","","","","","","","","",""
"","","","","","external-html","35","10931456","0.0-14.1-6.1-1.1","9","1","2023-10-16 15:42:05","e9d48ac1168f4a655ba3cac2ff085c86","181.169.73.153","Mozilla/5.0 (Macintosh; Intel Mac OS X 10_15_7) AppleWebKit/537.36 (KHTML, like Gecko) Chrome/115.0.0.0 Safari/537.36","Macintosh","Chrome","115.0.0.0","OS X","10_15_7","null","es-ES,es;q=0.9","true","12360","","","","instructions_B.html","","","","","","","",""
"","","","","","html-keyboard-response","36","10934424","0.0-14.2-0.2","9","1","2023-10-16 15:42:05","e9d48ac1168f4a655ba3cac2ff085c86","181.169.73.153","Mozilla/5.0 (Macintosh; Intel Mac OS X 10_15_7) AppleWebKit/537.36 (KHTML, like Gecko) Chrome/115.0.0.0 Safari/537.36","Macintosh","Chrome","115.0.0.0","OS X","10_15_7","null","es-ES,es;q=0.9","true","null","<div style=""font-size:100px;"">X</div>","null","","","fixation","","","","","","",""
"","","","","","audio-keyboard-response","37","10934728","0.0-14.2-1.2","9","1","2023-10-16 15:42:05","e9d48ac1168f4a655ba3cac2ff085c86","181.169.73.153","Mozilla/5.0 (Macintosh; Intel Mac OS X 10_15_7) AppleWebKit/537.36 (KHTML, like Gecko) Chrome/115.0.0.0 Safari/537.36","Macintosh","Chrome","115.0.0.0","OS X","10_15_7","null","es-ES,es;q=0.9","true","null","tones/440hz_short.mp3","null","","","tone_number_task","150","42","tones/440hz_short.mp3","300","100","null","null"
"","","","","","html-keyboard-response","38","10935183","0.0-14.2-4.2-0.2","9","1","2023-10-16 15:42:05","e9d48ac1168f4a655ba3cac2ff085c86","181.169.73.153","Mozilla/5.0 (Macintosh; Intel Mac OS X 10_15_7) AppleWebKit/537.36 (KHTML, like Gecko) Chrome/115.0.0.0 Safari/537.36","Macintosh","Chrome","115.0.0.0","OS X","10_15_7","null","es-ES,es;q=0.9","true","454","tones/440hz_short.mp3","s","","","empty_block","","42","","","","null","null"
"","","","","","html-keyboard-response","39","10935495","0.0-14.2-4.2-1.2","9","1","2023-10-16 15:42:05","e9d48ac1168f4a655ba3cac2ff085c86","181.169.73.153","Mozilla/5.0 (Macintosh; Intel Mac OS X 10_15_7) AppleWebKit/537.36 (KHTML, like Gecko) Chrome/115.0.0.0 Safari/537.36","Macintosh","Chrome","115.0.0.0","OS X","10_15_7","null","es-ES,es;q=0.9","true","310","tones/440hz_short.mp3","k","","","empty_block","","42","","","","null","null"
"","","","","","html-button-response","40","10939183","0.0-14.2-6.2-0.2","9","1","2023-10-16 15:42:05","e9d48ac1168f4a655ba3cac2ff085c86","181.169.73.153","Mozilla/5.0 (Macintosh; Intel Mac OS X 10_15_7) AppleWebKit/537.36 (KHTML, like Gecko) Chrome/115.0.0.0 Safari/537.36","Macintosh","Chrome","115.0.0.0","OS X","10_15_7","null","es-ES,es;q=0.9","true","3686","
  '<p style=""font-size:24px; color:red;"">Incorrecto</p><p> Respondiste alguno de los estímulos de manera incorrecta.</p><p>Por favor, repasá las instrucciones y seguimos desde donde nos quedamos. </p>
  ","0","","","","","","","","","",""
"","","","","","external-html","41","10948664","0.0-14.2-6.2-1.2","9","1","2023-10-16 15:42:05","e9d48ac1168f4a655ba3cac2ff085c86","181.169.73.153","Mozilla/5.0 (Macintosh; Intel Mac OS X 10_15_7) AppleWebKit/537.36 (KHTML, like Gecko) Chrome/115.0.0.0 Safari/537.36","Macintosh","Chrome","115.0.0.0","OS X","10_15_7","null","es-ES,es;q=0.9","true","9095","","","","instructions_B.html","","","","","","","",""
"","","","","","html-keyboard-response","42","10951633","0.0-14.3-0.3","9","1","2023-10-16 15:42:05","e9d48ac1168f4a655ba3cac2ff085c86","181.169.73.153","Mozilla/5.0 (Macintosh; Intel Mac OS X 10_15_7) AppleWebKit/537.36 (KHTML, like Gecko) Chrome/115.0.0.0 Safari/537.36","Macintosh","Chrome","115.0.0.0","OS X","10_15_7","null","es-ES,es;q=0.9","true","null","<div style=""font-size:100px;"">X</div>","null","","","fixation","","","","","","",""
"","","","","","audio-keyboard-response","43","10951936","0.0-14.3-1.3","9","1","2023-10-16 15:42:05","e9d48ac1168f4a655ba3cac2ff085c86","181.169.73.153","Mozilla/5.0 (Macintosh; Intel Mac OS X 10_15_7) AppleWebKit/537.36 (KHTML, like Gecko) Chrome/115.0.0.0 Safari/537.36","Macintosh","Chrome","115.0.0.0","OS X","10_15_7","null","es-ES,es;q=0.9","true","null","tones/440hz_short.mp3","null","","","tone_number_task","150","42","tones/440hz_short.mp3","300","100","null","null"
"","","","","","html-keyboard-response","44","10953184","0.0-14.3-4.3-0.3","9","1","2023-10-16 15:42:05","e9d48ac1168f4a655ba3cac2ff085c86","181.169.73.153","Mozilla/5.0 (Macintosh; Intel Mac OS X 10_15_7) AppleWebKit/537.36 (KHTML, like Gecko) Chrome/115.0.0.0 Safari/537.36","Macintosh","Chrome","115.0.0.0","OS X","10_15_7","null","es-ES,es;q=0.9","true","1246","tones/440hz_short.mp3","s","","","empty_block","","42","","","","null","null"
"","","","","","html-keyboard-response","45","10953223","0.0-14.3-4.3-1.3","9","1","2023-10-16 15:42:05","e9d48ac1168f4a655ba3cac2ff085c86","181.169.73.153","Mozilla/5.0 (Macintosh; Intel Mac OS X 10_15_7) AppleWebKit/537.36 (KHTML, like Gecko) Chrome/115.0.0.0 Safari/537.36","Macintosh","Chrome","115.0.0.0","OS X","10_15_7","null","es-ES,es;q=0.9","true","37","tones/440hz_short.mp3","k","","","empty_block","","42","","","","null","null"
"","","","","","html-button-response","46","10957487","0.0-14.3-6.3-0.3","9","1","2023-10-16 15:42:05","e9d48ac1168f4a655ba3cac2ff085c86","181.169.73.153","Mozilla/5.0 (Macintosh; Intel Mac OS X 10_15_7) AppleWebKit/537.36 (KHTML, like Gecko) Chrome/115.0.0.0 Safari/537.36","Macintosh","Chrome","115.0.0.0","OS X","10_15_7","null","es-ES,es;q=0.9","true","4262","
  '<p style=""font-size:24px; color:red;"">Incorrecto</p><p> Respondiste alguno de los estímulos de manera incorrecta.</p><p>Por favor, repasá las instrucciones y seguimos desde donde nos quedamos. </p>
  ","0","","","","","","","","","",""
"","","","","","external-html","47","10965232","0.0-14.3-6.3-1.3","9","1","2023-10-16 15:42:05","e9d48ac1168f4a655ba3cac2ff085c86","181.169.73.153","Mozilla/5.0 (Macintosh; Intel Mac OS X 10_15_7) AppleWebKit/537.36 (KHTML, like Gecko) Chrome/115.0.0.0 Safari/537.36","Macintosh","Chrome","115.0.0.0","OS X","10_15_7","null","es-ES,es;q=0.9","true","7463","","","","instructions_B.html","","","","","","","",""
"","","","","","html-keyboard-response","48","10968200","0.0-14.4-0.4","9","1","2023-10-16 15:42:05","e9d48ac1168f4a655ba3cac2ff085c86","181.169.73.153","Mozilla/5.0 (Macintosh; Intel Mac OS X 10_15_7) AppleWebKit/537.36 (KHTML, like Gecko) Chrome/115.0.0.0 Safari/537.36","Macintosh","Chrome","115.0.0.0","OS X","10_15_7","null","es-ES,es;q=0.9","true","null","<div style=""font-size:100px;"">X</div>","null","","","fixation","","","","","","",""
"","","","","","audio-keyboard-response","49","10968504","0.0-14.4-1.4","9","1","2023-10-16 15:42:05","e9d48ac1168f4a655ba3cac2ff085c86","181.169.73.153","Mozilla/5.0 (Macintosh; Intel Mac OS X 10_15_7) AppleWebKit/537.36 (KHTML, like Gecko) Chrome/115.0.0.0 Safari/537.36","Macintosh","Chrome","115.0.0.0","OS X","10_15_7","null","es-ES,es;q=0.9","true","null","tones/440hz_short.mp3","null","","","tone_number_task","150","42","tones/440hz_short.mp3","300","100","null","null"
"","","","","","html-keyboard-response","50","10968959","0.0-14.4-4.4-0.4","9","1","2023-10-16 15:42:05","e9d48ac1168f4a655ba3cac2ff085c86","181.169.73.153","Mozilla/5.0 (Macintosh; Intel Mac OS X 10_15_7) AppleWebKit/537.36 (KHTML, like Gecko) Chrome/115.0.0.0 Safari/537.36","Macintosh","Chrome","115.0.0.0","OS X","10_15_7","null","es-ES,es;q=0.9","true","454","tones/440hz_short.mp3","s","","","empty_block","","42","","","","null","null"
"","","","","","html-keyboard-response","51","10969207","0.0-14.4-4.4-1.4","9","1","2023-10-16 15:42:05","e9d48ac1168f4a655ba3cac2ff085c86","181.169.73.153","Mozilla/5.0 (Macintosh; Intel Mac OS X 10_15_7) AppleWebKit/537.36 (KHTML, like Gecko) Chrome/115.0.0.0 Safari/537.36","Macintosh","Chrome","115.0.0.0","OS X","10_15_7","null","es-ES,es;q=0.9","true","245","tones/440hz_short.mp3","k","","","empty_block","","42","","","","null","null"
"","","","","","html-button-response","52","10975632","0.0-14.4-6.4-0.4","9","1","2023-10-16 15:42:05","e9d48ac1168f4a655ba3cac2ff085c86","181.169.73.153","Mozilla/5.0 (Macintosh; Intel Mac OS X 10_15_7) AppleWebKit/537.36 (KHTML, like Gecko) Chrome/115.0.0.0 Safari/537.36","Macintosh","Chrome","115.0.0.0","OS X","10_15_7","null","es-ES,es;q=0.9","true","6422","
  '<p style=""font-size:24px; color:red;"">Incorrecto</p><p> Respondiste alguno de los estímulos de manera incorrecta.</p><p>Por favor, repasá las instrucciones y seguimos desde donde nos quedamos. </p>
  ","0","","","","","","","","","",""
"","","","","","external-html","53","11035288","0.0-14.4-6.4-1.4","9","1","2023-10-16 15:42:05","e9d48ac1168f4a655ba3cac2ff085c86","181.169.73.153","Mozilla/5.0 (Macintosh; Intel Mac OS X 10_15_7) AppleWebKit/537.36 (KHTML, like Gecko) Chrome/115.0.0.0 Safari/537.36","Macintosh","Chrome","115.0.0.0","OS X","10_15_7","null","es-ES,es;q=0.9","true","59265","","","","instructions_B.html","","","","","","","",""
"","","","","","html-keyboard-response","54","11038257","0.0-14.5-0.5","9","1","2023-10-16 15:42:05","e9d48ac1168f4a655ba3cac2ff085c86","181.169.73.153","Mozilla/5.0 (Macintosh; Intel Mac OS X 10_15_7) AppleWebKit/537.36 (KHTML, like Gecko) Chrome/115.0.0.0 Safari/537.36","Macintosh","Chrome","115.0.0.0","OS X","10_15_7","null","es-ES,es;q=0.9","true","null","<div style=""font-size:100px;"">X</div>","null","","","fixation","","","","","","",""
"","","","","","audio-keyboard-response","55","11038561","0.0-14.5-1.5","9","1","2023-10-16 15:42:05","e9d48ac1168f4a655ba3cac2ff085c86","181.169.73.153","Mozilla/5.0 (Macintosh; Intel Mac OS X 10_15_7) AppleWebKit/537.36 (KHTML, like Gecko) Chrome/115.0.0.0 Safari/537.36","Macintosh","Chrome","115.0.0.0","OS X","10_15_7","null","es-ES,es;q=0.9","true","null","tones/440hz_short.mp3","null","","","tone_number_task","150","42","tones/440hz_short.mp3","300","100","null","null"
"","","","","","html-keyboard-response","56","11039576","0.0-14.5-4.5-0.5","9","1","2023-10-16 15:42:05","e9d48ac1168f4a655ba3cac2ff085c86","181.169.73.153","Mozilla/5.0 (Macintosh; Intel Mac OS X 10_15_7) AppleWebKit/537.36 (KHTML, like Gecko) Chrome/115.0.0.0 Safari/537.36","Macintosh","Chrome","115.0.0.0","OS X","10_15_7","null","es-ES,es;q=0.9","true","1013","tones/440hz_short.mp3","a","","","empty_block","","42","","","","null","null"
"","","","","","html-keyboard-response","57","11040432","0.0-14.5-4.5-1.5","9","1","2023-10-16 15:42:05","e9d48ac1168f4a655ba3cac2ff085c86","181.169.73.153","Mozilla/5.0 (Macintosh; Intel Mac OS X 10_15_7) AppleWebKit/537.36 (KHTML, like Gecko) Chrome/115.0.0.0 Safari/537.36","Macintosh","Chrome","115.0.0.0","OS X","10_15_7","null","es-ES,es;q=0.9","true","853","tones/440hz_short.mp3","k","","","empty_block","","42","","","","null","null"
"","","","","","html-button-response","58","11045880","0.0-14.5-6.5-0.5","9","1","2023-10-16 15:42:05","e9d48ac1168f4a655ba3cac2ff085c86","181.169.73.153","Mozilla/5.0 (Macintosh; Intel Mac OS X 10_15_7) AppleWebKit/537.36 (KHTML, like Gecko) Chrome/115.0.0.0 Safari/537.36","Macintosh","Chrome","115.0.0.0","OS X","10_15_7","null","es-ES,es;q=0.9","true","5446","
  '<p style=""font-size:24px; color:red;"">Incorrecto</p><p> Respondiste alguno de los estímulos de manera incorrecta.</p><p>Por favor, repasá las instrucciones y seguimos desde donde nos quedamos. </p>
  ","0","","","","","","","","","",""
"","","","","","external-html","59","11054273","0.0-14.5-6.5-1.5","9","1","2023-10-16 15:42:05","e9d48ac1168f4a655ba3cac2ff085c86","181.169.73.153","Mozilla/5.0 (Macintosh; Intel Mac OS X 10_15_7) AppleWebKit/537.36 (KHTML, like Gecko) Chrome/115.0.0.0 Safari/537.36","Macintosh","Chrome","115.0.0.0","OS X","10_15_7","null","es-ES,es;q=0.9","true","7991","","","","instructions_B.html","","","","","","","",""
"","","","","","html-keyboard-response","60","11057249","0.0-14.6-0.6","9","1","2023-10-16 15:42:05","e9d48ac1168f4a655ba3cac2ff085c86","181.169.73.153","Mozilla/5.0 (Macintosh; Intel Mac OS X 10_15_7) AppleWebKit/537.36 (KHTML, like Gecko) Chrome/115.0.0.0 Safari/537.36","Macintosh","Chrome","115.0.0.0","OS X","10_15_7","null","es-ES,es;q=0.9","true","null","<div style=""font-size:100px;"">X</div>","null","","","fixation","","","","","","",""
"","","","","","audio-keyboard-response","61","11057561","0.0-14.6-1.6","9","1","2023-10-16 15:42:05","e9d48ac1168f4a655ba3cac2ff085c86","181.169.73.153","Mozilla/5.0 (Macintosh; Intel Mac OS X 10_15_7) AppleWebKit/537.36 (KHTML, like Gecko) Chrome/115.0.0.0 Safari/537.36","Macintosh","Chrome","115.0.0.0","OS X","10_15_7","null","es-ES,es;q=0.9","true","null","tones/440hz_short.mp3","null","","","tone_number_task","150","42","tones/440hz_short.mp3","300","100","null","null"
"","","","","","html-keyboard-response","62","11059256","0.0-14.6-4.6-0.6","9","1","2023-10-16 15:42:05","e9d48ac1168f4a655ba3cac2ff085c86","181.169.73.153","Mozilla/5.0 (Macintosh; Intel Mac OS X 10_15_7) AppleWebKit/537.36 (KHTML, like Gecko) Chrome/115.0.0.0 Safari/537.36","Macintosh","Chrome","115.0.0.0","OS X","10_15_7","null","es-ES,es;q=0.9","true","1692","tones/440hz_short.mp3","a","","","empty_block","","42","","","","null","null"
"","","","","","html-keyboard-response","63","11059808","0.0-14.6-4.6-1.6","9","1","2023-10-16 15:42:05","e9d48ac1168f4a655ba3cac2ff085c86","181.169.73.153","Mozilla/5.0 (Macintosh; Intel Mac OS X 10_15_7) AppleWebKit/537.36 (KHTML, like Gecko) Chrome/115.0.0.0 Safari/537.36","Macintosh","Chrome","115.0.0.0","OS X","10_15_7","null","es-ES,es;q=0.9","true","550","tones/440hz_short.mp3","k","","","empty_block","","42","","","","null","null"
"","","","","","html-button-response","64","11063656","0.0-14.6-6.6-0.6","9","1","2023-10-16 15:42:05","e9d48ac1168f4a655ba3cac2ff085c86","181.169.73.153","Mozilla/5.0 (Macintosh; Intel Mac OS X 10_15_7) AppleWebKit/537.36 (KHTML, like Gecko) Chrome/115.0.0.0 Safari/537.36","Macintosh","Chrome","115.0.0.0","OS X","10_15_7","null","es-ES,es;q=0.9","true","3846","
  '<p style=""font-size:24px; color:red;"">Incorrecto</p><p> Respondiste alguno de los estímulos de manera incorrecta.</p><p>Por favor, repasá las instrucciones y seguimos desde donde nos quedamos. </p>
  ","0","","","","","","","","","",""
"","","","","","external-html","65","11078937","0.0-14.6-6.6-1.6","9","1","2023-10-16 15:42:05","e9d48ac1168f4a655ba3cac2ff085c86","181.169.73.153","Mozilla/5.0 (Macintosh; Intel Mac OS X 10_15_7) AppleWebKit/537.36 (KHTML, like Gecko) Chrome/115.0.0.0 Safari/537.36","Macintosh","Chrome","115.0.0.0","OS X","10_15_7","null","es-ES,es;q=0.9","true","14839","","","","instructions_B.html","","","","","","","",""
"","","","","","html-keyboard-response","66","11081906","0.0-14.7-0.7","9","1","2023-10-16 15:42:05","e9d48ac1168f4a655ba3cac2ff085c86","181.169.73.153","Mozilla/5.0 (Macintosh; Intel Mac OS X 10_15_7) AppleWebKit/537.36 (KHTML, like Gecko) Chrome/115.0.0.0 Safari/537.36","Macintosh","Chrome","115.0.0.0","OS X","10_15_7","null","es-ES,es;q=0.9","true","null","<div style=""font-size:100px;"">X</div>","null","","","fixation","","","","","","",""
"","","","","","audio-keyboard-response","67","11082217","0.0-14.7-1.7","9","1","2023-10-16 15:42:05","e9d48ac1168f4a655ba3cac2ff085c86","181.169.73.153","Mozilla/5.0 (Macintosh; Intel Mac OS X 10_15_7) AppleWebKit/537.36 (KHTML, like Gecko) Chrome/115.0.0.0 Safari/537.36","Macintosh","Chrome","115.0.0.0","OS X","10_15_7","null","es-ES,es;q=0.9","true","null","tones/440hz_short.mp3","null","","","tone_number_task","150","42","tones/440hz_short.mp3","300","100","null","null"
"","","","","","html-keyboard-response","68","11083104","0.0-14.7-4.7-0.7","9","1","2023-10-16 15:42:05","e9d48ac1168f4a655ba3cac2ff085c86","181.169.73.153","Mozilla/5.0 (Macintosh; Intel Mac OS X 10_15_7) AppleWebKit/537.36 (KHTML, like Gecko) Chrome/115.0.0.0 Safari/537.36","Macintosh","Chrome","115.0.0.0","OS X","10_15_7","null","es-ES,es;q=0.9","true","885","tones/440hz_short.mp3","k","","","empty_block","","42","","","","null","null"
"","","","","","html-keyboard-response","69","11083352","0.0-14.7-4.7-1.7","9","1","2023-10-16 15:42:05","e9d48ac1168f4a655ba3cac2ff085c86","181.169.73.153","Mozilla/5.0 (Macintosh; Intel Mac OS X 10_15_7) AppleWebKit/537.36 (KHTML, like Gecko) Chrome/115.0.0.0 Safari/537.36","Macintosh","Chrome","115.0.0.0","OS X","10_15_7","null","es-ES,es;q=0.9","true","245","tones/440hz_short.mp3","a","","","empty_block","","42","","","","null","null"
"","","","","","html-button-response","70","11272802","0.0-14.7-6.7-0.7","9","1","2023-10-16 15:42:05","e9d48ac1168f4a655ba3cac2ff085c86","181.169.73.153","Mozilla/5.0 (Macintosh; Intel Mac OS X 10_15_7) AppleWebKit/537.36 (KHTML, like Gecko) Chrome/115.0.0.0 Safari/537.36","Macintosh","Chrome","115.0.0.0","OS X","10_15_7","null","es-ES,es;q=0.9","true","189445","
  '<p style=""font-size:24px; color:red;"">Incorrecto</p><p> Respondiste alguno de los estímulos de manera incorrecta.</p><p>Por favor, repasá las instrucciones y seguimos desde donde nos quedamos. </p>
  ","0","","","","","","","","","",""
"","","","","","external-html","71","11287034","0.0-14.7-6.7-1.7","9","1","2023-10-16 15:42:05","e9d48ac1168f4a655ba3cac2ff085c86","181.169.73.153","Mozilla/5.0 (Macintosh; Intel Mac OS X 10_15_7) AppleWebKit/537.36 (KHTML, like Gecko) Chrome/115.0.0.0 Safari/537.36","Macintosh","Chrome","115.0.0.0","OS X","10_15_7","null","es-ES,es;q=0.9","true","13947","","","","instructions_B.html","","","","","","","",""
"","","","","","html-keyboard-response","72","11290003","0.0-14.8-0.8","9","1","2023-10-16 15:42:05","e9d48ac1168f4a655ba3cac2ff085c86","181.169.73.153","Mozilla/5.0 (Macintosh; Intel Mac OS X 10_15_7) AppleWebKit/537.36 (KHTML, like Gecko) Chrome/115.0.0.0 Safari/537.36","Macintosh","Chrome","115.0.0.0","OS X","10_15_7","null","es-ES,es;q=0.9","true","null","<div style=""font-size:100px;"">X</div>","null","","","fixation","","","","","","",""
"","","","","","audio-keyboard-response","73","11290306","0.0-14.8-1.8","9","1","2023-10-16 15:42:05","e9d48ac1168f4a655ba3cac2ff085c86","181.169.73.153","Mozilla/5.0 (Macintosh; Intel Mac OS X 10_15_7) AppleWebKit/537.36 (KHTML, like Gecko) Chrome/115.0.0.0 Safari/537.36","Macintosh","Chrome","115.0.0.0","OS X","10_15_7","null","es-ES,es;q=0.9","true","null","tones/440hz_short.mp3","null","","","tone_number_task","150","42","tones/440hz_short.mp3","300","100","null","null"
"","","","","","html-keyboard-response","74","11290794","0.0-14.8-4.8-0.8","9","1","2023-10-16 15:42:05","e9d48ac1168f4a655ba3cac2ff085c86","181.169.73.153","Mozilla/5.0 (Macintosh; Intel Mac OS X 10_15_7) AppleWebKit/537.36 (KHTML, like Gecko) Chrome/115.0.0.0 Safari/537.36","Macintosh","Chrome","115.0.0.0","OS X","10_15_7","null","es-ES,es;q=0.9","true","485","tones/440hz_short.mp3","s","","","empty_block","","42","","","","null","null"
"","","","","","html-keyboard-response","75","11291290","0.0-14.8-4.8-1.8","9","1","2023-10-16 15:42:05","e9d48ac1168f4a655ba3cac2ff085c86","181.169.73.153","Mozilla/5.0 (Macintosh; Intel Mac OS X 10_15_7) AppleWebKit/537.36 (KHTML, like Gecko) Chrome/115.0.0.0 Safari/537.36","Macintosh","Chrome","115.0.0.0","OS X","10_15_7","null","es-ES,es;q=0.9","true","493","tones/440hz_short.mp3","k","","","empty_block","","42","","","","null","null"
"","","","","","html-button-response","76","11295234","0.0-14.8-6.8-0.8","9","1","2023-10-16 15:42:05","e9d48ac1168f4a655ba3cac2ff085c86","181.169.73.153","Mozilla/5.0 (Macintosh; Intel Mac OS X 10_15_7) AppleWebKit/537.36 (KHTML, like Gecko) Chrome/115.0.0.0 Safari/537.36","Macintosh","Chrome","115.0.0.0","OS X","10_15_7","null","es-ES,es;q=0.9","true","3941","
  '<p style=""font-size:24px; color:red;"">Incorrecto</p><p> Respondiste alguno de los estímulos de manera incorrecta.</p><p>Por favor, repasá las instrucciones y seguimos desde donde nos quedamos. </p>
  ","0","","","","","","","","","",""
"","","","","","external-html","77","11301883","0.0-14.8-6.8-1.8","9","1","2023-10-16 15:42:05","e9d48ac1168f4a655ba3cac2ff085c86","181.169.73.153","Mozilla/5.0 (Macintosh; Intel Mac OS X 10_15_7) AppleWebKit/537.36 (KHTML, like Gecko) Chrome/115.0.0.0 Safari/537.36","Macintosh","Chrome","115.0.0.0","OS X","10_15_7","null","es-ES,es;q=0.9","true","6366","","","","instructions_B.html","","","","","","","",""
"","","","","","html-keyboard-response","78","11304859","0.0-14.9-0.9","9","1","2023-10-16 15:42:05","e9d48ac1168f4a655ba3cac2ff085c86","181.169.73.153","Mozilla/5.0 (Macintosh; Intel Mac OS X 10_15_7) AppleWebKit/537.36 (KHTML, like Gecko) Chrome/115.0.0.0 Safari/537.36","Macintosh","Chrome","115.0.0.0","OS X","10_15_7","null","es-ES,es;q=0.9","true","null","<div style=""font-size:100px;"">X</div>","null","","","fixation","","","","","","",""
"","","","","","audio-keyboard-response","79","11305163","0.0-14.9-1.9","9","1","2023-10-16 15:42:05","e9d48ac1168f4a655ba3cac2ff085c86","181.169.73.153","Mozilla/5.0 (Macintosh; Intel Mac OS X 10_15_7) AppleWebKit/537.36 (KHTML, like Gecko) Chrome/115.0.0.0 Safari/537.36","Macintosh","Chrome","115.0.0.0","OS X","10_15_7","null","es-ES,es;q=0.9","true","null","tones/440hz_short.mp3","null","","","tone_number_task","150","42","tones/440hz_short.mp3","300","100","null","null"
"","","","","","html-keyboard-response","80","11305498","0.0-14.9-4.9-0.9","9","1","2023-10-16 15:42:05","e9d48ac1168f4a655ba3cac2ff085c86","181.169.73.153","Mozilla/5.0 (Macintosh; Intel Mac OS X 10_15_7) AppleWebKit/537.36 (KHTML, like Gecko) Chrome/115.0.0.0 Safari/537.36","Macintosh","Chrome","115.0.0.0","OS X","10_15_7","null","es-ES,es;q=0.9","true","332","tones/440hz_short.mp3","a","","","empty_block","","42","","","","null","null"
"","","","","","html-keyboard-response","81","11306026","0.0-14.9-4.9-1.9","9","1","2023-10-16 15:42:05","e9d48ac1168f4a655ba3cac2ff085c86","181.169.73.153","Mozilla/5.0 (Macintosh; Intel Mac OS X 10_15_7) AppleWebKit/537.36 (KHTML, like Gecko) Chrome/115.0.0.0 Safari/537.36","Macintosh","Chrome","115.0.0.0","OS X","10_15_7","null","es-ES,es;q=0.9","true","525","tones/440hz_short.mp3","k","","","empty_block","","42","","","","null","null"
"","","","","","html-button-response","82","11310770","0.0-14.9-6.9-0.9","9","1","2023-10-16 15:42:05","e9d48ac1168f4a655ba3cac2ff085c86","181.169.73.153","Mozilla/5.0 (Macintosh; Intel Mac OS X 10_15_7) AppleWebKit/537.36 (KHTML, like Gecko) Chrome/115.0.0.0 Safari/537.36","Macintosh","Chrome","115.0.0.0","OS X","10_15_7","null","es-ES,es;q=0.9","true","4741","
  '<p style=""font-size:24px; color:red;"">Incorrecto</p><p> Respondiste alguno de los estímulos de manera incorrecta.</p><p>Por favor, repasá las instrucciones y seguimos desde donde nos quedamos. </p>
  ","0","","","","","","","","","",""
"","","","","","external-html","83","11314563","0.0-14.9-6.9-1.9","9","1","2023-10-16 15:42:05","e9d48ac1168f4a655ba3cac2ff085c86","181.169.73.153","Mozilla/5.0 (Macintosh; Intel Mac OS X 10_15_7) AppleWebKit/537.36 (KHTML, like Gecko) Chrome/115.0.0.0 Safari/537.36","Macintosh","Chrome","115.0.0.0","OS X","10_15_7","null","es-ES,es;q=0.9","true","3363","","","","instructions_B.html","","","","","","","",""
"","","","","","html-keyboard-response","84","11317540","0.0-14.10-0.10","9","1","2023-10-16 15:42:05","e9d48ac1168f4a655ba3cac2ff085c86","181.169.73.153","Mozilla/5.0 (Macintosh; Intel Mac OS X 10_15_7) AppleWebKit/537.36 (KHTML, like Gecko) Chrome/115.0.0.0 Safari/537.36","Macintosh","Chrome","115.0.0.0","OS X","10_15_7","null","es-ES,es;q=0.9","true","null","<div style=""font-size:100px;"">X</div>","null","","","fixation","","","","","","",""
"","","","","","audio-keyboard-response","85","11317851","0.0-14.10-1.10","9","1","2023-10-16 15:42:05","e9d48ac1168f4a655ba3cac2ff085c86","181.169.73.153","Mozilla/5.0 (Macintosh; Intel Mac OS X 10_15_7) AppleWebKit/537.36 (KHTML, like Gecko) Chrome/115.0.0.0 Safari/537.36","Macintosh","Chrome","115.0.0.0","OS X","10_15_7","null","es-ES,es;q=0.9","true","null","tones/440hz_short.mp3","null","","","tone_number_task","150","42","tones/440hz_short.mp3","300","100","null","null"
"","","","","","html-keyboard-response","86","11318346","0.0-14.10-4.10-0.10","9","1","2023-10-16 15:42:05","e9d48ac1168f4a655ba3cac2ff085c86","181.169.73.153","Mozilla/5.0 (Macintosh; Intel Mac OS X 10_15_7) AppleWebKit/537.36 (KHTML, like Gecko) Chrome/115.0.0.0 Safari/537.36","Macintosh","Chrome","115.0.0.0","OS X","10_15_7","null","es-ES,es;q=0.9","true","492","tones/440hz_short.mp3","a","","","empty_block","","42","","","","null","null"
"","","","","","html-keyboard-response","87","11318874","0.0-14.10-4.10-1.10","9","1","2023-10-16 15:42:05","e9d48ac1168f4a655ba3cac2ff085c86","181.169.73.153","Mozilla/5.0 (Macintosh; Intel Mac OS X 10_15_7) AppleWebKit/537.36 (KHTML, like Gecko) Chrome/115.0.0.0 Safari/537.36","Macintosh","Chrome","115.0.0.0","OS X","10_15_7","null","es-ES,es;q=0.9","true","525","tones/440hz_short.mp3","j","","","empty_block","","42","","","","null","null"
"","","","","","html-keyboard-response","88","11321843","0.0-16.0-0.0","9","1","2023-10-16 15:42:05","e9d48ac1168f4a655ba3cac2ff085c86","181.169.73.153","Mozilla/5.0 (Macintosh; Intel Mac OS X 10_15_7) AppleWebKit/537.36 (KHTML, like Gecko) Chrome/115.0.0.0 Safari/537.36","Macintosh","Chrome","115.0.0.0","OS X","10_15_7","null","es-ES,es;q=0.9","true","null","<div style=""font-size:100px;"">X</div>","null","","","fixation","","","","","","",""
"","","","","","audio-keyboard-response","89","11322052","0.0-16.0-1.0","9","1","2023-10-16 15:42:05","e9d48ac1168f4a655ba3cac2ff085c86","181.169.73.153","Mozilla/5.0 (Macintosh; Intel Mac OS X 10_15_7) AppleWebKit/537.36 (KHTML, like Gecko) Chrome/115.0.0.0 Safari/537.36","Macintosh","Chrome","115.0.0.0","OS X","10_15_7","null","es-ES,es;q=0.9","true","null","tones/880hz_short.mp3","null","","","tone_number_task","50","66","tones/880hz_short.mp3","200","100","null","null"
"","","","","","html-keyboard-response","90","11322682","0.0-16.0-4.0-0.0","9","1","2023-10-16 15:42:05","e9d48ac1168f4a655ba3cac2ff085c86","181.169.73.153","Mozilla/5.0 (Macintosh; Intel Mac OS X 10_15_7) AppleWebKit/537.36 (KHTML, like Gecko) Chrome/115.0.0.0 Safari/537.36","Macintosh","Chrome","115.0.0.0","OS X","10_15_7","null","es-ES,es;q=0.9","true","628","tones/880hz_short.mp3","k","","","empty_block","","66","","","","null","null"
"","","","","","html-keyboard-response","91","11323594","0.0-16.0-4.0-1.0","9","1","2023-10-16 15:42:05","e9d48ac1168f4a655ba3cac2ff085c86","181.169.73.153","Mozilla/5.0 (Macintosh; Intel Mac OS X 10_15_7) AppleWebKit/537.36 (KHTML, like Gecko) Chrome/115.0.0.0 Safari/537.36","Macintosh","Chrome","115.0.0.0","OS X","10_15_7","null","es-ES,es;q=0.9","true","909","tones/880hz_short.mp3","s","","","empty_block","","66","","","","null","null"
"","","","","","html-button-response","92","11327970","0.0-18.0","9","1","2023-10-16 15:42:05","e9d48ac1168f4a655ba3cac2ff085c86","181.169.73.153","Mozilla/5.0 (Macintosh; Intel Mac OS X 10_15_7) AppleWebKit/537.36 (KHTML, like Gecko) Chrome/115.0.0.0 Safari/537.36","Macintosh","Chrome","115.0.0.0","OS X","10_15_7","null","es-ES,es;q=0.9","true","4373","
  <h1> Muy bien </h1>
  <p> Ahora, en vez de ser presentados en dígitos, los números vendrán escritos en palabras. </p>
  <p> Por ejemplo, en vez de 44 te aparecerá ""cuarenta y cuatro"". </p>
  ","0","","","","","","","","","",""
"","","","","","html-keyboard-response","93","11330940","0.0-19.0-0.0","9","1","2023-10-16 15:42:05","e9d48ac1168f4a655ba3cac2ff085c86","181.169.73.153","Mozilla/5.0 (Macintosh; Intel Mac OS X 10_15_7) AppleWebKit/537.36 (KHTML, like Gecko) Chrome/115.0.0.0 Safari/537.36","Macintosh","Chrome","115.0.0.0","OS X","10_15_7","null","es-ES,es;q=0.9","true","null","<div style=""font-size:100px;"">X</div>","null","","","fixation","","","","","","",""
"","","","","","audio-keyboard-response","94","11332002","0.0-19.0-1.0","9","1","2023-10-16 15:42:05","e9d48ac1168f4a655ba3cac2ff085c86","181.169.73.153","Mozilla/5.0 (Macintosh; Intel Mac OS X 10_15_7) AppleWebKit/537.36 (KHTML, like Gecko) Chrome/115.0.0.0 Safari/537.36","Macintosh","Chrome","115.0.0.0","OS X","10_15_7","null","es-ES,es;q=0.9","true","1057","tones/880hz_short.mp3","s","","","tone_number_task","1000","veintinueve","tones/880hz_short.mp3","1150","60","null","null"
"","","","","","html-keyboard-response","95","11332107","0.0-19.0-3.0-0.0","9","1","2023-10-16 15:42:05","e9d48ac1168f4a655ba3cac2ff085c86","181.169.73.153","Mozilla/5.0 (Macintosh; Intel Mac OS X 10_15_7) AppleWebKit/537.36 (KHTML, like Gecko) Chrome/115.0.0.0 Safari/537.36","Macintosh","Chrome","115.0.0.0","OS X","10_15_7","null","es-ES,es;q=0.9","true","null","<p id=""stimulus"" style=""font-size:60px;"">veintinueve</p>","null","","","tone_number_task_remaining_after_delay","","veintinueve","","","60","null","null"
"","","","","","html-keyboard-response","96","11332290","0.0-19.0-5.0-0.0","9","1","2023-10-16 15:42:05","e9d48ac1168f4a655ba3cac2ff085c86","181.169.73.153","Mozilla/5.0 (Macintosh; Intel Mac OS X 10_15_7) AppleWebKit/537.36 (KHTML, like Gecko) Chrome/115.0.0.0 Safari/537.36","Macintosh","Chrome","115.0.0.0","OS X","10_15_7","null","es-ES,es;q=0.9","true","179","<p id=""stimulus"" style=""font-size:60px;"">veintinueve</p>","k","","","empty_block","","veintinueve","","","","null","null"
"","","","","","html-button-response","97","11336426","0.0-19.0-6.0-0.0","9","1","2023-10-16 15:42:05","e9d48ac1168f4a655ba3cac2ff085c86","181.169.73.153","Mozilla/5.0 (Macintosh; Intel Mac OS X 10_15_7) AppleWebKit/537.36 (KHTML, like Gecko) Chrome/115.0.0.0 Safari/537.36","Macintosh","Chrome","115.0.0.0","OS X","10_15_7","null","es-ES,es;q=0.9","true","4133","
  '<p style=""font-size:24px; color:red;"">Incorrecto</p><p> Respondiste alguno de los estímulos de manera incorrecta.</p><p>Por favor, repasá las instrucciones y seguimos desde donde nos quedamos. </p>
  ","0","","","","","","","","","",""
"","","","","","external-html","98","11344339","0.0-19.0-6.0-1.0","9","1","2023-10-16 15:42:05","e9d48ac1168f4a655ba3cac2ff085c86","181.169.73.153","Mozilla/5.0 (Macintosh; Intel Mac OS X 10_15_7) AppleWebKit/537.36 (KHTML, like Gecko) Chrome/115.0.0.0 Safari/537.36","Macintosh","Chrome","115.0.0.0","OS X","10_15_7","null","es-ES,es;q=0.9","true","7645","","","","instructions_B.html","","","","","","","",""
"","","","","","html-keyboard-response","99","11347316","0.0-19.1-0.1","9","1","2023-10-16 15:42:05","e9d48ac1168f4a655ba3cac2ff085c86","181.169.73.153","Mozilla/5.0 (Macintosh; Intel Mac OS X 10_15_7) AppleWebKit/537.36 (KHTML, like Gecko) Chrome/115.0.0.0 Safari/537.36","Macintosh","Chrome","115.0.0.0","OS X","10_15_7","null","es-ES,es;q=0.9","true","null","<div style=""font-size:100px;"">X</div>","null","","","fixation","","","","","","",""
"","","","","","audio-keyboard-response","100","11348475","0.0-19.1-1.1","9","1","2023-10-16 15:42:05","e9d48ac1168f4a655ba3cac2ff085c86","181.169.73.153","Mozilla/5.0 (Macintosh; Intel Mac OS X 10_15_7) AppleWebKit/537.36 (KHTML, like Gecko) Chrome/115.0.0.0 Safari/537.36","Macintosh","Chrome","115.0.0.0","OS X","10_15_7","null","es-ES,es;q=0.9","true","null","tones/880hz_short.mp3","null","","","tone_number_task","1000","veintinueve","tones/880hz_short.mp3","1150","60","null","null"
"","","","","","html-keyboard-response","101","11348651","0.0-19.1-4.1-0.1","9","1","2023-10-16 15:42:05","e9d48ac1168f4a655ba3cac2ff085c86","181.169.73.153","Mozilla/5.0 (Macintosh; Intel Mac OS X 10_15_7) AppleWebKit/537.36 (KHTML, like Gecko) Chrome/115.0.0.0 Safari/537.36","Macintosh","Chrome","115.0.0.0","OS X","10_15_7","null","es-ES,es;q=0.9","true","172","tones/880hz_short.mp3","a","","","empty_block","","veintinueve","","","","null","null"
"","","","","","html-keyboard-response","102","11348978","0.0-19.1-4.1-1.1","9","1","2023-10-16 15:42:05","e9d48ac1168f4a655ba3cac2ff085c86","181.169.73.153","Mozilla/5.0 (Macintosh; Intel Mac OS X 10_15_7) AppleWebKit/537.36 (KHTML, like Gecko) Chrome/115.0.0.0 Safari/537.36","Macintosh","Chrome","115.0.0.0","OS X","10_15_7","null","es-ES,es;q=0.9","true","324","tones/880hz_short.mp3","k","","","empty_block","","veintinueve","","","","null","null"
"","","","","","html-button-response","103","11352763","0.0-19.1-6.1-0.1","9","1","2023-10-16 15:42:05","e9d48ac1168f4a655ba3cac2ff085c86","181.169.73.153","Mozilla/5.0 (Macintosh; Intel Mac OS X 10_15_7) AppleWebKit/537.36 (KHTML, like Gecko) Chrome/115.0.0.0 Safari/537.36","Macintosh","Chrome","115.0.0.0","OS X","10_15_7","null","es-ES,es;q=0.9","true","3780","
  '<p style=""font-size:24px; color:red;"">Incorrecto</p><p> Respondiste alguno de los estímulos de manera incorrecta.</p><p>Por favor, repasá las instrucciones y seguimos desde donde nos quedamos. </p>
  ","0","","","","","","","","","",""
"","","","","","external-html","104","11358947","0.0-19.1-6.1-1.1","9","1","2023-10-16 15:42:05","e9d48ac1168f4a655ba3cac2ff085c86","181.169.73.153","Mozilla/5.0 (Macintosh; Intel Mac OS X 10_15_7) AppleWebKit/537.36 (KHTML, like Gecko) Chrome/115.0.0.0 Safari/537.36","Macintosh","Chrome","115.0.0.0","OS X","10_15_7","null","es-ES,es;q=0.9","true","5769","","","","instructions_B.html","","","","","","","",""
"","","","","","html-keyboard-response","105","11361924","0.0-19.2-0.2","9","1","2023-10-16 15:42:05","e9d48ac1168f4a655ba3cac2ff085c86","181.169.73.153","Mozilla/5.0 (Macintosh; Intel Mac OS X 10_15_7) AppleWebKit/537.36 (KHTML, like Gecko) Chrome/115.0.0.0 Safari/537.36","Macintosh","Chrome","115.0.0.0","OS X","10_15_7","null","es-ES,es;q=0.9","true","null","<div style=""font-size:100px;"">X</div>","null","","","fixation","","","","","","",""
"","","","","","audio-keyboard-response","106","11363084","0.0-19.2-1.2","9","1","2023-10-16 15:42:05","e9d48ac1168f4a655ba3cac2ff085c86","181.169.73.153","Mozilla/5.0 (Macintosh; Intel Mac OS X 10_15_7) AppleWebKit/537.36 (KHTML, like Gecko) Chrome/115.0.0.0 Safari/537.36","Macintosh","Chrome","115.0.0.0","OS X","10_15_7","null","es-ES,es;q=0.9","true","null","tones/880hz_short.mp3","null","","","tone_number_task","1000","veintinueve","tones/880hz_short.mp3","1150","60","null","null"
"","","","","","html-keyboard-response","107","11363187","0.0-19.2-4.2-0.2","9","1","2023-10-16 15:42:05","e9d48ac1168f4a655ba3cac2ff085c86","181.169.73.153","Mozilla/5.0 (Macintosh; Intel Mac OS X 10_15_7) AppleWebKit/537.36 (KHTML, like Gecko) Chrome/115.0.0.0 Safari/537.36","Macintosh","Chrome","115.0.0.0","OS X","10_15_7","null","es-ES,es;q=0.9","true","99","tones/880hz_short.mp3","s","","","empty_block","","veintinueve","","","","null","null"
"","","","","","html-keyboard-response","108","11363947","0.0-19.2-4.2-1.2","9","1","2023-10-16 15:42:05","e9d48ac1168f4a655ba3cac2ff085c86","181.169.73.153","Mozilla/5.0 (Macintosh; Intel Mac OS X 10_15_7) AppleWebKit/537.36 (KHTML, like Gecko) Chrome/115.0.0.0 Safari/537.36","Macintosh","Chrome","115.0.0.0","OS X","10_15_7","null","es-ES,es;q=0.9","true","757","tones/880hz_short.mp3","j","","","empty_block","","veintinueve","","","","null","null"
"","","","","","html-button-response","109","11367571","0.0-21.0","9","1","2023-10-16 15:42:05","e9d48ac1168f4a655ba3cac2ff085c86","181.169.73.153","Mozilla/5.0 (Macintosh; Intel Mac OS X 10_15_7) AppleWebKit/537.36 (KHTML, like Gecko) Chrome/115.0.0.0 Safari/537.36","Macintosh","Chrome","115.0.0.0","OS X","10_15_7","null","es-ES,es;q=0.9","true","3620","
  <h1> Fin del Entrenamiento </h1>
  <p> ¡Felicitaciones, terminaste el entrenamiento! Ahora vamos a comenzar con el experimento. </p>
  <p> Es importante tener en cuenta que consta de cuatro bloques.</p>
  <p> Podés aprovechar los momentos entre bloques para tomar un breve descanso o tomar agua entre cada uno</p>
  <p> Recordá que tenés que responder lo más rápido que puedas, pero sin equivocarte. </p>
  ","0","","","","","","","","","",""
"","","","","","external-html","110","11375083","0.0-22.0","9","1","2023-10-16 15:42:05","e9d48ac1168f4a655ba3cac2ff085c86","181.169.73.153","Mozilla/5.0 (Macintosh; Intel Mac OS X 10_15_7) AppleWebKit/537.36 (KHTML, like Gecko) Chrome/115.0.0.0 Safari/537.36","Macintosh","Chrome","115.0.0.0","OS X","10_15_7","null","es-ES,es;q=0.9","true","6560","","","","instructions_digits_first.html","","","","","","","",""
"","","","","","html-keyboard-response","111","11378060","0.0-23.0","9","1","2023-10-16 15:42:05","e9d48ac1168f4a655ba3cac2ff085c86","181.169.73.153","Mozilla/5.0 (Macintosh; Intel Mac OS X 10_15_7) AppleWebKit/537.36 (KHTML, like Gecko) Chrome/115.0.0.0 Safari/537.36","Macintosh","Chrome","115.0.0.0","OS X","10_15_7","null","es-ES,es;q=0.9","true","null","<div style=""font-size:100px;"">X</div>","null","","","fixation","","","","","","",""
"","","","","","audio-keyboard-response","112","11378836","0.0-24.0","9","1","2023-10-16 15:42:05","e9d48ac1168f4a655ba3cac2ff085c86","181.169.73.153","Mozilla/5.0 (Macintosh; Intel Mac OS X 10_15_7) AppleWebKit/537.36 (KHTML, like Gecko) Chrome/115.0.0.0 Safari/537.36","Macintosh","Chrome","115.0.0.0","OS X","10_15_7","null","es-ES,es;q=0.9","true","null","tones/880hz_short.mp3","null","","","tone_number_task","620","28","tones/880hz_short.mp3","770","100","0","0"
"","","","","","html-keyboard-response","113","11379387","0.0-27.0-0.0","9","1","2023-10-16 15:42:05","e9d48ac1168f4a655ba3cac2ff085c86","181.169.73.153","Mozilla/5.0 (Macintosh; Intel Mac OS X 10_15_7) AppleWebKit/537.36 (KHTML, like Gecko) Chrome/115.0.0.0 Safari/537.36","Macintosh","Chrome","115.0.0.0","OS X","10_15_7","null","es-ES,es;q=0.9","true","547","tones/880hz_short.mp3","s","","","empty_block","","28","","","","0","0"
"","","","","","html-keyboard-response","114","11379955","0.0-27.0-1.0","9","1","2023-10-16 15:42:05","e9d48ac1168f4a655ba3cac2ff085c86","181.169.73.153","Mozilla/5.0 (Macintosh; Intel Mac OS X 10_15_7) AppleWebKit/537.36 (KHTML, like Gecko) Chrome/115.0.0.0 Safari/537.36","Macintosh","Chrome","115.0.0.0","OS X","10_15_7","null","es-ES,es;q=0.9","true","564","tones/880hz_short.mp3","j","","","empty_block","","28","","","","0","0"
"","","","","","html-keyboard-response","115","11382924","0.0-29.0","9","1","2023-10-16 15:42:05","e9d48ac1168f4a655ba3cac2ff085c86","181.169.73.153","Mozilla/5.0 (Macintosh; Intel Mac OS X 10_15_7) AppleWebKit/537.36 (KHTML, like Gecko) Chrome/115.0.0.0 Safari/537.36","Macintosh","Chrome","115.0.0.0","OS X","10_15_7","null","es-ES,es;q=0.9","true","null","<div style=""font-size:100px;"">X</div>","null","","","fixation","","","","","","",""
"","","","","","audio-keyboard-response","116","11383267","0.0-30.0","9","1","2023-10-16 15:42:05","e9d48ac1168f4a655ba3cac2ff085c86","181.169.73.153","Mozilla/5.0 (Macintosh; Intel Mac OS X 10_15_7) AppleWebKit/537.36 (KHTML, like Gecko) Chrome/115.0.0.0 Safari/537.36","Macintosh","Chrome","115.0.0.0","OS X","10_15_7","null","es-ES,es;q=0.9","true","337","tones/440hz_short.mp3","a","","","tone_number_task","254","38","tones/440hz_short.mp3","404","100","0","1"
"","","","","","html-keyboard-response","117","11383340","0.0-32.0-0.0","9","1","2023-10-16 15:42:05","e9d48ac1168f4a655ba3cac2ff085c86","181.169.73.153","Mozilla/5.0 (Macintosh; Intel Mac OS X 10_15_7) AppleWebKit/537.36 (KHTML, like Gecko) Chrome/115.0.0.0 Safari/537.36","Macintosh","Chrome","115.0.0.0","OS X","10_15_7","null","es-ES,es;q=0.9","true","null","<p id=""stimulus"" style=""font-size:100px;"">38</p>","null","","","tone_number_task_remaining_after_delay","","38","","","100","0","1"
"","","","","","html-keyboard-response","118","11383995","0.0-34.0-0.0","9","1","2023-10-16 15:42:05","e9d48ac1168f4a655ba3cac2ff085c86","181.169.73.153","Mozilla/5.0 (Macintosh; Intel Mac OS X 10_15_7) AppleWebKit/537.36 (KHTML, like Gecko) Chrome/115.0.0.0 Safari/537.36","Macintosh","Chrome","115.0.0.0","OS X","10_15_7","null","es-ES,es;q=0.9","true","651","<p id=""stimulus"" style=""font-size:100px;"">38</p>","j","","","empty_block","","38","","","","0","1"
"","","","","","html-keyboard-response","119","11386964","0.0-35.0","9","1","2023-10-16 15:42:05","e9d48ac1168f4a655ba3cac2ff085c86","181.169.73.153","Mozilla/5.0 (Macintosh; Intel Mac OS X 10_15_7) AppleWebKit/537.36 (KHTML, like Gecko) Chrome/115.0.0.0 Safari/537.36","Macintosh","Chrome","115.0.0.0","OS X","10_15_7","null","es-ES,es;q=0.9","true","null","<div style=""font-size:100px;"">X</div>","null","","","fixation","","","","","","",""
"","","","","","audio-keyboard-response","120","11387780","0.0-36.0","9","1","2023-10-16 15:42:05","e9d48ac1168f4a655ba3cac2ff085c86","181.169.73.153","Mozilla/5.0 (Macintosh; Intel Mac OS X 10_15_7) AppleWebKit/537.36 (KHTML, like Gecko) Chrome/115.0.0.0 Safari/537.36","Macintosh","Chrome","115.0.0.0","OS X","10_15_7","null","es-ES,es;q=0.9","true","null","tones/440hz_short.mp3","null","","","tone_number_task","656","69","tones/440hz_short.mp3","806","100","0","2"
"","","","","","html-keyboard-response","121","11387875","0.0-39.0-0.0","9","1","2023-10-16 15:42:05","e9d48ac1168f4a655ba3cac2ff085c86","181.169.73.153","Mozilla/5.0 (Macintosh; Intel Mac OS X 10_15_7) AppleWebKit/537.36 (KHTML, like Gecko) Chrome/115.0.0.0 Safari/537.36","Macintosh","Chrome","115.0.0.0","OS X","10_15_7","null","es-ES,es;q=0.9","true","91","tones/440hz_short.mp3","a","","","empty_block","","69","","","","0","2"
"","","","","","html-keyboard-response","122","11388395","0.0-39.0-1.0","9","1","2023-10-16 15:42:05","e9d48ac1168f4a655ba3cac2ff085c86","181.169.73.153","Mozilla/5.0 (Macintosh; Intel Mac OS X 10_15_7) AppleWebKit/537.36 (KHTML, like Gecko) Chrome/115.0.0.0 Safari/537.36","Macintosh","Chrome","115.0.0.0","OS X","10_15_7","null","es-ES,es;q=0.9","true","516","tones/440hz_short.mp3","k","","","empty_block","","69","","","","0","2"
"","","","","","html-keyboard-response","123","11391364","0.0-41.0","9","1","2023-10-16 15:42:05","e9d48ac1168f4a655ba3cac2ff085c86","181.169.73.153","Mozilla/5.0 (Macintosh; Intel Mac OS X 10_15_7) AppleWebKit/537.36 (KHTML, like Gecko) Chrome/115.0.0.0 Safari/537.36","Macintosh","Chrome","115.0.0.0","OS X","10_15_7","null","es-ES,es;q=0.9","true","null","<div style=""font-size:100px;"">X</div>","null","","","fixation","","","","","","",""
"","","","","","audio-keyboard-response","124","11391652","0.0-42.0","9","1","2023-10-16 15:42:05","e9d48ac1168f4a655ba3cac2ff085c86","181.169.73.153","Mozilla/5.0 (Macintosh; Intel Mac OS X 10_15_7) AppleWebKit/537.36 (KHTML, like Gecko) Chrome/115.0.0.0 Safari/537.36","Macintosh","Chrome","115.0.0.0","OS X","10_15_7","null","es-ES,es;q=0.9","true","null","tones/880hz_short.mp3","null","","","tone_number_task","131","21","tones/880hz_short.mp3","281","100","0","3"
"","","","","","html-keyboard-response","125","11391987","0.0-45.0-0.0","9","1","2023-10-16 15:42:05","e9d48ac1168f4a655ba3cac2ff085c86","181.169.73.153","Mozilla/5.0 (Macintosh; Intel Mac OS X 10_15_7) AppleWebKit/537.36 (KHTML, like Gecko) Chrome/115.0.0.0 Safari/537.36","Macintosh","Chrome","115.0.0.0","OS X","10_15_7","null","es-ES,es;q=0.9","true","332","tones/880hz_short.mp3","s","","","empty_block","","21","","","","0","3"
"","","","","","html-keyboard-response","126","11392395","0.0-45.0-1.0","9","1","2023-10-16 15:42:05","e9d48ac1168f4a655ba3cac2ff085c86","181.169.73.153","Mozilla/5.0 (Macintosh; Intel Mac OS X 10_15_7) AppleWebKit/537.36 (KHTML, like Gecko) Chrome/115.0.0.0 Safari/537.36","Macintosh","Chrome","115.0.0.0","OS X","10_15_7","null","es-ES,es;q=0.9","true","404","tones/880hz_short.mp3","j","","","empty_block","","21","","","","0","3"
"","","","","","html-keyboard-response","127","11395363","0.0-47.0","9","1","2023-10-16 15:42:05","e9d48ac1168f4a655ba3cac2ff085c86","181.169.73.153","Mozilla/5.0 (Macintosh; Intel Mac OS X 10_15_7) AppleWebKit/537.36 (KHTML, like Gecko) Chrome/115.0.0.0 Safari/537.36","Macintosh","Chrome","115.0.0.0","OS X","10_15_7","null","es-ES,es;q=0.9","true","null","<div style=""font-size:100px;"">X</div>","null","","","fixation","","","","","","",""
"","","","","","audio-keyboard-response","128","11395859","0.0-48.0","9","1","2023-10-16 15:42:05","e9d48ac1168f4a655ba3cac2ff085c86","181.169.73.153","Mozilla/5.0 (Macintosh; Intel Mac OS X 10_15_7) AppleWebKit/537.36 (KHTML, like Gecko) Chrome/115.0.0.0 Safari/537.36","Macintosh","Chrome","115.0.0.0","OS X","10_15_7","null","es-ES,es;q=0.9","true","null","tones/440hz_short.mp3","null","","","tone_number_task","336","51","tones/440hz_short.mp3","486","100","0","4"
"","","","","","html-keyboard-response","129","11396051","0.0-51.0-0.0","9","1","2023-10-16 15:42:05","e9d48ac1168f4a655ba3cac2ff085c86","181.169.73.153","Mozilla/5.0 (Macintosh; Intel Mac OS X 10_15_7) AppleWebKit/537.36 (KHTML, like Gecko) Chrome/115.0.0.0 Safari/537.36","Macintosh","Chrome","115.0.0.0","OS X","10_15_7","null","es-ES,es;q=0.9","true","188","tones/440hz_short.mp3","a","","","empty_block","","51","","","","0","4"
"","","","","","html-keyboard-response","130","11396395","0.0-51.0-1.0","9","1","2023-10-16 15:42:05","e9d48ac1168f4a655ba3cac2ff085c86","181.169.73.153","Mozilla/5.0 (Macintosh; Intel Mac OS X 10_15_7) AppleWebKit/537.36 (KHTML, like Gecko) Chrome/115.0.0.0 Safari/537.36","Macintosh","Chrome","115.0.0.0","OS X","10_15_7","null","es-ES,es;q=0.9","true","339","tones/440hz_short.mp3","k","","","empty_block","","51","","","","0","4"
"","","","","","html-keyboard-response","131","11399364","0.0-53.0","9","1","2023-10-16 15:42:05","e9d48ac1168f4a655ba3cac2ff085c86","181.169.73.153","Mozilla/5.0 (Macintosh; Intel Mac OS X 10_15_7) AppleWebKit/537.36 (KHTML, like Gecko) Chrome/115.0.0.0 Safari/537.36","Macintosh","Chrome","115.0.0.0","OS X","10_15_7","null","es-ES,es;q=0.9","true","null","<div style=""font-size:100px;"">X</div>","null","","","fixation","","","","","","",""
"","","","","","audio-keyboard-response","132","11399652","0.0-54.0","9","1","2023-10-16 15:42:05","e9d48ac1168f4a655ba3cac2ff085c86","181.169.73.153","Mozilla/5.0 (Macintosh; Intel Mac OS X 10_15_7) AppleWebKit/537.36 (KHTML, like Gecko) Chrome/115.0.0.0 Safari/537.36","Macintosh","Chrome","115.0.0.0","OS X","10_15_7","null","es-ES,es;q=0.9","true","null","tones/440hz_short.mp3","null","","","tone_number_task","129","50","tones/440hz_short.mp3","279","100","0","5"
"","","","","","html-keyboard-response","133","11400075","0.0-57.0-0.0","9","1","2023-10-16 15:42:05","e9d48ac1168f4a655ba3cac2ff085c86","181.169.73.153","Mozilla/5.0 (Macintosh; Intel Mac OS X 10_15_7) AppleWebKit/537.36 (KHTML, like Gecko) Chrome/115.0.0.0 Safari/537.36","Macintosh","Chrome","115.0.0.0","OS X","10_15_7","null","es-ES,es;q=0.9","true","418","tones/440hz_short.mp3","s","","","empty_block","","50","","","","0","5"
"","","","","","html-keyboard-response","134","11400595","0.0-57.0-1.0","9","1","2023-10-16 15:42:05","e9d48ac1168f4a655ba3cac2ff085c86","181.169.73.153","Mozilla/5.0 (Macintosh; Intel Mac OS X 10_15_7) AppleWebKit/537.36 (KHTML, like Gecko) Chrome/115.0.0.0 Safari/537.36","Macintosh","Chrome","115.0.0.0","OS X","10_15_7","null","es-ES,es;q=0.9","true","515","tones/440hz_short.mp3","k","","","empty_block","","50","","","","0","5"
"","","","","","html-keyboard-response","135","11403564","0.0-59.0","9","1","2023-10-16 15:42:05","e9d48ac1168f4a655ba3cac2ff085c86","181.169.73.153","Mozilla/5.0 (Macintosh; Intel Mac OS X 10_15_7) AppleWebKit/537.36 (KHTML, like Gecko) Chrome/115.0.0.0 Safari/537.36","Macintosh","Chrome","115.0.0.0","OS X","10_15_7","null","es-ES,es;q=0.9","true","null","<div style=""font-size:100px;"">X</div>","null","","","fixation","","","","","","",""
"","","","","","audio-keyboard-response","136","11403732","0.0-60.0","9","1","2023-10-16 15:42:05","e9d48ac1168f4a655ba3cac2ff085c86","181.169.73.153","Mozilla/5.0 (Macintosh; Intel Mac OS X 10_15_7) AppleWebKit/537.36 (KHTML, like Gecko) Chrome/115.0.0.0 Safari/537.36","Macintosh","Chrome","115.0.0.0","OS X","10_15_7","null","es-ES,es;q=0.9","true","null","tones/880hz_short.mp3","null","","","tone_number_task","8","23","tones/880hz_short.mp3","158","100","0","6"
"","","","","","html-keyboard-response","137","11404251","0.0-63.0-0.0","9","1","2023-10-16 15:42:05","e9d48ac1168f4a655ba3cac2ff085c86","181.169.73.153","Mozilla/5.0 (Macintosh; Intel Mac OS X 10_15_7) AppleWebKit/537.36 (KHTML, like Gecko) Chrome/115.0.0.0 Safari/537.36","Macintosh","Chrome","115.0.0.0","OS X","10_15_7","null","es-ES,es;q=0.9","true","515","tones/880hz_short.mp3","s","","","empty_block","","23","","","","0","6"
"","","","","","html-keyboard-response","138","11404723","0.0-63.0-1.0","9","1","2023-10-16 15:42:05","e9d48ac1168f4a655ba3cac2ff085c86","181.169.73.153","Mozilla/5.0 (Macintosh; Intel Mac OS X 10_15_7) AppleWebKit/537.36 (KHTML, like Gecko) Chrome/115.0.0.0 Safari/537.36","Macintosh","Chrome","115.0.0.0","OS X","10_15_7","null","es-ES,es;q=0.9","true","468","tones/880hz_short.mp3","j","","","empty_block","","23","","","","0","6"
"","","","","","html-keyboard-response","139","11407693","0.0-65.0","9","1","2023-10-16 15:42:05","e9d48ac1168f4a655ba3cac2ff085c86","181.169.73.153","Mozilla/5.0 (Macintosh; Intel Mac OS X 10_15_7) AppleWebKit/537.36 (KHTML, like Gecko) Chrome/115.0.0.0 Safari/537.36","Macintosh","Chrome","115.0.0.0","OS X","10_15_7","null","es-ES,es;q=0.9","true","null","<div style=""font-size:100px;"">X</div>","null","","","fixation","","","","","","",""
"","","","","","audio-keyboard-response","140","11408412","0.0-66.0","9","1","2023-10-16 15:42:05","e9d48ac1168f4a655ba3cac2ff085c86","181.169.73.153","Mozilla/5.0 (Macintosh; Intel Mac OS X 10_15_7) AppleWebKit/537.36 (KHTML, like Gecko) Chrome/115.0.0.0 Safari/537.36","Macintosh","Chrome","115.0.0.0","OS X","10_15_7","null","es-ES,es;q=0.9","true","null","tones/880hz_short.mp3","null","","","tone_number_task","562","54","tones/880hz_short.mp3","712","100","0","7"
"","","","","","html-keyboard-response","141","11408659","0.0-69.0-0.0","9","1","2023-10-16 15:42:05","e9d48ac1168f4a655ba3cac2ff085c86","181.169.73.153","Mozilla/5.0 (Macintosh; Intel Mac OS X 10_15_7) AppleWebKit/537.36 (KHTML, like Gecko) Chrome/115.0.0.0 Safari/537.36","Macintosh","Chrome","115.0.0.0","OS X","10_15_7","null","es-ES,es;q=0.9","true","243","tones/880hz_short.mp3","s","","","empty_block","","54","","","","0","7"
"","","","","","html-keyboard-response","142","11409107","0.0-69.0-1.0","9","1","2023-10-16 15:42:05","e9d48ac1168f4a655ba3cac2ff085c86","181.169.73.153","Mozilla/5.0 (Macintosh; Intel Mac OS X 10_15_7) AppleWebKit/537.36 (KHTML, like Gecko) Chrome/115.0.0.0 Safari/537.36","Macintosh","Chrome","115.0.0.0","OS X","10_15_7","null","es-ES,es;q=0.9","true","444","tones/880hz_short.mp3","k","","","empty_block","","54","","","","0","7"
"","","","","","html-keyboard-response","143","11412076","0.0-71.0","9","1","2023-10-16 15:42:05","e9d48ac1168f4a655ba3cac2ff085c86","181.169.73.153","Mozilla/5.0 (Macintosh; Intel Mac OS X 10_15_7) AppleWebKit/537.36 (KHTML, like Gecko) Chrome/115.0.0.0 Safari/537.36","Macintosh","Chrome","115.0.0.0","OS X","10_15_7","null","es-ES,es;q=0.9","true","null","<div style=""font-size:100px;"">X</div>","null","","","fixation","","","","","","",""
"","","","","","audio-keyboard-response","144","11412636","0.0-72.0","9","1","2023-10-16 15:42:05","e9d48ac1168f4a655ba3cac2ff085c86","181.169.73.153","Mozilla/5.0 (Macintosh; Intel Mac OS X 10_15_7) AppleWebKit/537.36 (KHTML, like Gecko) Chrome/115.0.0.0 Safari/537.36","Macintosh","Chrome","115.0.0.0","OS X","10_15_7","null","es-ES,es;q=0.9","true","null","tones/880hz_short.mp3","null","","","tone_number_task","397","40","tones/880hz_short.mp3","547","100","0","8"
"","","","","","html-keyboard-response","145","11412699","0.0-75.0-0.0","9","1","2023-10-16 15:42:05","e9d48ac1168f4a655ba3cac2ff085c86","181.169.73.153","Mozilla/5.0 (Macintosh; Intel Mac OS X 10_15_7) AppleWebKit/537.36 (KHTML, like Gecko) Chrome/115.0.0.0 Safari/537.36","Macintosh","Chrome","115.0.0.0","OS X","10_15_7","null","es-ES,es;q=0.9","true","59","tones/880hz_short.mp3","s","","","empty_block","","40","","","","0","8"
"","","","","","html-keyboard-response","146","11413203","0.0-75.0-1.0","9","1","2023-10-16 15:42:05","e9d48ac1168f4a655ba3cac2ff085c86","181.169.73.153","Mozilla/5.0 (Macintosh; Intel Mac OS X 10_15_7) AppleWebKit/537.36 (KHTML, like Gecko) Chrome/115.0.0.0 Safari/537.36","Macintosh","Chrome","115.0.0.0","OS X","10_15_7","null","es-ES,es;q=0.9","true","499","tones/880hz_short.mp3","j","","","empty_block","","40","","","","0","8"
"","","","","","html-keyboard-response","147","11416172","0.0-77.0","9","1","2023-10-16 15:42:05","e9d48ac1168f4a655ba3cac2ff085c86","181.169.73.153","Mozilla/5.0 (Macintosh; Intel Mac OS X 10_15_7) AppleWebKit/537.36 (KHTML, like Gecko) Chrome/115.0.0.0 Safari/537.36","Macintosh","Chrome","115.0.0.0","OS X","10_15_7","null","es-ES,es;q=0.9","true","null","<div style=""font-size:100px;"">X</div>","null","","","fixation","","","","","","",""
"","","","","","audio-keyboard-response","148","11416389","0.0-78.0","9","1","2023-10-16 15:42:05","e9d48ac1168f4a655ba3cac2ff085c86","181.169.73.153","Mozilla/5.0 (Macintosh; Intel Mac OS X 10_15_7) AppleWebKit/537.36 (KHTML, like Gecko) Chrome/115.0.0.0 Safari/537.36","Macintosh","Chrome","115.0.0.0","OS X","10_15_7","null","es-ES,es;q=0.9","true","null","tones/880hz_short.mp3","null","","","tone_number_task","58","32","tones/880hz_short.mp3","208","100","0","9"
"","","","","","html-keyboard-response","149","11417339","0.0-81.0-0.0","9","1","2023-10-16 15:42:05","e9d48ac1168f4a655ba3cac2ff085c86","181.169.73.153","Mozilla/5.0 (Macintosh; Intel Mac OS X 10_15_7) AppleWebKit/537.36 (KHTML, like Gecko) Chrome/115.0.0.0 Safari/537.36","Macintosh","Chrome","115.0.0.0","OS X","10_15_7","null","es-ES,es;q=0.9","true","946","tones/880hz_short.mp3","s","","","empty_block","","32","","","","0","9"
"","","","","","html-keyboard-response","150","11417723","0.0-81.0-1.0","9","1","2023-10-16 15:42:05","e9d48ac1168f4a655ba3cac2ff085c86","181.169.73.153","Mozilla/5.0 (Macintosh; Intel Mac OS X 10_15_7) AppleWebKit/537.36 (KHTML, like Gecko) Chrome/115.0.0.0 Safari/537.36","Macintosh","Chrome","115.0.0.0","OS X","10_15_7","null","es-ES,es;q=0.9","true","379","tones/880hz_short.mp3","j","","","empty_block","","32","","","","0","9"
"","","","","","html-keyboard-response","151","11420691","0.0-83.0","9","1","2023-10-16 15:42:05","e9d48ac1168f4a655ba3cac2ff085c86","181.169.73.153","Mozilla/5.0 (Macintosh; Intel Mac OS X 10_15_7) AppleWebKit/537.36 (KHTML, like Gecko) Chrome/115.0.0.0 Safari/537.36","Macintosh","Chrome","115.0.0.0","OS X","10_15_7","null","es-ES,es;q=0.9","true","null","<div style=""font-size:100px;"">X</div>","null","","","fixation","","","","","","",""
"","","","","","audio-keyboard-response","152","11421165","0.0-84.0","9","1","2023-10-16 15:42:05","e9d48ac1168f4a655ba3cac2ff085c86","181.169.73.153","Mozilla/5.0 (Macintosh; Intel Mac OS X 10_15_7) AppleWebKit/537.36 (KHTML, like Gecko) Chrome/115.0.0.0 Safari/537.36","Macintosh","Chrome","115.0.0.0","OS X","10_15_7","null","es-ES,es;q=0.9","true","null","tones/880hz_short.mp3","null","","","tone_number_task","313","63","tones/880hz_short.mp3","463","100","0","10"
"","","","","","html-keyboard-response","153","11421515","0.0-87.0-0.0","9","1","2023-10-16 15:42:05","e9d48ac1168f4a655ba3cac2ff085c86","181.169.73.153","Mozilla/5.0 (Macintosh; Intel Mac OS X 10_15_7) AppleWebKit/537.36 (KHTML, like Gecko) Chrome/115.0.0.0 Safari/537.36","Macintosh","Chrome","115.0.0.0","OS X","10_15_7","null","es-ES,es;q=0.9","true","346","tones/880hz_short.mp3","s","","","empty_block","","63","","","","0","10"
"","","","","","html-keyboard-response","154","11421883","0.0-87.0-1.0","9","1","2023-10-16 15:42:05","e9d48ac1168f4a655ba3cac2ff085c86","181.169.73.153","Mozilla/5.0 (Macintosh; Intel Mac OS X 10_15_7) AppleWebKit/537.36 (KHTML, like Gecko) Chrome/115.0.0.0 Safari/537.36","Macintosh","Chrome","115.0.0.0","OS X","10_15_7","null","es-ES,es;q=0.9","true","364","tones/880hz_short.mp3","k","","","empty_block","","63","","","","0","10"
"","","","","","html-keyboard-response","155","11424852","0.0-89.0","9","1","2023-10-16 15:42:05","e9d48ac1168f4a655ba3cac2ff085c86","181.169.73.153","Mozilla/5.0 (Macintosh; Intel Mac OS X 10_15_7) AppleWebKit/537.36 (KHTML, like Gecko) Chrome/115.0.0.0 Safari/537.36","Macintosh","Chrome","115.0.0.0","OS X","10_15_7","null","es-ES,es;q=0.9","true","null","<div style=""font-size:100px;"">X</div>","null","","","fixation","","","","","","",""
"","","","","","audio-keyboard-response","156","11425140","0.0-90.0","9","1","2023-10-16 15:42:05","e9d48ac1168f4a655ba3cac2ff085c86","181.169.73.153","Mozilla/5.0 (Macintosh; Intel Mac OS X 10_15_7) AppleWebKit/537.36 (KHTML, like Gecko) Chrome/115.0.0.0 Safari/537.36","Macintosh","Chrome","115.0.0.0","OS X","10_15_7","null","es-ES,es;q=0.9","true","null","tones/880hz_short.mp3","null","","","tone_number_task","127","28","tones/880hz_short.mp3","277","100","0","11"
"","","","","","html-keyboard-response","157","11425419","0.0-93.0-0.0","9","1","2023-10-16 15:42:05","e9d48ac1168f4a655ba3cac2ff085c86","181.169.73.153","Mozilla/5.0 (Macintosh; Intel Mac OS X 10_15_7) AppleWebKit/537.36 (KHTML, like Gecko) Chrome/115.0.0.0 Safari/537.36","Macintosh","Chrome","115.0.0.0","OS X","10_15_7","null","es-ES,es;q=0.9","true","274","tones/880hz_short.mp3","s","","","empty_block","","28","","","","0","11"
"","","","","","html-keyboard-response","158","11425795","0.0-93.0-1.0","9","1","2023-10-16 15:42:05","e9d48ac1168f4a655ba3cac2ff085c86","181.169.73.153","Mozilla/5.0 (Macintosh; Intel Mac OS X 10_15_7) AppleWebKit/537.36 (KHTML, like Gecko) Chrome/115.0.0.0 Safari/537.36","Macintosh","Chrome","115.0.0.0","OS X","10_15_7","null","es-ES,es;q=0.9","true","371","tones/880hz_short.mp3","j","","","empty_block","","28","","","","0","11"
"","","","","","html-keyboard-response","159","11428773","0.0-95.0","9","1","2023-10-16 15:42:05","e9d48ac1168f4a655ba3cac2ff085c86","181.169.73.153","Mozilla/5.0 (Macintosh; Intel Mac OS X 10_15_7) AppleWebKit/537.36 (KHTML, like Gecko) Chrome/115.0.0.0 Safari/537.36","Macintosh","Chrome","115.0.0.0","OS X","10_15_7","null","es-ES,es;q=0.9","true","null","<div style=""font-size:100px;"">X</div>","null","","","fixation","","","","","","",""
"","","","","","audio-keyboard-response","160","11429093","0.0-96.0","9","1","2023-10-16 15:42:05","e9d48ac1168f4a655ba3cac2ff085c86","181.169.73.153","Mozilla/5.0 (Macintosh; Intel Mac OS X 10_15_7) AppleWebKit/537.36 (KHTML, like Gecko) Chrome/115.0.0.0 Safari/537.36","Macintosh","Chrome","115.0.0.0","OS X","10_15_7","null","es-ES,es;q=0.9","true","null","tones/440hz_short.mp3","null","","","tone_number_task","159","69","tones/440hz_short.mp3","309","100","0","12"
"","","","","","html-keyboard-response","161","11429411","0.0-99.0-0.0","9","1","2023-10-16 15:42:05","e9d48ac1168f4a655ba3cac2ff085c86","181.169.73.153","Mozilla/5.0 (Macintosh; Intel Mac OS X 10_15_7) AppleWebKit/537.36 (KHTML, like Gecko) Chrome/115.0.0.0 Safari/537.36","Macintosh","Chrome","115.0.0.0","OS X","10_15_7","null","es-ES,es;q=0.9","true","314","tones/440hz_short.mp3","a","","","empty_block","","69","","","","0","12"
"","","","","","html-keyboard-response","162","11429867","0.0-99.0-1.0","9","1","2023-10-16 15:42:05","e9d48ac1168f4a655ba3cac2ff085c86","181.169.73.153","Mozilla/5.0 (Macintosh; Intel Mac OS X 10_15_7) AppleWebKit/537.36 (KHTML, like Gecko) Chrome/115.0.0.0 Safari/537.36","Macintosh","Chrome","115.0.0.0","OS X","10_15_7","null","es-ES,es;q=0.9","true","451","tones/440hz_short.mp3","k","","","empty_block","","69","","","","0","12"
"","","","","","html-keyboard-response","163","11432837","0.0-101.0","9","1","2023-10-16 15:42:05","e9d48ac1168f4a655ba3cac2ff085c86","181.169.73.153","Mozilla/5.0 (Macintosh; Intel Mac OS X 10_15_7) AppleWebKit/537.36 (KHTML, like Gecko) Chrome/115.0.0.0 Safari/537.36","Macintosh","Chrome","115.0.0.0","OS X","10_15_7","null","es-ES,es;q=0.9","true","null","<div style=""font-size:100px;"">X</div>","null","","","fixation","","","","","","",""
"","","","","","audio-keyboard-response","164","11433023","0.0-102.0","9","1","2023-10-16 15:42:05","e9d48ac1168f4a655ba3cac2ff085c86","181.169.73.153","Mozilla/5.0 (Macintosh; Intel Mac OS X 10_15_7) AppleWebKit/537.36 (KHTML, like Gecko) Chrome/115.0.0.0 Safari/537.36","Macintosh","Chrome","115.0.0.0","OS X","10_15_7","null","es-ES,es;q=0.9","true","null","tones/880hz_short.mp3","null","","","tone_number_task","29","53","tones/880hz_short.mp3","179","100","0","13"
"","","","","","html-keyboard-response","165","11433403","0.0-105.0-0.0","9","1","2023-10-16 15:42:05","e9d48ac1168f4a655ba3cac2ff085c86","181.169.73.153","Mozilla/5.0 (Macintosh; Intel Mac OS X 10_15_7) AppleWebKit/537.36 (KHTML, like Gecko) Chrome/115.0.0.0 Safari/537.36","Macintosh","Chrome","115.0.0.0","OS X","10_15_7","null","es-ES,es;q=0.9","true","375","tones/880hz_short.mp3","s","","","empty_block","","53","","","","0","13"
"","","","","","html-keyboard-response","166","11433931","0.0-105.0-1.0","9","1","2023-10-16 15:42:05","e9d48ac1168f4a655ba3cac2ff085c86","181.169.73.153","Mozilla/5.0 (Macintosh; Intel Mac OS X 10_15_7) AppleWebKit/537.36 (KHTML, like Gecko) Chrome/115.0.0.0 Safari/537.36","Macintosh","Chrome","115.0.0.0","OS X","10_15_7","null","es-ES,es;q=0.9","true","523","tones/880hz_short.mp3","k","","","empty_block","","53","","","","0","13"
"","","","","","html-keyboard-response","167","11436908","0.0-107.0","9","1","2023-10-16 15:42:05","e9d48ac1168f4a655ba3cac2ff085c86","181.169.73.153","Mozilla/5.0 (Macintosh; Intel Mac OS X 10_15_7) AppleWebKit/537.36 (KHTML, like Gecko) Chrome/115.0.0.0 Safari/537.36","Macintosh","Chrome","115.0.0.0","OS X","10_15_7","null","es-ES,es;q=0.9","true","null","<div style=""font-size:100px;"">X</div>","null","","","fixation","","","","","","",""
"","","","","","audio-keyboard-response","168","11437428","0.0-108.0","9","1","2023-10-16 15:42:05","e9d48ac1168f4a655ba3cac2ff085c86","181.169.73.153","Mozilla/5.0 (Macintosh; Intel Mac OS X 10_15_7) AppleWebKit/537.36 (KHTML, like Gecko) Chrome/115.0.0.0 Safari/537.36","Macintosh","Chrome","115.0.0.0","OS X","10_15_7","null","es-ES,es;q=0.9","true","null","tones/880hz_short.mp3","null","","","tone_number_task","357","21","tones/880hz_short.mp3","507","100","0","14"
"","","","","","html-keyboard-response","169","11437875","0.0-111.0-0.0","9","1","2023-10-16 15:42:05","e9d48ac1168f4a655ba3cac2ff085c86","181.169.73.153","Mozilla/5.0 (Macintosh; Intel Mac OS X 10_15_7) AppleWebKit/537.36 (KHTML, like Gecko) Chrome/115.0.0.0 Safari/537.36","Macintosh","Chrome","115.0.0.0","OS X","10_15_7","null","es-ES,es;q=0.9","true","442","tones/880hz_short.mp3","s","","","empty_block","","21","","","","0","14"
"","","","","","html-keyboard-response","170","11438235","0.0-111.0-1.0","9","1","2023-10-16 15:42:05","e9d48ac1168f4a655ba3cac2ff085c86","181.169.73.153","Mozilla/5.0 (Macintosh; Intel Mac OS X 10_15_7) AppleWebKit/537.36 (KHTML, like Gecko) Chrome/115.0.0.0 Safari/537.36","Macintosh","Chrome","115.0.0.0","OS X","10_15_7","null","es-ES,es;q=0.9","true","355","tones/880hz_short.mp3","j","","","empty_block","","21","","","","0","14"
"","","","","","html-keyboard-response","171","11441204","0.0-113.0","9","1","2023-10-16 15:42:05","e9d48ac1168f4a655ba3cac2ff085c86","181.169.73.153","Mozilla/5.0 (Macintosh; Intel Mac OS X 10_15_7) AppleWebKit/537.36 (KHTML, like Gecko) Chrome/115.0.0.0 Safari/537.36","Macintosh","Chrome","115.0.0.0","OS X","10_15_7","null","es-ES,es;q=0.9","true","null","<div style=""font-size:100px;"">X</div>","null","","","fixation","","","","","","",""
"","","","","","audio-keyboard-response","172","11442003","0.0-114.0","9","1","2023-10-16 15:42:05","e9d48ac1168f4a655ba3cac2ff085c86","181.169.73.153","Mozilla/5.0 (Macintosh; Intel Mac OS X 10_15_7) AppleWebKit/537.36 (KHTML, like Gecko) Chrome/115.0.0.0 Safari/537.36","Macintosh","Chrome","115.0.0.0","OS X","10_15_7","null","es-ES,es;q=0.9","true","789","tones/880hz_short.mp3","s","","","tone_number_task","690","48","tones/880hz_short.mp3","840","100","0","15"
"","","","","","html-keyboard-response","173","11442069","0.0-116.0-0.0","9","1","2023-10-16 15:42:05","e9d48ac1168f4a655ba3cac2ff085c86","181.169.73.153","Mozilla/5.0 (Macintosh; Intel Mac OS X 10_15_7) AppleWebKit/537.36 (KHTML, like Gecko) Chrome/115.0.0.0 Safari/537.36","Macintosh","Chrome","115.0.0.0","OS X","10_15_7","null","es-ES,es;q=0.9","true","null","<p id=""stimulus"" style=""font-size:100px;"">48</p>","null","","","tone_number_task_remaining_after_delay","","48","","","100","0","15"
"","","","","","html-keyboard-response","174","11443019","0.0-118.0-0.0","9","1","2023-10-16 15:42:05","e9d48ac1168f4a655ba3cac2ff085c86","181.169.73.153","Mozilla/5.0 (Macintosh; Intel Mac OS X 10_15_7) AppleWebKit/537.36 (KHTML, like Gecko) Chrome/115.0.0.0 Safari/537.36","Macintosh","Chrome","115.0.0.0","OS X","10_15_7","null","es-ES,es;q=0.9","true","946","<p id=""stimulus"" style=""font-size:100px;"">48</p>","k","","","empty_block","","48","","","","0","15"
"","","","","","html-keyboard-response","175","11445988","0.0-119.0","9","1","2023-10-16 15:42:05","e9d48ac1168f4a655ba3cac2ff085c86","181.169.73.153","Mozilla/5.0 (Macintosh; Intel Mac OS X 10_15_7) AppleWebKit/537.36 (KHTML, like Gecko) Chrome/115.0.0.0 Safari/537.36","Macintosh","Chrome","115.0.0.0","OS X","10_15_7","null","es-ES,es;q=0.9","true","null","<div style=""font-size:100px;"">X</div>","null","","","fixation","","","","","","",""
"","","","","","audio-keyboard-response","176","11446628","0.0-120.0","9","1","2023-10-16 15:42:05","e9d48ac1168f4a655ba3cac2ff085c86","181.169.73.153","Mozilla/5.0 (Macintosh; Intel Mac OS X 10_15_7) AppleWebKit/537.36 (KHTML, like Gecko) Chrome/115.0.0.0 Safari/537.36","Macintosh","Chrome","115.0.0.0","OS X","10_15_7","null","es-ES,es;q=0.9","true","633","tones/880hz_short.mp3","s","","","tone_number_task","570","39","tones/880hz_short.mp3","720","100","0","16"
"","","","","","html-keyboard-response","177","11446724","0.0-122.0-0.0","9","1","2023-10-16 15:42:05","e9d48ac1168f4a655ba3cac2ff085c86","181.169.73.153","Mozilla/5.0 (Macintosh; Intel Mac OS X 10_15_7) AppleWebKit/537.36 (KHTML, like Gecko) Chrome/115.0.0.0 Safari/537.36","Macintosh","Chrome","115.0.0.0","OS X","10_15_7","null","es-ES,es;q=0.9","true","null","<p id=""stimulus"" style=""font-size:100px;"">39</p>","null","","","tone_number_task_remaining_after_delay","","39","","","100","0","16"
"","","","","","html-keyboard-response","178","11447243","0.0-124.0-0.0","9","1","2023-10-16 15:42:05","e9d48ac1168f4a655ba3cac2ff085c86","181.169.73.153","Mozilla/5.0 (Macintosh; Intel Mac OS X 10_15_7) AppleWebKit/537.36 (KHTML, like Gecko) Chrome/115.0.0.0 Safari/537.36","Macintosh","Chrome","115.0.0.0","OS X","10_15_7","null","es-ES,es;q=0.9","true","514","<p id=""stimulus"" style=""font-size:100px;"">39</p>","j","","","empty_block","","39","","","","0","16"
"","","","","","html-keyboard-response","179","11450212","0.0-125.0","9","1","2023-10-16 15:42:05","e9d48ac1168f4a655ba3cac2ff085c86","181.169.73.153","Mozilla/5.0 (Macintosh; Intel Mac OS X 10_15_7) AppleWebKit/537.36 (KHTML, like Gecko) Chrome/115.0.0.0 Safari/537.36","Macintosh","Chrome","115.0.0.0","OS X","10_15_7","null","es-ES,es;q=0.9","true","null","<div style=""font-size:100px;"">X</div>","null","","","fixation","","","","","","",""
"","","","","","audio-keyboard-response","180","11450477","0.0-126.0","9","1","2023-10-16 15:42:05","e9d48ac1168f4a655ba3cac2ff085c86","181.169.73.153","Mozilla/5.0 (Macintosh; Intel Mac OS X 10_15_7) AppleWebKit/537.36 (KHTML, like Gecko) Chrome/115.0.0.0 Safari/537.36","Macintosh","Chrome","115.0.0.0","OS X","10_15_7","null","es-ES,es;q=0.9","true","null","tones/880hz_short.mp3","null","","","tone_number_task","102","37","tones/880hz_short.mp3","252","100","0","17"
"","","","","","html-keyboard-response","181","11451227","0.0-129.0-0.0","9","1","2023-10-16 15:42:05","e9d48ac1168f4a655ba3cac2ff085c86","181.169.73.153","Mozilla/5.0 (Macintosh; Intel Mac OS X 10_15_7) AppleWebKit/537.36 (KHTML, like Gecko) Chrome/115.0.0.0 Safari/537.36","Macintosh","Chrome","115.0.0.0","OS X","10_15_7","null","es-ES,es;q=0.9","true","746","tones/880hz_short.mp3","s","","","empty_block","","37","","","","0","17"
"","","","","","html-keyboard-response","182","11451819","0.0-129.0-1.0","9","1","2023-10-16 15:42:05","e9d48ac1168f4a655ba3cac2ff085c86","181.169.73.153","Mozilla/5.0 (Macintosh; Intel Mac OS X 10_15_7) AppleWebKit/537.36 (KHTML, like Gecko) Chrome/115.0.0.0 Safari/537.36","Macintosh","Chrome","115.0.0.0","OS X","10_15_7","null","es-ES,es;q=0.9","true","587","tones/880hz_short.mp3","j","","","empty_block","","37","","","","0","17"
"","","","","","html-keyboard-response","183","11454789","0.0-131.0","9","1","2023-10-16 15:42:05","e9d48ac1168f4a655ba3cac2ff085c86","181.169.73.153","Mozilla/5.0 (Macintosh; Intel Mac OS X 10_15_7) AppleWebKit/537.36 (KHTML, like Gecko) Chrome/115.0.0.0 Safari/537.36","Macintosh","Chrome","115.0.0.0","OS X","10_15_7","null","es-ES,es;q=0.9","true","null","<div style=""font-size:100px;"">X</div>","null","","","fixation","","","","","","",""
"","","","","","audio-keyboard-response","184","11455459","0.0-132.0","9","1","2023-10-16 15:42:05","e9d48ac1168f4a655ba3cac2ff085c86","181.169.73.153","Mozilla/5.0 (Macintosh; Intel Mac OS X 10_15_7) AppleWebKit/537.36 (KHTML, like Gecko) Chrome/115.0.0.0 Safari/537.36","Macintosh","Chrome","115.0.0.0","OS X","10_15_7","null","es-ES,es;q=0.9","true","662","tones/880hz_short.mp3","s","","","tone_number_task","910","37","tones/880hz_short.mp3","1060","100","0","18"
"","","","","","html-keyboard-response","185","11455716","0.0-133.0-0.0","9","1","2023-10-16 15:42:05","e9d48ac1168f4a655ba3cac2ff085c86","181.169.73.153","Mozilla/5.0 (Macintosh; Intel Mac OS X 10_15_7) AppleWebKit/537.36 (KHTML, like Gecko) Chrome/115.0.0.0 Safari/537.36","Macintosh","Chrome","115.0.0.0","OS X","10_15_7","null","es-ES,es;q=0.9","true","null","","null","","","delay_block","","","","","","0","18"
"","","","","","html-keyboard-response","186","11455877","0.0-133.0-1.0","9","1","2023-10-16 15:42:05","e9d48ac1168f4a655ba3cac2ff085c86","181.169.73.153","Mozilla/5.0 (Macintosh; Intel Mac OS X 10_15_7) AppleWebKit/537.36 (KHTML, like Gecko) Chrome/115.0.0.0 Safari/537.36","Macintosh","Chrome","115.0.0.0","OS X","10_15_7","null","es-ES,es;q=0.9","true","null","<p id=""stimulus"" style=""font-size:100px;"">37</p>","null","","","tone_number_task_remaining_before_delay","","37","","398","100","0","18"
"","","","","","html-keyboard-response","187","11456523","0.0-136.0-0.0","9","1","2023-10-16 15:42:05","e9d48ac1168f4a655ba3cac2ff085c86","181.169.73.153","Mozilla/5.0 (Macintosh; Intel Mac OS X 10_15_7) AppleWebKit/537.36 (KHTML, like Gecko) Chrome/115.0.0.0 Safari/537.36","Macintosh","Chrome","115.0.0.0","OS X","10_15_7","null","es-ES,es;q=0.9","true","641","<p id=""stimulus"" style=""font-size:100px;"">37</p>","j","","","empty_block","","37","","","","0","18"
"","","","","","html-keyboard-response","188","11459500","0.0-137.0","9","1","2023-10-16 15:42:05","e9d48ac1168f4a655ba3cac2ff085c86","181.169.73.153","Mozilla/5.0 (Macintosh; Intel Mac OS X 10_15_7) AppleWebKit/537.36 (KHTML, like Gecko) Chrome/115.0.0.0 Safari/537.36","Macintosh","Chrome","115.0.0.0","OS X","10_15_7","null","es-ES,es;q=0.9","true","null","<div style=""font-size:100px;"">X</div>","null","","","fixation","","","","","","",""
"","","","","","audio-keyboard-response","189","11459973","0.0-138.0","9","1","2023-10-16 15:42:05","e9d48ac1168f4a655ba3cac2ff085c86","181.169.73.153","Mozilla/5.0 (Macintosh; Intel Mac OS X 10_15_7) AppleWebKit/537.36 (KHTML, like Gecko) Chrome/115.0.0.0 Safari/537.36","Macintosh","Chrome","115.0.0.0","OS X","10_15_7","null","es-ES,es;q=0.9","true","null","tones/440hz_short.mp3","null","","","tone_number_task","314","50","tones/440hz_short.mp3","464","100","0","19"
"","","","","","html-keyboard-response","190","11460076","0.0-141.0-0.0","9","1","2023-10-16 15:42:05","e9d48ac1168f4a655ba3cac2ff085c86","181.169.73.153","Mozilla/5.0 (Macintosh; Intel Mac OS X 10_15_7) AppleWebKit/537.36 (KHTML, like Gecko) Chrome/115.0.0.0 Safari/537.36","Macintosh","Chrome","115.0.0.0","OS X","10_15_7","null","es-ES,es;q=0.9","true","97","tones/440hz_short.mp3","a","","","empty_block","","50","","","","0","19"
"","","","","","html-keyboard-response","191","11460715","0.0-141.0-1.0","9","1","2023-10-16 15:42:05","e9d48ac1168f4a655ba3cac2ff085c86","181.169.73.153","Mozilla/5.0 (Macintosh; Intel Mac OS X 10_15_7) AppleWebKit/537.36 (KHTML, like Gecko) Chrome/115.0.0.0 Safari/537.36","Macintosh","Chrome","115.0.0.0","OS X","10_15_7","null","es-ES,es;q=0.9","true","635","tones/440hz_short.mp3","k","","","empty_block","","50","","","","0","19"
"","","","","","html-keyboard-response","192","11463684","0.0-143.0","9","1","2023-10-16 15:42:05","e9d48ac1168f4a655ba3cac2ff085c86","181.169.73.153","Mozilla/5.0 (Macintosh; Intel Mac OS X 10_15_7) AppleWebKit/537.36 (KHTML, like Gecko) Chrome/115.0.0.0 Safari/537.36","Macintosh","Chrome","115.0.0.0","OS X","10_15_7","null","es-ES,es;q=0.9","true","null","<div style=""font-size:100px;"">X</div>","null","","","fixation","","","","","","",""
"","","","","","audio-keyboard-response","193","11464555","0.0-144.0","9","1","2023-10-16 15:42:05","e9d48ac1168f4a655ba3cac2ff085c86","181.169.73.153","Mozilla/5.0 (Macintosh; Intel Mac OS X 10_15_7) AppleWebKit/537.36 (KHTML, like Gecko) Chrome/115.0.0.0 Safari/537.36","Macintosh","Chrome","115.0.0.0","OS X","10_15_7","null","es-ES,es;q=0.9","true","865","tones/440hz_short.mp3","a","","","tone_number_task","715","69","tones/440hz_short.mp3","865","100","0","20"
"","","","","","html-keyboard-response","194","11464562","0.0-146.0-0.0","9","1","2023-10-16 15:42:05","e9d48ac1168f4a655ba3cac2ff085c86","181.169.73.153","Mozilla/5.0 (Macintosh; Intel Mac OS X 10_15_7) AppleWebKit/537.36 (KHTML, like Gecko) Chrome/115.0.0.0 Safari/537.36","Macintosh","Chrome","115.0.0.0","OS X","10_15_7","null","es-ES,es;q=0.9","true","null","<p id=""stimulus"" style=""font-size:100px;"">69</p>","null","","","tone_number_task_remaining_after_delay","","69","","","100","0","20"
"","","","","","html-keyboard-response","195","11465091","0.0-148.0-0.0","9","1","2023-10-16 15:42:05","e9d48ac1168f4a655ba3cac2ff085c86","181.169.73.153","Mozilla/5.0 (Macintosh; Intel Mac OS X 10_15_7) AppleWebKit/537.36 (KHTML, like Gecko) Chrome/115.0.0.0 Safari/537.36","Macintosh","Chrome","115.0.0.0","OS X","10_15_7","null","es-ES,es;q=0.9","true","524","<p id=""stimulus"" style=""font-size:100px;"">69</p>","k","","","empty_block","","69","","","","0","20"
"","","","","","html-keyboard-response","196","11468060","0.0-149.0","9","1","2023-10-16 15:42:05","e9d48ac1168f4a655ba3cac2ff085c86","181.169.73.153","Mozilla/5.0 (Macintosh; Intel Mac OS X 10_15_7) AppleWebKit/537.36 (KHTML, like Gecko) Chrome/115.0.0.0 Safari/537.36","Macintosh","Chrome","115.0.0.0","OS X","10_15_7","null","es-ES,es;q=0.9","true","null","<div style=""font-size:100px;"">X</div>","null","","","fixation","","","","","","",""
"","","","","","audio-keyboard-response","197","11468852","0.0-150.0","9","1","2023-10-16 15:42:05","e9d48ac1168f4a655ba3cac2ff085c86","181.169.73.153","Mozilla/5.0 (Macintosh; Intel Mac OS X 10_15_7) AppleWebKit/537.36 (KHTML, like Gecko) Chrome/115.0.0.0 Safari/537.36","Macintosh","Chrome","115.0.0.0","OS X","10_15_7","null","es-ES,es;q=0.9","true","null","tones/880hz_short.mp3","null","","","tone_number_task","631","52","tones/880hz_short.mp3","781","100","0","21"
"","","","","","html-keyboard-response","198","11468980","0.0-153.0-0.0","9","1","2023-10-16 15:42:05","e9d48ac1168f4a655ba3cac2ff085c86","181.169.73.153","Mozilla/5.0 (Macintosh; Intel Mac OS X 10_15_7) AppleWebKit/537.36 (KHTML, like Gecko) Chrome/115.0.0.0 Safari/537.36","Macintosh","Chrome","115.0.0.0","OS X","10_15_7","null","es-ES,es;q=0.9","true","122","tones/880hz_short.mp3","a","","","empty_block","","52","","","","0","21"
"","","","","","html-keyboard-response","199","11469891","0.0-153.0-1.0","9","1","2023-10-16 15:42:05","e9d48ac1168f4a655ba3cac2ff085c86","181.169.73.153","Mozilla/5.0 (Macintosh; Intel Mac OS X 10_15_7) AppleWebKit/537.36 (KHTML, like Gecko) Chrome/115.0.0.0 Safari/537.36","Macintosh","Chrome","115.0.0.0","OS X","10_15_7","null","es-ES,es;q=0.9","true","907","tones/880hz_short.mp3","k","","","empty_block","","52","","","","0","21"
"","","","","","html-keyboard-response","200","11472861","0.0-155.0","9","1","2023-10-16 15:42:05","e9d48ac1168f4a655ba3cac2ff085c86","181.169.73.153","Mozilla/5.0 (Macintosh; Intel Mac OS X 10_15_7) AppleWebKit/537.36 (KHTML, like Gecko) Chrome/115.0.0.0 Safari/537.36","Macintosh","Chrome","115.0.0.0","OS X","10_15_7","null","es-ES,es;q=0.9","true","null","<div style=""font-size:100px;"">X</div>","null","","","fixation","","","","","","",""
"","","","","","audio-keyboard-response","201","11473476","0.0-156.0","9","1","2023-10-16 15:42:05","e9d48ac1168f4a655ba3cac2ff085c86","181.169.73.153","Mozilla/5.0 (Macintosh; Intel Mac OS X 10_15_7) AppleWebKit/537.36 (KHTML, like Gecko) Chrome/115.0.0.0 Safari/537.36","Macintosh","Chrome","115.0.0.0","OS X","10_15_7","null","es-ES,es;q=0.9","true","610","tones/880hz_short.mp3","s","","","tone_number_task","521","58","tones/880hz_short.mp3","671","100","0","22"
"","","","","","html-keyboard-response","202","11473548","0.0-158.0-0.0","9","1","2023-10-16 15:42:05","e9d48ac1168f4a655ba3cac2ff085c86","181.169.73.153","Mozilla/5.0 (Macintosh; Intel Mac OS X 10_15_7) AppleWebKit/537.36 (KHTML, like Gecko) Chrome/115.0.0.0 Safari/537.36","Macintosh","Chrome","115.0.0.0","OS X","10_15_7","null","es-ES,es;q=0.9","true","null","<p id=""stimulus"" style=""font-size:100px;"">58</p>","null","","","tone_number_task_remaining_after_delay","","58","","","100","0","22"
"","","","","","html-keyboard-response","203","11474060","0.0-160.0-0.0","9","1","2023-10-16 15:42:05","e9d48ac1168f4a655ba3cac2ff085c86","181.169.73.153","Mozilla/5.0 (Macintosh; Intel Mac OS X 10_15_7) AppleWebKit/537.36 (KHTML, like Gecko) Chrome/115.0.0.0 Safari/537.36","Macintosh","Chrome","115.0.0.0","OS X","10_15_7","null","es-ES,es;q=0.9","true","506","<p id=""stimulus"" style=""font-size:100px;"">58</p>","k","","","empty_block","","58","","","","0","22"
"","","","","","html-keyboard-response","204","11477029","0.0-161.0","9","1","2023-10-16 15:42:05","e9d48ac1168f4a655ba3cac2ff085c86","181.169.73.153","Mozilla/5.0 (Macintosh; Intel Mac OS X 10_15_7) AppleWebKit/537.36 (KHTML, like Gecko) Chrome/115.0.0.0 Safari/537.36","Macintosh","Chrome","115.0.0.0","OS X","10_15_7","null","es-ES,es;q=0.9","true","null","<div style=""font-size:100px;"">X</div>","null","","","fixation","","","","","","",""
"","","","","","audio-keyboard-response","205","11477597","0.0-162.0","9","1","2023-10-16 15:42:05","e9d48ac1168f4a655ba3cac2ff085c86","181.169.73.153","Mozilla/5.0 (Macintosh; Intel Mac OS X 10_15_7) AppleWebKit/537.36 (KHTML, like Gecko) Chrome/115.0.0.0 Safari/537.36","Macintosh","Chrome","115.0.0.0","OS X","10_15_7","null","es-ES,es;q=0.9","true","null","tones/440hz_short.mp3","null","","","tone_number_task","410","57","tones/440hz_short.mp3","560","100","0","23"
"","","","","","html-keyboard-response","206","11477636","0.0-165.0-0.0","9","1","2023-10-16 15:42:05","e9d48ac1168f4a655ba3cac2ff085c86","181.169.73.153","Mozilla/5.0 (Macintosh; Intel Mac OS X 10_15_7) AppleWebKit/537.36 (KHTML, like Gecko) Chrome/115.0.0.0 Safari/537.36","Macintosh","Chrome","115.0.0.0","OS X","10_15_7","null","es-ES,es;q=0.9","true","33","tones/440hz_short.mp3","a","","","empty_block","","57","","","","0","23"
"","","","","","html-keyboard-response","207","11478187","0.0-165.0-1.0","9","1","2023-10-16 15:42:05","e9d48ac1168f4a655ba3cac2ff085c86","181.169.73.153","Mozilla/5.0 (Macintosh; Intel Mac OS X 10_15_7) AppleWebKit/537.36 (KHTML, like Gecko) Chrome/115.0.0.0 Safari/537.36","Macintosh","Chrome","115.0.0.0","OS X","10_15_7","null","es-ES,es;q=0.9","true","546","tones/440hz_short.mp3","k","","","empty_block","","57","","","","0","23"
"","","","","","html-keyboard-response","208","11481166","0.0-167.0","9","1","2023-10-16 15:42:05","e9d48ac1168f4a655ba3cac2ff085c86","181.169.73.153","Mozilla/5.0 (Macintosh; Intel Mac OS X 10_15_7) AppleWebKit/537.36 (KHTML, like Gecko) Chrome/115.0.0.0 Safari/537.36","Macintosh","Chrome","115.0.0.0","OS X","10_15_7","null","es-ES,es;q=0.9","true","null","<div style=""font-size:100px;"">X</div>","null","","","fixation","","","","","","",""
"","","","","","audio-keyboard-response","209","11481932","0.0-168.0","9","1","2023-10-16 15:42:05","e9d48ac1168f4a655ba3cac2ff085c86","181.169.73.153","Mozilla/5.0 (Macintosh; Intel Mac OS X 10_15_7) AppleWebKit/537.36 (KHTML, like Gecko) Chrome/115.0.0.0 Safari/537.36","Macintosh","Chrome","115.0.0.0","OS X","10_15_7","null","es-ES,es;q=0.9","true","760","tones/440hz_short.mp3","a","","","tone_number_task","775","42","tones/440hz_short.mp3","925","100","0","24"
"","","","","","html-keyboard-response","210","11481957","0.0-169.0-0.0","9","1","2023-10-16 15:42:05","e9d48ac1168f4a655ba3cac2ff085c86","181.169.73.153","Mozilla/5.0 (Macintosh; Intel Mac OS X 10_15_7) AppleWebKit/537.36 (KHTML, like Gecko) Chrome/115.0.0.0 Safari/537.36","Macintosh","Chrome","115.0.0.0","OS X","10_15_7","null","es-ES,es;q=0.9","true","null","","null","","","delay_block","","","","","","0","24"
"","","","","","html-keyboard-response","211","11482117","0.0-169.0-1.0","9","1","2023-10-16 15:42:05","e9d48ac1168f4a655ba3cac2ff085c86","181.169.73.153","Mozilla/5.0 (Macintosh; Intel Mac OS X 10_15_7) AppleWebKit/537.36 (KHTML, like Gecko) Chrome/115.0.0.0 Safari/537.36","Macintosh","Chrome","115.0.0.0","OS X","10_15_7","null","es-ES,es;q=0.9","true","null","<p id=""stimulus"" style=""font-size:100px;"">42</p>","null","","","tone_number_task_remaining_before_delay","","42","","165","100","0","24"
"","","","","","html-keyboard-response","212","11482932","0.0-172.0-0.0","9","1","2023-10-16 15:42:05","e9d48ac1168f4a655ba3cac2ff085c86","181.169.73.153","Mozilla/5.0 (Macintosh; Intel Mac OS X 10_15_7) AppleWebKit/537.36 (KHTML, like Gecko) Chrome/115.0.0.0 Safari/537.36","Macintosh","Chrome","115.0.0.0","OS X","10_15_7","null","es-ES,es;q=0.9","true","809","<p id=""stimulus"" style=""font-size:100px;"">42</p>","k","","","empty_block","","42","","","","0","24"
"","","","","","html-keyboard-response","213","11485908","0.0-173.0","9","1","2023-10-16 15:42:05","e9d48ac1168f4a655ba3cac2ff085c86","181.169.73.153","Mozilla/5.0 (Macintosh; Intel Mac OS X 10_15_7) AppleWebKit/537.36 (KHTML, like Gecko) Chrome/115.0.0.0 Safari/537.36","Macintosh","Chrome","115.0.0.0","OS X","10_15_7","null","es-ES,es;q=0.9","true","null","<div style=""font-size:100px;"">X</div>","null","","","fixation","","","","","","",""
