"success","timeout","failed_images","failed_audio","failed_video","trial_type","trial_index","time_elapsed","internal_node_id","run_id","condition","recorded_at","source_code_version","ip","user_agent","device","browser","browser_version","platform","platform_version","referer","accept_language","check","rt","stimulus","response","question_order","url","task","delay","number","audioFile","trial_duration","font_size","block","round","value"
"true","false","[]","[]","[]","preload","0","361","0.0-0.0","11","1","2023-10-20 17:00:16","36476ce043e716bb3956d3c52bfa015e","190.193.127.39","Mozilla/5.0 (Windows NT 10.0; Win64; x64) AppleWebKit/537.36 (KHTML, like Gecko) Chrome/118.0.0.0 Safari/537.36","WebKit","Chrome","118.0.0.0","Windows","10.0","null","es-ES,es;q=0.9","true","","","","","","","","","","","","","",""
"true","","","","","fullscreen","1","19678","0.0-1.0","11","1","2023-10-20 17:00:16","36476ce043e716bb3956d3c52bfa015e","190.193.127.39","Mozilla/5.0 (Windows NT 10.0; Win64; x64) AppleWebKit/537.36 (KHTML, like Gecko) Chrome/118.0.0.0 Safari/537.36","WebKit","Chrome","118.0.0.0","Windows","10.0","null","es-ES,es;q=0.9","true","","","","","","","","","","","","","",""
"","","","","","html-button-response","2","22598","0.0-2.0","11","1","2023-10-20 17:00:16","36476ce043e716bb3956d3c52bfa015e","190.193.127.39","Mozilla/5.0 (Windows NT 10.0; Win64; x64) AppleWebKit/537.36 (KHTML, like Gecko) Chrome/118.0.0.0 Safari/537.36","WebKit","Chrome","118.0.0.0","Windows","10.0","null","es-ES,es;q=0.9","true","2916","<p style=""font-size:24px; color:red;"">Cosas importantes a tener en cuenta antes de comenzar el experimento:</p>","0","","","","","","","","","","",""
"","","","","","html-button-response","3","28845","0.0-3.0","11","1","2023-10-20 17:00:16","36476ce043e716bb3956d3c52bfa015e","190.193.127.39","Mozilla/5.0 (Windows NT 10.0; Win64; x64) AppleWebKit/537.36 (KHTML, like Gecko) Chrome/118.0.0.0 Safari/537.36","WebKit","Chrome","118.0.0.0","Windows","10.0","null","es-ES,es;q=0.9","true","6246","<p style=""font-size:24px;"">El experimento dura aproximadamente 15 minutos.</p><p style=""font-size:24px;"">Por favor, no cierres la ventana del navegador durante el experimento.</p><p style=""font-size:24px;"">Si se completa de forma parcial, no se guardará ningún resultado.</p>","0","","","","","","","","","","",""
"","","","","","html-button-response","4","32108","0.0-4.0","11","1","2023-10-20 17:00:16","36476ce043e716bb3956d3c52bfa015e","190.193.127.39","Mozilla/5.0 (Windows NT 10.0; Win64; x64) AppleWebKit/537.36 (KHTML, like Gecko) Chrome/118.0.0.0 Safari/537.36","WebKit","Chrome","118.0.0.0","Windows","10.0","null","es-ES,es;q=0.9","true","3262","<p style=""font-size:24px;"">El experimento contiene estímulos sonoros.</p>","0","","","","","","","","","","",""
"","","","","","audio-button-response","5","37456","0.0-5.0-0.0","11","1","2023-10-20 17:00:16","36476ce043e716bb3956d3c52bfa015e","190.193.127.39","Mozilla/5.0 (Windows NT 10.0; Win64; x64) AppleWebKit/537.36 (KHTML, like Gecko) Chrome/118.0.0.0 Safari/537.36","WebKit","Chrome","118.0.0.0","Windows","10.0","null","es-ES,es;q=0.9","true","5320","tones/440hz_short.mp3","0","","","","","","","","","","",""
"","","","","","audio-button-response","6","38414","0.0-5.1-0.1","11","1","2023-10-20 17:00:16","36476ce043e716bb3956d3c52bfa015e","190.193.127.39","Mozilla/5.0 (Windows NT 10.0; Win64; x64) AppleWebKit/537.36 (KHTML, like Gecko) Chrome/118.0.0.0 Safari/537.36","WebKit","Chrome","118.0.0.0","Windows","10.0","null","es-ES,es;q=0.9","true","960","tones/440hz_short.mp3","1","","","","","","","","","","",""
"","","","","","audio-button-response","7","40365","0.0-6.0-0.0","11","1","2023-10-20 17:00:16","36476ce043e716bb3956d3c52bfa015e","190.193.127.39","Mozilla/5.0 (Windows NT 10.0; Win64; x64) AppleWebKit/537.36 (KHTML, like Gecko) Chrome/118.0.0.0 Safari/537.36","WebKit","Chrome","118.0.0.0","Windows","10.0","null","es-ES,es;q=0.9","true","1949","tones/880hz_short.mp3","1","","","","","","","","","","",""
"","","","","","survey-html-form","8","44112","0.0-7.0","11","1","2023-10-20 17:00:16","36476ce043e716bb3956d3c52bfa015e","190.193.127.39","Mozilla/5.0 (Windows NT 10.0; Win64; x64) AppleWebKit/537.36 (KHTML, like Gecko) Chrome/118.0.0.0 Safari/537.36","WebKit","Chrome","118.0.0.0","Windows","10.0","null","es-ES,es;q=0.9","true","3740","","{""response"":""24""}","","","","","","","","","","",""
"","","","","","survey-multi-choice","9","52230","0.0-8.0","11","1","2023-10-20 17:00:16","36476ce043e716bb3956d3c52bfa015e","190.193.127.39","Mozilla/5.0 (Windows NT 10.0; Win64; x64) AppleWebKit/537.36 (KHTML, like Gecko) Chrome/118.0.0.0 Safari/537.36","WebKit","Chrome","118.0.0.0","Windows","10.0","null","es-ES,es;q=0.9","true","8115","","{""gender"":""Hombre"",""hand"":""Derecha""}","[0,1]","","","","","","","","","",""
"","","","","","external-html","10","284347","0.0-9.0","11","1","2023-10-20 17:00:16","36476ce043e716bb3956d3c52bfa015e","190.193.127.39","Mozilla/5.0 (Windows NT 10.0; Win64; x64) AppleWebKit/537.36 (KHTML, like Gecko) Chrome/118.0.0.0 Safari/537.36","WebKit","Chrome","118.0.0.0","Windows","10.0","null","es-ES,es;q=0.9","true","231819","","","","instructions/instructions.html","","","","","","","","",""
"","","","","","external-html","11","316613","0.0-10.0","11","1","2023-10-20 17:00:16","36476ce043e716bb3956d3c52bfa015e","190.193.127.39","Mozilla/5.0 (Windows NT 10.0; Win64; x64) AppleWebKit/537.36 (KHTML, like Gecko) Chrome/118.0.0.0 Safari/537.36","WebKit","Chrome","118.0.0.0","Windows","10.0","null","es-ES,es;q=0.9","true","31955","","","","instructions/animation.html","","","","","","","","",""
"","","","","","html-keyboard-response","12","319411","0.0-11.0-0.0","11","1","2023-10-20 17:00:16","36476ce043e716bb3956d3c52bfa015e","190.193.127.39","Mozilla/5.0 (Windows NT 10.0; Win64; x64) AppleWebKit/537.36 (KHTML, like Gecko) Chrome/118.0.0.0 Safari/537.36","WebKit","Chrome","118.0.0.0","Windows","10.0","null","es-ES,es;q=0.9","true","null","<div style=""font-size:100px;"">X</div>","null","","","fixation","","","","","","","",""
"","","","","","audio-keyboard-response","13","319946","0.0-11.0-1.0","11","1","2023-10-20 17:00:16","36476ce043e716bb3956d3c52bfa015e","190.193.127.39","Mozilla/5.0 (Windows NT 10.0; Win64; x64) AppleWebKit/537.36 (KHTML, like Gecko) Chrome/118.0.0.0 Safari/537.36","WebKit","Chrome","118.0.0.0","Windows","10.0","null","es-ES,es;q=0.9","true","499","tones/440hz_short.mp3","a","","","tone_number_task","1000","61","tones/440hz_short.mp3","1150","100","null","null",""
"","","","","","html-keyboard-response","14","320452","0.0-11.0-2.0-0.0","11","1","2023-10-20 17:00:16","36476ce043e716bb3956d3c52bfa015e","190.193.127.39","Mozilla/5.0 (Windows NT 10.0; Win64; x64) AppleWebKit/537.36 (KHTML, like Gecko) Chrome/118.0.0.0 Safari/537.36","WebKit","Chrome","118.0.0.0","Windows","10.0","null","es-ES,es;q=0.9","true","null","","null","","","delay_block","","","","","","null","null",""
"","","","","","html-keyboard-response","15","320613","0.0-11.0-2.0-1.0","11","1","2023-10-20 17:00:16","36476ce043e716bb3956d3c52bfa015e","190.193.127.39","Mozilla/5.0 (Windows NT 10.0; Win64; x64) AppleWebKit/537.36 (KHTML, like Gecko) Chrome/118.0.0.0 Safari/537.36","WebKit","Chrome","118.0.0.0","Windows","10.0","null","es-ES,es;q=0.9","true","null","<p id=""stimulus"" style=""font-size:100px;"">61</p>","null","","","tone_number_task_remaining_before_delay","","61","","651","100","null","null",""
"","","","","","html-keyboard-response","16","321175","0.0-11.0-5.0-0.0","11","1","2023-10-20 17:00:16","36476ce043e716bb3956d3c52bfa015e","190.193.127.39","Mozilla/5.0 (Windows NT 10.0; Win64; x64) AppleWebKit/537.36 (KHTML, like Gecko) Chrome/118.0.0.0 Safari/537.36","WebKit","Chrome","118.0.0.0","Windows","10.0","null","es-ES,es;q=0.9","true","557","<p id=""stimulus"" style=""font-size:100px;"">61</p>","k","","","empty_block","","61","","","","null","null",""
"","","","","","html-keyboard-response","17","323971","0.0-13.0-0.0","11","1","2023-10-20 17:00:16","36476ce043e716bb3956d3c52bfa015e","190.193.127.39","Mozilla/5.0 (Windows NT 10.0; Win64; x64) AppleWebKit/537.36 (KHTML, like Gecko) Chrome/118.0.0.0 Safari/537.36","WebKit","Chrome","118.0.0.0","Windows","10.0","null","es-ES,es;q=0.9","true","null","<div style=""font-size:100px;"">X</div>","null","","","fixation","","","","","","","",""
"","","","","","audio-keyboard-response","18","324361","0.0-13.0-1.0","11","1","2023-10-20 17:00:16","36476ce043e716bb3956d3c52bfa015e","190.193.127.39","Mozilla/5.0 (Windows NT 10.0; Win64; x64) AppleWebKit/537.36 (KHTML, like Gecko) Chrome/118.0.0.0 Safari/537.36","WebKit","Chrome","118.0.0.0","Windows","10.0","null","es-ES,es;q=0.9","true","392","tones/880hz_short.mp3","s","","","tone_number_task","500","32","tones/880hz_short.mp3","650","100","null","null",""
"","","","","","html-keyboard-response","19","324481","0.0-13.0-2.0-0.0","11","1","2023-10-20 17:00:16","36476ce043e716bb3956d3c52bfa015e","190.193.127.39","Mozilla/5.0 (Windows NT 10.0; Win64; x64) AppleWebKit/537.36 (KHTML, like Gecko) Chrome/118.0.0.0 Safari/537.36","WebKit","Chrome","118.0.0.0","Windows","10.0","null","es-ES,es;q=0.9","true","null","","null","","","delay_block","","","","","","null","null",""
"","","","","","html-keyboard-response","20","324642","0.0-13.0-2.0-1.0","11","1","2023-10-20 17:00:16","36476ce043e716bb3956d3c52bfa015e","190.193.127.39","Mozilla/5.0 (Windows NT 10.0; Win64; x64) AppleWebKit/537.36 (KHTML, like Gecko) Chrome/118.0.0.0 Safari/537.36","WebKit","Chrome","118.0.0.0","Windows","10.0","null","es-ES,es;q=0.9","true","null","<p id=""stimulus"" style=""font-size:100px;"">32</p>","null","","","tone_number_task_remaining_before_delay","","32","","258","100","null","null",""
"","","","","","html-keyboard-response","21","325042","0.0-13.0-5.0-0.0","11","1","2023-10-20 17:00:16","36476ce043e716bb3956d3c52bfa015e","190.193.127.39","Mozilla/5.0 (Windows NT 10.0; Win64; x64) AppleWebKit/537.36 (KHTML, like Gecko) Chrome/118.0.0.0 Safari/537.36","WebKit","Chrome","118.0.0.0","Windows","10.0","null","es-ES,es;q=0.9","true","397","<p id=""stimulus"" style=""font-size:100px;"">32</p>","j","","","empty_block","","32","","","","null","null",""
"","","","","","html-keyboard-response","22","327841","0.0-15.0-0.0","11","1","2023-10-20 17:00:16","36476ce043e716bb3956d3c52bfa015e","190.193.127.39","Mozilla/5.0 (Windows NT 10.0; Win64; x64) AppleWebKit/537.36 (KHTML, like Gecko) Chrome/118.0.0.0 Safari/537.36","WebKit","Chrome","118.0.0.0","Windows","10.0","null","es-ES,es;q=0.9","true","null","<div style=""font-size:100px;"">X</div>","null","","","fixation","","","","","","","",""
"","","","","","audio-keyboard-response","23","328151","0.0-15.0-1.0","11","1","2023-10-20 17:00:16","36476ce043e716bb3956d3c52bfa015e","190.193.127.39","Mozilla/5.0 (Windows NT 10.0; Win64; x64) AppleWebKit/537.36 (KHTML, like Gecko) Chrome/118.0.0.0 Safari/537.36","WebKit","Chrome","118.0.0.0","Windows","10.0","null","es-ES,es;q=0.9","true","null","tones/880hz_short.mp3","null","","","tone_number_task","150","61","tones/880hz_short.mp3","300","100","null","null",""
"","","","","","html-keyboard-response","24","328405","0.0-15.0-4.0-0.0","11","1","2023-10-20 17:00:16","36476ce043e716bb3956d3c52bfa015e","190.193.127.39","Mozilla/5.0 (Windows NT 10.0; Win64; x64) AppleWebKit/537.36 (KHTML, like Gecko) Chrome/118.0.0.0 Safari/537.36","WebKit","Chrome","118.0.0.0","Windows","10.0","null","es-ES,es;q=0.9","true","252","tones/880hz_short.mp3","s","","","empty_block","","61","","","","null","null",""
"","","","","","html-keyboard-response","25","328726","0.0-15.0-4.0-1.0","11","1","2023-10-20 17:00:16","36476ce043e716bb3956d3c52bfa015e","190.193.127.39","Mozilla/5.0 (Windows NT 10.0; Win64; x64) AppleWebKit/537.36 (KHTML, like Gecko) Chrome/118.0.0.0 Safari/537.36","WebKit","Chrome","118.0.0.0","Windows","10.0","null","es-ES,es;q=0.9","true","319","tones/880hz_short.mp3","k","","","empty_block","","61","","","","null","null",""
"","","","","","html-keyboard-response","26","331532","0.0-17.0-0.0","11","1","2023-10-20 17:00:16","36476ce043e716bb3956d3c52bfa015e","190.193.127.39","Mozilla/5.0 (Windows NT 10.0; Win64; x64) AppleWebKit/537.36 (KHTML, like Gecko) Chrome/118.0.0.0 Safari/537.36","WebKit","Chrome","118.0.0.0","Windows","10.0","null","es-ES,es;q=0.9","true","null","<div style=""font-size:100px;"">X</div>","null","","","fixation","","","","","","","",""
"","","","","","audio-keyboard-response","27","331742","0.0-17.0-1.0","11","1","2023-10-20 17:00:16","36476ce043e716bb3956d3c52bfa015e","190.193.127.39","Mozilla/5.0 (Windows NT 10.0; Win64; x64) AppleWebKit/537.36 (KHTML, like Gecko) Chrome/118.0.0.0 Safari/537.36","WebKit","Chrome","118.0.0.0","Windows","10.0","null","es-ES,es;q=0.9","true","null","tones/440hz_short.mp3","null","","","tone_number_task","50","56","tones/440hz_short.mp3","200","100","null","null",""
"","","","","","html-keyboard-response","28","331977","0.0-17.0-4.0-0.0","11","1","2023-10-20 17:00:16","36476ce043e716bb3956d3c52bfa015e","190.193.127.39","Mozilla/5.0 (Windows NT 10.0; Win64; x64) AppleWebKit/537.36 (KHTML, like Gecko) Chrome/118.0.0.0 Safari/537.36","WebKit","Chrome","118.0.0.0","Windows","10.0","null","es-ES,es;q=0.9","true","232","tones/440hz_short.mp3","a","","","empty_block","","56","","","","null","null",""
"","","","","","html-keyboard-response","29","332507","0.0-17.0-4.0-1.0","11","1","2023-10-20 17:00:16","36476ce043e716bb3956d3c52bfa015e","190.193.127.39","Mozilla/5.0 (Windows NT 10.0; Win64; x64) AppleWebKit/537.36 (KHTML, like Gecko) Chrome/118.0.0.0 Safari/537.36","WebKit","Chrome","118.0.0.0","Windows","10.0","null","es-ES,es;q=0.9","true","524","tones/440hz_short.mp3","k","","","empty_block","","56","","","","null","null",""
"","","","","","html-button-response","30","391891","0.0-19.0","11","1","2023-10-20 17:00:16","36476ce043e716bb3956d3c52bfa015e","190.193.127.39","Mozilla/5.0 (Windows NT 10.0; Win64; x64) AppleWebKit/537.36 (KHTML, like Gecko) Chrome/118.0.0.0 Safari/537.36","WebKit","Chrome","118.0.0.0","Windows","10.0","null","es-ES,es;q=0.9","true","59378","
  <h1> Muy bien </h1>
  <p> Ahora, en vez de ser presentados en dígitos, los números vendrán escritos en palabras. </p>
  <p> Por ejemplo, en vez de 44 te aparecerá ""cuarenta y cuatro"". </p>
  ","0","","","","","","","","","","",""
"","","","","","html-keyboard-response","31","394687","0.0-20.0-0.0","11","1","2023-10-20 17:00:16","36476ce043e716bb3956d3c52bfa015e","190.193.127.39","Mozilla/5.0 (Windows NT 10.0; Win64; x64) AppleWebKit/537.36 (KHTML, like Gecko) Chrome/118.0.0.0 Safari/537.36","WebKit","Chrome","118.0.0.0","Windows","10.0","null","es-ES,es;q=0.9","true","null","<div style=""font-size:100px;"">X</div>","null","","","fixation","","","","","","","",""
"","","","","","audio-keyboard-response","32","395845","0.0-20.0-1.0","11","1","2023-10-20 17:00:16","36476ce043e716bb3956d3c52bfa015e","190.193.127.39","Mozilla/5.0 (Windows NT 10.0; Win64; x64) AppleWebKit/537.36 (KHTML, like Gecko) Chrome/118.0.0.0 Safari/537.36","WebKit","Chrome","118.0.0.0","Windows","10.0","null","es-ES,es;q=0.9","true","null","tones/440hz_short.mp3","null","","","tone_number_task","1000","treinta y seis","tones/440hz_short.mp3","1150","60","null","null",""
"","","","","","html-keyboard-response","33","396376","0.0-20.0-4.0-0.0","11","1","2023-10-20 17:00:16","36476ce043e716bb3956d3c52bfa015e","190.193.127.39","Mozilla/5.0 (Windows NT 10.0; Win64; x64) AppleWebKit/537.36 (KHTML, like Gecko) Chrome/118.0.0.0 Safari/537.36","WebKit","Chrome","118.0.0.0","Windows","10.0","null","es-ES,es;q=0.9","true","526","tones/440hz_short.mp3","a","","","empty_block","","treinta y seis","","","","null","null",""
"","","","","","html-keyboard-response","34","396947","0.0-20.0-4.0-1.0","11","1","2023-10-20 17:00:16","36476ce043e716bb3956d3c52bfa015e","190.193.127.39","Mozilla/5.0 (Windows NT 10.0; Win64; x64) AppleWebKit/537.36 (KHTML, like Gecko) Chrome/118.0.0.0 Safari/537.36","WebKit","Chrome","118.0.0.0","Windows","10.0","null","es-ES,es;q=0.9","true","565","tones/440hz_short.mp3","j","","","empty_block","","treinta y seis","","","","null","null",""
"","","","","","html-button-response","35","451269","0.0-22.0","11","1","2023-10-20 17:00:16","36476ce043e716bb3956d3c52bfa015e","190.193.127.39","Mozilla/5.0 (Windows NT 10.0; Win64; x64) AppleWebKit/537.36 (KHTML, like Gecko) Chrome/118.0.0.0 Safari/537.36","WebKit","Chrome","118.0.0.0","Windows","10.0","null","es-ES,es;q=0.9","true","54318","
  <h1> Fin del Entrenamiento </h1>
  <p> ¡Felicitaciones, terminaste el entrenamiento! Ahora vamos a comenzar con el experimento. </p>
  <p> Es importante tener en cuenta que consta de cuatro bloques.</p>
  <p> Podés aprovechar los momentos entre bloques para tomar un breve descanso o tomar agua entre cada uno</p>
  <p> Recordá que tenés que responder lo más rápido que puedas, pero sin equivocarte. </p>
  ","0","","","","","","","","","","",""
"","","","","","external-html","36","470135","0.0-23.0","11","1","2023-10-20 17:00:16","36476ce043e716bb3956d3c52bfa015e","190.193.127.39","Mozilla/5.0 (Windows NT 10.0; Win64; x64) AppleWebKit/537.36 (KHTML, like Gecko) Chrome/118.0.0.0 Safari/537.36","WebKit","Chrome","118.0.0.0","Windows","10.0","null","es-ES,es;q=0.9","true","18555","","","","instructions/instructions_words_first.html","","","","","","","","",""
"","","","","","call-function","37","470143","0.0-24.0","11","1","2023-10-20 17:00:16","36476ce043e716bb3956d3c52bfa015e","190.193.127.39","Mozilla/5.0 (Windows NT 10.0; Win64; x64) AppleWebKit/537.36 (KHTML, like Gecko) Chrome/118.0.0.0 Safari/537.36","WebKit","Chrome","118.0.0.0","Windows","10.0","null","es-ES,es;q=0.9","true","","","","","","","","","","","","","",""
"","","","","","html-keyboard-response","38","472944","0.0-25.0","11","1","2023-10-20 17:00:16","36476ce043e716bb3956d3c52bfa015e","190.193.127.39","Mozilla/5.0 (Windows NT 10.0; Win64; x64) AppleWebKit/537.36 (KHTML, like Gecko) Chrome/118.0.0.0 Safari/537.36","WebKit","Chrome","118.0.0.0","Windows","10.0","null","es-ES,es;q=0.9","true","null","<div style=""font-size:100px;"">X</div>","null","","","fixation","","","","","","","",""
"","","","","","audio-keyboard-response","39","473102","0.0-26.0","11","1","2023-10-20 17:00:16","36476ce043e716bb3956d3c52bfa015e","190.193.127.39","Mozilla/5.0 (Windows NT 10.0; Win64; x64) AppleWebKit/537.36 (KHTML, like Gecko) Chrome/118.0.0.0 Safari/537.36","WebKit","Chrome","118.0.0.0","Windows","10.0","null","es-ES,es;q=0.9","true","null","tones/440hz_short.mp3","null","","","tone_number_task","0","26","tones/440hz_short.mp3","150","100","0","0",""
"","","","","","html-keyboard-response","40","473420","0.0-29.0-0.0","11","1","2023-10-20 17:00:16","36476ce043e716bb3956d3c52bfa015e","190.193.127.39","Mozilla/5.0 (Windows NT 10.0; Win64; x64) AppleWebKit/537.36 (KHTML, like Gecko) Chrome/118.0.0.0 Safari/537.36","WebKit","Chrome","118.0.0.0","Windows","10.0","null","es-ES,es;q=0.9","true","316","tones/440hz_short.mp3","a","","","empty_block","","26","","","","0","0",""
"","","","","","html-keyboard-response","41","474637","0.0-29.0-1.0","11","1","2023-10-20 17:00:16","36476ce043e716bb3956d3c52bfa015e","190.193.127.39","Mozilla/5.0 (Windows NT 10.0; Win64; x64) AppleWebKit/537.36 (KHTML, like Gecko) Chrome/118.0.0.0 Safari/537.36","WebKit","Chrome","118.0.0.0","Windows","10.0","null","es-ES,es;q=0.9","true","null","tones/440hz_short.mp3","null","","","empty_block","","26","","","","0","0",""
"","","","","","html-keyboard-response","42","477431","0.0-31.0","11","1","2023-10-20 17:00:16","36476ce043e716bb3956d3c52bfa015e","190.193.127.39","Mozilla/5.0 (Windows NT 10.0; Win64; x64) AppleWebKit/537.36 (KHTML, like Gecko) Chrome/118.0.0.0 Safari/537.36","WebKit","Chrome","118.0.0.0","Windows","10.0","null","es-ES,es;q=0.9","true","null","<div style=""font-size:100px;"">X</div>","null","","","fixation","","","","","","","",""
"","","","","","audio-keyboard-response","43","477587","0.0-32.0","11","1","2023-10-20 17:00:16","36476ce043e716bb3956d3c52bfa015e","190.193.127.39","Mozilla/5.0 (Windows NT 10.0; Win64; x64) AppleWebKit/537.36 (KHTML, like Gecko) Chrome/118.0.0.0 Safari/537.36","WebKit","Chrome","118.0.0.0","Windows","10.0","null","es-ES,es;q=0.9","true","null","tones/440hz_short.mp3","null","","","tone_number_task","0","22","tones/440hz_short.mp3","150","100","0","1",""
"","","","","","html-keyboard-response","44","477975","0.0-35.0-0.0","11","1","2023-10-20 17:00:16","36476ce043e716bb3956d3c52bfa015e","190.193.127.39","Mozilla/5.0 (Windows NT 10.0; Win64; x64) AppleWebKit/537.36 (KHTML, like Gecko) Chrome/118.0.0.0 Safari/537.36","WebKit","Chrome","118.0.0.0","Windows","10.0","null","es-ES,es;q=0.9","true","383","tones/440hz_short.mp3","a","","","empty_block","","22","","","","0","1",""
"","","","","","html-keyboard-response","45","478092","0.0-35.0-1.0","11","1","2023-10-20 17:00:16","36476ce043e716bb3956d3c52bfa015e","190.193.127.39","Mozilla/5.0 (Windows NT 10.0; Win64; x64) AppleWebKit/537.36 (KHTML, like Gecko) Chrome/118.0.0.0 Safari/537.36","WebKit","Chrome","118.0.0.0","Windows","10.0","null","es-ES,es;q=0.9","true","111","tones/440hz_short.mp3","j","","","empty_block","","22","","","","0","1",""
"","","","","","html-keyboard-response","46","480886","0.0-37.0","11","1","2023-10-20 17:00:16","36476ce043e716bb3956d3c52bfa015e","190.193.127.39","Mozilla/5.0 (Windows NT 10.0; Win64; x64) AppleWebKit/537.36 (KHTML, like Gecko) Chrome/118.0.0.0 Safari/537.36","WebKit","Chrome","118.0.0.0","Windows","10.0","null","es-ES,es;q=0.9","true","null","<div style=""font-size:100px;"">X</div>","null","","","fixation","","","","","","","",""
"","","","","","audio-keyboard-response","47","481413","0.0-38.0","11","1","2023-10-20 17:00:16","36476ce043e716bb3956d3c52bfa015e","190.193.127.39","Mozilla/5.0 (Windows NT 10.0; Win64; x64) AppleWebKit/537.36 (KHTML, like Gecko) Chrome/118.0.0.0 Safari/537.36","WebKit","Chrome","118.0.0.0","Windows","10.0","null","es-ES,es;q=0.9","true","520","tones/880hz_short.mp3","s","","","tone_number_task","992.5","26","tones/880hz_short.mp3","1142.5","100","0","2",""
"","","","","","html-keyboard-response","48","481907","0.0-39.0-0.0","11","1","2023-10-20 17:00:16","36476ce043e716bb3956d3c52bfa015e","190.193.127.39","Mozilla/5.0 (Windows NT 10.0; Win64; x64) AppleWebKit/537.36 (KHTML, like Gecko) Chrome/118.0.0.0 Safari/537.36","WebKit","Chrome","118.0.0.0","Windows","10.0","null","es-ES,es;q=0.9","true","null","","null","","","delay_block","","","","","","0","2",""
"","","","","","html-keyboard-response","49","482066","0.0-39.0-1.0","11","1","2023-10-20 17:00:16","36476ce043e716bb3956d3c52bfa015e","190.193.127.39","Mozilla/5.0 (Windows NT 10.0; Win64; x64) AppleWebKit/537.36 (KHTML, like Gecko) Chrome/118.0.0.0 Safari/537.36","WebKit","Chrome","118.0.0.0","Windows","10.0","null","es-ES,es;q=0.9","true","null","<p id=""stimulus"" style=""font-size:100px;"">26</p>","null","","","tone_number_task_remaining_before_delay","","26","","622.5","100","0","2",""
"","","","","","html-keyboard-response","50","482641","0.0-42.0-0.0","11","1","2023-10-20 17:00:16","36476ce043e716bb3956d3c52bfa015e","190.193.127.39","Mozilla/5.0 (Windows NT 10.0; Win64; x64) AppleWebKit/537.36 (KHTML, like Gecko) Chrome/118.0.0.0 Safari/537.36","WebKit","Chrome","118.0.0.0","Windows","10.0","null","es-ES,es;q=0.9","true","568","<p id=""stimulus"" style=""font-size:100px;"">26</p>","j","","","empty_block","","26","","","","0","2",""
"","","","","","html-keyboard-response","51","485437","0.0-43.0","11","1","2023-10-20 17:00:16","36476ce043e716bb3956d3c52bfa015e","190.193.127.39","Mozilla/5.0 (Windows NT 10.0; Win64; x64) AppleWebKit/537.36 (KHTML, like Gecko) Chrome/118.0.0.0 Safari/537.36","WebKit","Chrome","118.0.0.0","Windows","10.0","null","es-ES,es;q=0.9","true","null","<div style=""font-size:100px;"">X</div>","null","","","fixation","","","","","","","",""
"","","","","","audio-keyboard-response","52","485597","0.0-44.0","11","1","2023-10-20 17:00:16","36476ce043e716bb3956d3c52bfa015e","190.193.127.39","Mozilla/5.0 (Windows NT 10.0; Win64; x64) AppleWebKit/537.36 (KHTML, like Gecko) Chrome/118.0.0.0 Safari/537.36","WebKit","Chrome","118.0.0.0","Windows","10.0","null","es-ES,es;q=0.9","true","null","tones/880hz_short.mp3","null","","","tone_number_task","0","46","tones/880hz_short.mp3","150","100","0","3",""
"","","","","","html-keyboard-response","53","486200","0.0-47.0-0.0","11","1","2023-10-20 17:00:16","36476ce043e716bb3956d3c52bfa015e","190.193.127.39","Mozilla/5.0 (Windows NT 10.0; Win64; x64) AppleWebKit/537.36 (KHTML, like Gecko) Chrome/118.0.0.0 Safari/537.36","WebKit","Chrome","118.0.0.0","Windows","10.0","null","es-ES,es;q=0.9","true","597","tones/880hz_short.mp3","s","","","empty_block","","46","","","","0","3",""
"","","","","","html-keyboard-response","54","486543","0.0-47.0-1.0","11","1","2023-10-20 17:00:16","36476ce043e716bb3956d3c52bfa015e","190.193.127.39","Mozilla/5.0 (Windows NT 10.0; Win64; x64) AppleWebKit/537.36 (KHTML, like Gecko) Chrome/118.0.0.0 Safari/537.36","WebKit","Chrome","118.0.0.0","Windows","10.0","null","es-ES,es;q=0.9","true","340","tones/880hz_short.mp3","k","","","empty_block","","46","","","","0","3",""
"","","","","","html-keyboard-response","55","489335","0.0-49.0","11","1","2023-10-20 17:00:16","36476ce043e716bb3956d3c52bfa015e","190.193.127.39","Mozilla/5.0 (Windows NT 10.0; Win64; x64) AppleWebKit/537.36 (KHTML, like Gecko) Chrome/118.0.0.0 Safari/537.36","WebKit","Chrome","118.0.0.0","Windows","10.0","null","es-ES,es;q=0.9","true","null","<div style=""font-size:100px;"">X</div>","null","","","fixation","","","","","","","",""
"","","","","","audio-keyboard-response","56","489596","0.0-50.0","11","1","2023-10-20 17:00:16","36476ce043e716bb3956d3c52bfa015e","190.193.127.39","Mozilla/5.0 (Windows NT 10.0; Win64; x64) AppleWebKit/537.36 (KHTML, like Gecko) Chrome/118.0.0.0 Safari/537.36","WebKit","Chrome","118.0.0.0","Windows","10.0","null","es-ES,es;q=0.9","true","null","tones/880hz_short.mp3","null","","","tone_number_task","102.5","64","tones/880hz_short.mp3","252.5","100","0","4",""
"","","","","","html-keyboard-response","57","490051","0.0-53.0-0.0","11","1","2023-10-20 17:00:16","36476ce043e716bb3956d3c52bfa015e","190.193.127.39","Mozilla/5.0 (Windows NT 10.0; Win64; x64) AppleWebKit/537.36 (KHTML, like Gecko) Chrome/118.0.0.0 Safari/537.36","WebKit","Chrome","118.0.0.0","Windows","10.0","null","es-ES,es;q=0.9","true","451","tones/880hz_short.mp3","s","","","empty_block","","64","","","","0","4",""
"","","","","","html-keyboard-response","58","490191","0.0-53.0-1.0","11","1","2023-10-20 17:00:16","36476ce043e716bb3956d3c52bfa015e","190.193.127.39","Mozilla/5.0 (Windows NT 10.0; Win64; x64) AppleWebKit/537.36 (KHTML, like Gecko) Chrome/118.0.0.0 Safari/537.36","WebKit","Chrome","118.0.0.0","Windows","10.0","null","es-ES,es;q=0.9","true","137","tones/880hz_short.mp3","k","","","empty_block","","64","","","","0","4",""
"","","","","","html-keyboard-response","59","492987","0.0-55.0","11","1","2023-10-20 17:00:16","36476ce043e716bb3956d3c52bfa015e","190.193.127.39","Mozilla/5.0 (Windows NT 10.0; Win64; x64) AppleWebKit/537.36 (KHTML, like Gecko) Chrome/118.0.0.0 Safari/537.36","WebKit","Chrome","118.0.0.0","Windows","10.0","null","es-ES,es;q=0.9","true","null","<div style=""font-size:100px;"">X</div>","null","","","fixation","","","","","","","",""
"","","","","","audio-keyboard-response","60","493246","0.0-56.0","11","1","2023-10-20 17:00:16","36476ce043e716bb3956d3c52bfa015e","190.193.127.39","Mozilla/5.0 (Windows NT 10.0; Win64; x64) AppleWebKit/537.36 (KHTML, like Gecko) Chrome/118.0.0.0 Safari/537.36","WebKit","Chrome","118.0.0.0","Windows","10.0","null","es-ES,es;q=0.9","true","null","tones/880hz_short.mp3","null","","","tone_number_task","102.5","67","tones/880hz_short.mp3","252.5","100","0","5",""
"","","","","","html-keyboard-response","61","493548","0.0-59.0-0.0","11","1","2023-10-20 17:00:16","36476ce043e716bb3956d3c52bfa015e","190.193.127.39","Mozilla/5.0 (Windows NT 10.0; Win64; x64) AppleWebKit/537.36 (KHTML, like Gecko) Chrome/118.0.0.0 Safari/537.36","WebKit","Chrome","118.0.0.0","Windows","10.0","null","es-ES,es;q=0.9","true","297","tones/880hz_short.mp3","s","","","empty_block","","67","","","","0","5",""
"","","","","","html-keyboard-response","62","493659","0.0-59.0-1.0","11","1","2023-10-20 17:00:16","36476ce043e716bb3956d3c52bfa015e","190.193.127.39","Mozilla/5.0 (Windows NT 10.0; Win64; x64) AppleWebKit/537.36 (KHTML, like Gecko) Chrome/118.0.0.0 Safari/537.36","WebKit","Chrome","118.0.0.0","Windows","10.0","null","es-ES,es;q=0.9","true","109","tones/880hz_short.mp3","k","","","empty_block","","67","","","","0","5",""
"","","","","","html-keyboard-response","63","496455","0.0-61.0","11","1","2023-10-20 17:00:16","36476ce043e716bb3956d3c52bfa015e","190.193.127.39","Mozilla/5.0 (Windows NT 10.0; Win64; x64) AppleWebKit/537.36 (KHTML, like Gecko) Chrome/118.0.0.0 Safari/537.36","WebKit","Chrome","118.0.0.0","Windows","10.0","null","es-ES,es;q=0.9","true","null","<div style=""font-size:100px;"">X</div>","null","","","fixation","","","","","","","",""
"","","","","","audio-keyboard-response","64","497038","0.0-62.0","11","1","2023-10-20 17:00:16","36476ce043e716bb3956d3c52bfa015e","190.193.127.39","Mozilla/5.0 (Windows NT 10.0; Win64; x64) AppleWebKit/537.36 (KHTML, like Gecko) Chrome/118.0.0.0 Safari/537.36","WebKit","Chrome","118.0.0.0","Windows","10.0","null","es-ES,es;q=0.9","true","579","tones/880hz_short.mp3","s","","","tone_number_task","1025","67","tones/880hz_short.mp3","1175","100","0","6",""
"","","","","","html-keyboard-response","65","497490","0.0-63.0-0.0","11","1","2023-10-20 17:00:16","36476ce043e716bb3956d3c52bfa015e","190.193.127.39","Mozilla/5.0 (Windows NT 10.0; Win64; x64) AppleWebKit/537.36 (KHTML, like Gecko) Chrome/118.0.0.0 Safari/537.36","WebKit","Chrome","118.0.0.0","Windows","10.0","null","es-ES,es;q=0.9","true","null","","null","","","delay_block","","","","","","0","6",""
"","","","","","html-keyboard-response","66","497660","0.0-63.0-1.0","11","1","2023-10-20 17:00:16","36476ce043e716bb3956d3c52bfa015e","190.193.127.39","Mozilla/5.0 (Windows NT 10.0; Win64; x64) AppleWebKit/537.36 (KHTML, like Gecko) Chrome/118.0.0.0 Safari/537.36","WebKit","Chrome","118.0.0.0","Windows","10.0","null","es-ES,es;q=0.9","true","null","<p id=""stimulus"" style=""font-size:100px;"">67</p>","null","","","tone_number_task_remaining_before_delay","","67","","596","100","0","6",""
"","","","","","html-keyboard-response","67","497936","0.0-66.0-0.0","11","1","2023-10-20 17:00:16","36476ce043e716bb3956d3c52bfa015e","190.193.127.39","Mozilla/5.0 (Windows NT 10.0; Win64; x64) AppleWebKit/537.36 (KHTML, like Gecko) Chrome/118.0.0.0 Safari/537.36","WebKit","Chrome","118.0.0.0","Windows","10.0","null","es-ES,es;q=0.9","true","273","<p id=""stimulus"" style=""font-size:100px;"">67</p>","k","","","empty_block","","67","","","","0","6",""
"","","","","","html-keyboard-response","68","500734","0.0-67.0","11","1","2023-10-20 17:00:16","36476ce043e716bb3956d3c52bfa015e","190.193.127.39","Mozilla/5.0 (Windows NT 10.0; Win64; x64) AppleWebKit/537.36 (KHTML, like Gecko) Chrome/118.0.0.0 Safari/537.36","WebKit","Chrome","118.0.0.0","Windows","10.0","null","es-ES,es;q=0.9","true","null","<div style=""font-size:100px;"">X</div>","null","","","fixation","","","","","","","",""
"","","","","","audio-keyboard-response","69","501000","0.0-68.0","11","1","2023-10-20 17:00:16","36476ce043e716bb3956d3c52bfa015e","190.193.127.39","Mozilla/5.0 (Windows NT 10.0; Win64; x64) AppleWebKit/537.36 (KHTML, like Gecko) Chrome/118.0.0.0 Safari/537.36","WebKit","Chrome","118.0.0.0","Windows","10.0","null","es-ES,es;q=0.9","true","null","tones/440hz_short.mp3","null","","","tone_number_task","102.5","37","tones/440hz_short.mp3","252.5","100","0","7",""
"","","","","","html-keyboard-response","70","501150","0.0-71.0-0.0","11","1","2023-10-20 17:00:16","36476ce043e716bb3956d3c52bfa015e","190.193.127.39","Mozilla/5.0 (Windows NT 10.0; Win64; x64) AppleWebKit/537.36 (KHTML, like Gecko) Chrome/118.0.0.0 Safari/537.36","WebKit","Chrome","118.0.0.0","Windows","10.0","null","es-ES,es;q=0.9","true","143","tones/440hz_short.mp3","a","","","empty_block","","37","","","","0","7",""
"","","","","","html-keyboard-response","71","501350","0.0-71.0-1.0","11","1","2023-10-20 17:00:16","36476ce043e716bb3956d3c52bfa015e","190.193.127.39","Mozilla/5.0 (Windows NT 10.0; Win64; x64) AppleWebKit/537.36 (KHTML, like Gecko) Chrome/118.0.0.0 Safari/537.36","WebKit","Chrome","118.0.0.0","Windows","10.0","null","es-ES,es;q=0.9","true","192","tones/440hz_short.mp3","j","","","empty_block","","37","","","","0","7",""
"","","","","","html-keyboard-response","72","504145","0.0-73.0","11","1","2023-10-20 17:00:16","36476ce043e716bb3956d3c52bfa015e","190.193.127.39","Mozilla/5.0 (Windows NT 10.0; Win64; x64) AppleWebKit/537.36 (KHTML, like Gecko) Chrome/118.0.0.0 Safari/537.36","WebKit","Chrome","118.0.0.0","Windows","10.0","null","es-ES,es;q=0.9","true","null","<div style=""font-size:100px;"">X</div>","null","","","fixation","","","","","","","",""
"","","","","","audio-keyboard-response","73","504306","0.0-74.0","11","1","2023-10-20 17:00:16","36476ce043e716bb3956d3c52bfa015e","190.193.127.39","Mozilla/5.0 (Windows NT 10.0; Win64; x64) AppleWebKit/537.36 (KHTML, like Gecko) Chrome/118.0.0.0 Safari/537.36","WebKit","Chrome","118.0.0.0","Windows","10.0","null","es-ES,es;q=0.9","true","null","tones/440hz_short.mp3","null","","","tone_number_task","0","59","tones/440hz_short.mp3","150","100","0","8",""
"","","","","","html-keyboard-response","74","504558","0.0-77.0-0.0","11","1","2023-10-20 17:00:16","36476ce043e716bb3956d3c52bfa015e","190.193.127.39","Mozilla/5.0 (Windows NT 10.0; Win64; x64) AppleWebKit/537.36 (KHTML, like Gecko) Chrome/118.0.0.0 Safari/537.36","WebKit","Chrome","118.0.0.0","Windows","10.0","null","es-ES,es;q=0.9","true","245","tones/440hz_short.mp3","a","","","empty_block","","59","","","","0","8",""
"","","","","","html-keyboard-response","75","504807","0.0-77.0-1.0","11","1","2023-10-20 17:00:16","36476ce043e716bb3956d3c52bfa015e","190.193.127.39","Mozilla/5.0 (Windows NT 10.0; Win64; x64) AppleWebKit/537.36 (KHTML, like Gecko) Chrome/118.0.0.0 Safari/537.36","WebKit","Chrome","118.0.0.0","Windows","10.0","null","es-ES,es;q=0.9","true","244","tones/440hz_short.mp3","k","","","empty_block","","59","","","","0","8",""
"","","","","","html-keyboard-response","76","507617","0.0-79.0","11","1","2023-10-20 17:00:16","36476ce043e716bb3956d3c52bfa015e","190.193.127.39","Mozilla/5.0 (Windows NT 10.0; Win64; x64) AppleWebKit/537.36 (KHTML, like Gecko) Chrome/118.0.0.0 Safari/537.36","WebKit","Chrome","118.0.0.0","Windows","10.0","null","es-ES,es;q=0.9","true","null","<div style=""font-size:100px;"">X</div>","null","","","fixation","","","","","","","",""
"","","","","","audio-keyboard-response","77","507789","0.0-80.0","11","1","2023-10-20 17:00:16","36476ce043e716bb3956d3c52bfa015e","190.193.127.39","Mozilla/5.0 (Windows NT 10.0; Win64; x64) AppleWebKit/537.36 (KHTML, like Gecko) Chrome/118.0.0.0 Safari/537.36","WebKit","Chrome","118.0.0.0","Windows","10.0","null","es-ES,es;q=0.9","true","null","tones/440hz_short.mp3","null","","","tone_number_task","0","44","tones/440hz_short.mp3","150","100","0","9",""
"","","","","","html-keyboard-response","78","508153","0.0-83.0-0.0","11","1","2023-10-20 17:00:16","36476ce043e716bb3956d3c52bfa015e","190.193.127.39","Mozilla/5.0 (Windows NT 10.0; Win64; x64) AppleWebKit/537.36 (KHTML, like Gecko) Chrome/118.0.0.0 Safari/537.36","WebKit","Chrome","118.0.0.0","Windows","10.0","null","es-ES,es;q=0.9","true","358","tones/440hz_short.mp3","a","","","empty_block","","44","","","","0","9",""
"","","","","","html-keyboard-response","79","508471","0.0-83.0-1.0","11","1","2023-10-20 17:00:16","36476ce043e716bb3956d3c52bfa015e","190.193.127.39","Mozilla/5.0 (Windows NT 10.0; Win64; x64) AppleWebKit/537.36 (KHTML, like Gecko) Chrome/118.0.0.0 Safari/537.36","WebKit","Chrome","118.0.0.0","Windows","10.0","null","es-ES,es;q=0.9","true","314","tones/440hz_short.mp3","j","","","empty_block","","44","","","","0","9",""
"","","","","","html-keyboard-response","80","511264","0.0-85.0","11","1","2023-10-20 17:00:16","36476ce043e716bb3956d3c52bfa015e","190.193.127.39","Mozilla/5.0 (Windows NT 10.0; Win64; x64) AppleWebKit/537.36 (KHTML, like Gecko) Chrome/118.0.0.0 Safari/537.36","WebKit","Chrome","118.0.0.0","Windows","10.0","null","es-ES,es;q=0.9","true","null","<div style=""font-size:100px;"">X</div>","null","","","fixation","","","","","","","",""
"","","","","","audio-keyboard-response","81","511747","0.0-86.0","11","1","2023-10-20 17:00:16","36476ce043e716bb3956d3c52bfa015e","190.193.127.39","Mozilla/5.0 (Windows NT 10.0; Win64; x64) AppleWebKit/537.36 (KHTML, like Gecko) Chrome/118.0.0.0 Safari/537.36","WebKit","Chrome","118.0.0.0","Windows","10.0","null","es-ES,es;q=0.9","true","472","tones/440hz_short.mp3","a","","","tone_number_task","1025","62","tones/440hz_short.mp3","1175","100","0","10",""
"","","","","","html-keyboard-response","82","512315","0.0-87.0-0.0","11","1","2023-10-20 17:00:16","36476ce043e716bb3956d3c52bfa015e","190.193.127.39","Mozilla/5.0 (Windows NT 10.0; Win64; x64) AppleWebKit/537.36 (KHTML, like Gecko) Chrome/118.0.0.0 Safari/537.36","WebKit","Chrome","118.0.0.0","Windows","10.0","null","es-ES,es;q=0.9","true","null","","null","","","delay_block","","","","","","0","10",""
"","","","","","html-keyboard-response","83","512485","0.0-87.0-1.0","11","1","2023-10-20 17:00:16","36476ce043e716bb3956d3c52bfa015e","190.193.127.39","Mozilla/5.0 (Windows NT 10.0; Win64; x64) AppleWebKit/537.36 (KHTML, like Gecko) Chrome/118.0.0.0 Safari/537.36","WebKit","Chrome","118.0.0.0","Windows","10.0","null","es-ES,es;q=0.9","true","null","<p id=""stimulus"" style=""font-size:100px;"">62</p>","null","","","tone_number_task_remaining_before_delay","","62","","703","100","0","10",""
"","","","","","html-keyboard-response","84","512843","0.0-90.0-0.0","11","1","2023-10-20 17:00:16","36476ce043e716bb3956d3c52bfa015e","190.193.127.39","Mozilla/5.0 (Windows NT 10.0; Win64; x64) AppleWebKit/537.36 (KHTML, like Gecko) Chrome/118.0.0.0 Safari/537.36","WebKit","Chrome","118.0.0.0","Windows","10.0","null","es-ES,es;q=0.9","true","349","<p id=""stimulus"" style=""font-size:100px;"">62</p>","k","","","empty_block","","62","","","","0","10",""
"","","","","","html-keyboard-response","85","515645","0.0-91.0","11","1","2023-10-20 17:00:16","36476ce043e716bb3956d3c52bfa015e","190.193.127.39","Mozilla/5.0 (Windows NT 10.0; Win64; x64) AppleWebKit/537.36 (KHTML, like Gecko) Chrome/118.0.0.0 Safari/537.36","WebKit","Chrome","118.0.0.0","Windows","10.0","null","es-ES,es;q=0.9","true","null","<div style=""font-size:100px;"">X</div>","null","","","fixation","","","","","","","",""
"","","","","","audio-keyboard-response","86","515907","0.0-92.0","11","1","2023-10-20 17:00:16","36476ce043e716bb3956d3c52bfa015e","190.193.127.39","Mozilla/5.0 (Windows NT 10.0; Win64; x64) AppleWebKit/537.36 (KHTML, like Gecko) Chrome/118.0.0.0 Safari/537.36","WebKit","Chrome","118.0.0.0","Windows","10.0","null","es-ES,es;q=0.9","true","null","tones/880hz_short.mp3","null","","","tone_number_task","102.5","34","tones/880hz_short.mp3","252.5","100","0","11",""
"","","","","","html-keyboard-response","87","516085","0.0-95.0-0.0","11","1","2023-10-20 17:00:16","36476ce043e716bb3956d3c52bfa015e","190.193.127.39","Mozilla/5.0 (Windows NT 10.0; Win64; x64) AppleWebKit/537.36 (KHTML, like Gecko) Chrome/118.0.0.0 Safari/537.36","WebKit","Chrome","118.0.0.0","Windows","10.0","null","es-ES,es;q=0.9","true","170","tones/880hz_short.mp3","s","","","empty_block","","34","","","","0","11",""
"","","","","","html-keyboard-response","88","516352","0.0-95.0-1.0","11","1","2023-10-20 17:00:16","36476ce043e716bb3956d3c52bfa015e","190.193.127.39","Mozilla/5.0 (Windows NT 10.0; Win64; x64) AppleWebKit/537.36 (KHTML, like Gecko) Chrome/118.0.0.0 Safari/537.36","WebKit","Chrome","118.0.0.0","Windows","10.0","null","es-ES,es;q=0.9","true","260","tones/880hz_short.mp3","j","","","empty_block","","34","","","","0","11",""
"","","","","","html-keyboard-response","89","519148","0.0-97.0","11","1","2023-10-20 17:00:16","36476ce043e716bb3956d3c52bfa015e","190.193.127.39","Mozilla/5.0 (Windows NT 10.0; Win64; x64) AppleWebKit/537.36 (KHTML, like Gecko) Chrome/118.0.0.0 Safari/537.36","WebKit","Chrome","118.0.0.0","Windows","10.0","null","es-ES,es;q=0.9","true","null","<div style=""font-size:100px;"">X</div>","null","","","fixation","","","","","","","",""
"","","","","","audio-keyboard-response","90","519413","0.0-98.0","11","1","2023-10-20 17:00:16","36476ce043e716bb3956d3c52bfa015e","190.193.127.39","Mozilla/5.0 (Windows NT 10.0; Win64; x64) AppleWebKit/537.36 (KHTML, like Gecko) Chrome/118.0.0.0 Safari/537.36","WebKit","Chrome","118.0.0.0","Windows","10.0","null","es-ES,es;q=0.9","true","null","tones/880hz_short.mp3","null","","","tone_number_task","102.5","60","tones/880hz_short.mp3","252.5","100","0","12",""
"","","","","","html-keyboard-response","91","519722","0.0-101.0-0.0","11","1","2023-10-20 17:00:16","36476ce043e716bb3956d3c52bfa015e","190.193.127.39","Mozilla/5.0 (Windows NT 10.0; Win64; x64) AppleWebKit/537.36 (KHTML, like Gecko) Chrome/118.0.0.0 Safari/537.36","WebKit","Chrome","118.0.0.0","Windows","10.0","null","es-ES,es;q=0.9","true","300","tones/880hz_short.mp3","s","","","empty_block","","60","","","","0","12",""
"","","","","","html-keyboard-response","92","519956","0.0-101.0-1.0","11","1","2023-10-20 17:00:16","36476ce043e716bb3956d3c52bfa015e","190.193.127.39","Mozilla/5.0 (Windows NT 10.0; Win64; x64) AppleWebKit/537.36 (KHTML, like Gecko) Chrome/118.0.0.0 Safari/537.36","WebKit","Chrome","118.0.0.0","Windows","10.0","null","es-ES,es;q=0.9","true","226","tones/880hz_short.mp3","k","","","empty_block","","60","","","","0","12",""
"","","","","","html-keyboard-response","93","522756","0.0-103.0","11","1","2023-10-20 17:00:16","36476ce043e716bb3956d3c52bfa015e","190.193.127.39","Mozilla/5.0 (Windows NT 10.0; Win64; x64) AppleWebKit/537.36 (KHTML, like Gecko) Chrome/118.0.0.0 Safari/537.36","WebKit","Chrome","118.0.0.0","Windows","10.0","null","es-ES,es;q=0.9","true","null","<div style=""font-size:100px;"">X</div>","null","","","fixation","","","","","","","",""
"","","","","","audio-keyboard-response","94","523310","0.0-104.0","11","1","2023-10-20 17:00:16","36476ce043e716bb3956d3c52bfa015e","190.193.127.39","Mozilla/5.0 (Windows NT 10.0; Win64; x64) AppleWebKit/537.36 (KHTML, like Gecko) Chrome/118.0.0.0 Safari/537.36","WebKit","Chrome","118.0.0.0","Windows","10.0","null","es-ES,es;q=0.9","true","549","tones/440hz_short.mp3","a","","","tone_number_task","1025","26","tones/440hz_short.mp3","1175","100","0","13",""
"","","","","","html-keyboard-response","95","523808","0.0-105.0-0.0","11","1","2023-10-20 17:00:16","36476ce043e716bb3956d3c52bfa015e","190.193.127.39","Mozilla/5.0 (Windows NT 10.0; Win64; x64) AppleWebKit/537.36 (KHTML, like Gecko) Chrome/118.0.0.0 Safari/537.36","WebKit","Chrome","118.0.0.0","Windows","10.0","null","es-ES,es;q=0.9","true","null","","null","","","delay_block","","","","","","0","13",""
"","","","","","html-keyboard-response","96","523986","0.0-105.0-1.0","11","1","2023-10-20 17:00:16","36476ce043e716bb3956d3c52bfa015e","190.193.127.39","Mozilla/5.0 (Windows NT 10.0; Win64; x64) AppleWebKit/537.36 (KHTML, like Gecko) Chrome/118.0.0.0 Safari/537.36","WebKit","Chrome","118.0.0.0","Windows","10.0","null","es-ES,es;q=0.9","true","null","<p id=""stimulus"" style=""font-size:100px;"">26</p>","null","","","tone_number_task_remaining_before_delay","","26","","626","100","0","13",""
"","","","","","html-keyboard-response","97","524280","0.0-108.0-0.0","11","1","2023-10-20 17:00:16","36476ce043e716bb3956d3c52bfa015e","190.193.127.39","Mozilla/5.0 (Windows NT 10.0; Win64; x64) AppleWebKit/537.36 (KHTML, like Gecko) Chrome/118.0.0.0 Safari/537.36","WebKit","Chrome","118.0.0.0","Windows","10.0","null","es-ES,es;q=0.9","true","288","<p id=""stimulus"" style=""font-size:100px;"">26</p>","j","","","empty_block","","26","","","","0","13",""
"","","","","","html-keyboard-response","98","527083","0.0-109.0","11","1","2023-10-20 17:00:16","36476ce043e716bb3956d3c52bfa015e","190.193.127.39","Mozilla/5.0 (Windows NT 10.0; Win64; x64) AppleWebKit/537.36 (KHTML, like Gecko) Chrome/118.0.0.0 Safari/537.36","WebKit","Chrome","118.0.0.0","Windows","10.0","null","es-ES,es;q=0.9","true","null","<div style=""font-size:100px;"">X</div>","null","","","fixation","","","","","","","",""
"","","","","","audio-keyboard-response","99","527347","0.0-110.0","11","1","2023-10-20 17:00:16","36476ce043e716bb3956d3c52bfa015e","190.193.127.39","Mozilla/5.0 (Windows NT 10.0; Win64; x64) AppleWebKit/537.36 (KHTML, like Gecko) Chrome/118.0.0.0 Safari/537.36","WebKit","Chrome","118.0.0.0","Windows","10.0","null","es-ES,es;q=0.9","true","null","tones/440hz_short.mp3","null","","","tone_number_task","102.5","27","tones/440hz_short.mp3","252.5","100","0","14",""
"","","","","","html-keyboard-response","100","527857","0.0-113.0-0.0","11","1","2023-10-20 17:00:16","36476ce043e716bb3956d3c52bfa015e","190.193.127.39","Mozilla/5.0 (Windows NT 10.0; Win64; x64) AppleWebKit/537.36 (KHTML, like Gecko) Chrome/118.0.0.0 Safari/537.36","WebKit","Chrome","118.0.0.0","Windows","10.0","null","es-ES,es;q=0.9","true","502","tones/440hz_short.mp3","a","","","empty_block","","27","","","","0","14",""
"","","","","","html-keyboard-response","101","528162","0.0-113.0-1.0","11","1","2023-10-20 17:00:16","36476ce043e716bb3956d3c52bfa015e","190.193.127.39","Mozilla/5.0 (Windows NT 10.0; Win64; x64) AppleWebKit/537.36 (KHTML, like Gecko) Chrome/118.0.0.0 Safari/537.36","WebKit","Chrome","118.0.0.0","Windows","10.0","null","es-ES,es;q=0.9","true","301","tones/440hz_short.mp3","j","","","empty_block","","27","","","","0","14",""
"","","","","","html-keyboard-response","102","530956","0.0-115.0","11","1","2023-10-20 17:00:16","36476ce043e716bb3956d3c52bfa015e","190.193.127.39","Mozilla/5.0 (Windows NT 10.0; Win64; x64) AppleWebKit/537.36 (KHTML, like Gecko) Chrome/118.0.0.0 Safari/537.36","WebKit","Chrome","118.0.0.0","Windows","10.0","null","es-ES,es;q=0.9","true","null","<div style=""font-size:100px;"">X</div>","null","","","fixation","","","","","","","",""
"","","","","","audio-keyboard-response","103","531117","0.0-116.0","11","1","2023-10-20 17:00:16","36476ce043e716bb3956d3c52bfa015e","190.193.127.39","Mozilla/5.0 (Windows NT 10.0; Win64; x64) AppleWebKit/537.36 (KHTML, like Gecko) Chrome/118.0.0.0 Safari/537.36","WebKit","Chrome","118.0.0.0","Windows","10.0","null","es-ES,es;q=0.9","true","null","tones/880hz_short.mp3","null","","","tone_number_task","0","30","tones/880hz_short.mp3","150","100","0","15",""
"","","","","","html-keyboard-response","104","531946","0.0-119.0-0.0","11","1","2023-10-20 17:00:16","36476ce043e716bb3956d3c52bfa015e","190.193.127.39","Mozilla/5.0 (Windows NT 10.0; Win64; x64) AppleWebKit/537.36 (KHTML, like Gecko) Chrome/118.0.0.0 Safari/537.36","WebKit","Chrome","118.0.0.0","Windows","10.0","null","es-ES,es;q=0.9","true","820","tones/880hz_short.mp3","s","","","empty_block","","30","","","","0","15",""
"","","","","","html-keyboard-response","105","532280","0.0-119.0-1.0","11","1","2023-10-20 17:00:16","36476ce043e716bb3956d3c52bfa015e","190.193.127.39","Mozilla/5.0 (Windows NT 10.0; Win64; x64) AppleWebKit/537.36 (KHTML, like Gecko) Chrome/118.0.0.0 Safari/537.36","WebKit","Chrome","118.0.0.0","Windows","10.0","null","es-ES,es;q=0.9","true","326","tones/880hz_short.mp3","k","","","empty_block","","30","","","","0","15",""
"","","","","","html-keyboard-response","106","535078","0.0-121.0","11","1","2023-10-20 17:00:16","36476ce043e716bb3956d3c52bfa015e","190.193.127.39","Mozilla/5.0 (Windows NT 10.0; Win64; x64) AppleWebKit/537.36 (KHTML, like Gecko) Chrome/118.0.0.0 Safari/537.36","WebKit","Chrome","118.0.0.0","Windows","10.0","null","es-ES,es;q=0.9","true","null","<div style=""font-size:100px;"">X</div>","null","","","fixation","","","","","","","",""
"","","","","","audio-keyboard-response","107","535341","0.0-122.0","11","1","2023-10-20 17:00:16","36476ce043e716bb3956d3c52bfa015e","190.193.127.39","Mozilla/5.0 (Windows NT 10.0; Win64; x64) AppleWebKit/537.36 (KHTML, like Gecko) Chrome/118.0.0.0 Safari/537.36","WebKit","Chrome","118.0.0.0","Windows","10.0","null","es-ES,es;q=0.9","true","null","tones/880hz_short.mp3","null","","","tone_number_task","102.5","43","tones/880hz_short.mp3","252.5","100","0","16",""
"","","","","","html-keyboard-response","108","535629","0.0-125.0-0.0","11","1","2023-10-20 17:00:16","36476ce043e716bb3956d3c52bfa015e","190.193.127.39","Mozilla/5.0 (Windows NT 10.0; Win64; x64) AppleWebKit/537.36 (KHTML, like Gecko) Chrome/118.0.0.0 Safari/537.36","WebKit","Chrome","118.0.0.0","Windows","10.0","null","es-ES,es;q=0.9","true","283","tones/880hz_short.mp3","s","","","empty_block","","43","","","","0","16",""
"","","","","","html-keyboard-response","109","536660","0.0-125.0-1.0","11","1","2023-10-20 17:00:16","36476ce043e716bb3956d3c52bfa015e","190.193.127.39","Mozilla/5.0 (Windows NT 10.0; Win64; x64) AppleWebKit/537.36 (KHTML, like Gecko) Chrome/118.0.0.0 Safari/537.36","WebKit","Chrome","118.0.0.0","Windows","10.0","null","es-ES,es;q=0.9","true","1022","tones/880hz_short.mp3","j","","","empty_block","","43","","","","0","16",""
"","","","","","html-keyboard-response","110","539465","0.0-127.0","11","1","2023-10-20 17:00:16","36476ce043e716bb3956d3c52bfa015e","190.193.127.39","Mozilla/5.0 (Windows NT 10.0; Win64; x64) AppleWebKit/537.36 (KHTML, like Gecko) Chrome/118.0.0.0 Safari/537.36","WebKit","Chrome","118.0.0.0","Windows","10.0","null","es-ES,es;q=0.9","true","null","<div style=""font-size:100px;"">X</div>","null","","","fixation","","","","","","","",""
"","","","","","audio-keyboard-response","111","540285","0.0-128.0","11","1","2023-10-20 17:00:16","36476ce043e716bb3956d3c52bfa015e","190.193.127.39","Mozilla/5.0 (Windows NT 10.0; Win64; x64) AppleWebKit/537.36 (KHTML, like Gecko) Chrome/118.0.0.0 Safari/537.36","WebKit","Chrome","118.0.0.0","Windows","10.0","null","es-ES,es;q=0.9","true","811","tones/880hz_short.mp3","s","","","tone_number_task","992.5","62","tones/880hz_short.mp3","1142.5","100","0","17",""
"","","","","","html-keyboard-response","112","540484","0.0-129.0-0.0","11","1","2023-10-20 17:00:16","36476ce043e716bb3956d3c52bfa015e","190.193.127.39","Mozilla/5.0 (Windows NT 10.0; Win64; x64) AppleWebKit/537.36 (KHTML, like Gecko) Chrome/118.0.0.0 Safari/537.36","WebKit","Chrome","118.0.0.0","Windows","10.0","null","es-ES,es;q=0.9","true","null","","null","","","delay_block","","","","","","0","17",""
"","","","","","html-keyboard-response","113","540645","0.0-129.0-1.0","11","1","2023-10-20 17:00:16","36476ce043e716bb3956d3c52bfa015e","190.193.127.39","Mozilla/5.0 (Windows NT 10.0; Win64; x64) AppleWebKit/537.36 (KHTML, like Gecko) Chrome/118.0.0.0 Safari/537.36","WebKit","Chrome","118.0.0.0","Windows","10.0","null","es-ES,es;q=0.9","true","null","<p id=""stimulus"" style=""font-size:100px;"">62</p>","null","","","tone_number_task_remaining_before_delay","","62","","331.5","100","0","17",""
"","","","","","html-keyboard-response","114","541047","0.0-132.0-0.0","11","1","2023-10-20 17:00:16","36476ce043e716bb3956d3c52bfa015e","190.193.127.39","Mozilla/5.0 (Windows NT 10.0; Win64; x64) AppleWebKit/537.36 (KHTML, like Gecko) Chrome/118.0.0.0 Safari/537.36","WebKit","Chrome","118.0.0.0","Windows","10.0","null","es-ES,es;q=0.9","true","398","<p id=""stimulus"" style=""font-size:100px;"">62</p>","k","","","empty_block","","62","","","","0","17",""
"","","","","","html-keyboard-response","115","543851","0.0-133.0","11","1","2023-10-20 17:00:16","36476ce043e716bb3956d3c52bfa015e","190.193.127.39","Mozilla/5.0 (Windows NT 10.0; Win64; x64) AppleWebKit/537.36 (KHTML, like Gecko) Chrome/118.0.0.0 Safari/537.36","WebKit","Chrome","118.0.0.0","Windows","10.0","null","es-ES,es;q=0.9","true","null","<div style=""font-size:100px;"">X</div>","null","","","fixation","","","","","","","",""
"","","","","","audio-keyboard-response","116","544560","0.0-134.0","11","1","2023-10-20 17:00:16","36476ce043e716bb3956d3c52bfa015e","190.193.127.39","Mozilla/5.0 (Windows NT 10.0; Win64; x64) AppleWebKit/537.36 (KHTML, like Gecko) Chrome/118.0.0.0 Safari/537.36","WebKit","Chrome","118.0.0.0","Windows","10.0","null","es-ES,es;q=0.9","true","709","tones/440hz_short.mp3","a","","","tone_number_task","992.5","39","tones/440hz_short.mp3","1142.5","100","0","18",""
"","","","","","html-keyboard-response","117","544868","0.0-135.0-0.0","11","1","2023-10-20 17:00:16","36476ce043e716bb3956d3c52bfa015e","190.193.127.39","Mozilla/5.0 (Windows NT 10.0; Win64; x64) AppleWebKit/537.36 (KHTML, like Gecko) Chrome/118.0.0.0 Safari/537.36","WebKit","Chrome","118.0.0.0","Windows","10.0","null","es-ES,es;q=0.9","true","null","","null","","","delay_block","","","","","","0","18",""
"","","","","","html-keyboard-response","118","545035","0.0-135.0-1.0","11","1","2023-10-20 17:00:16","36476ce043e716bb3956d3c52bfa015e","190.193.127.39","Mozilla/5.0 (Windows NT 10.0; Win64; x64) AppleWebKit/537.36 (KHTML, like Gecko) Chrome/118.0.0.0 Safari/537.36","WebKit","Chrome","118.0.0.0","Windows","10.0","null","es-ES,es;q=0.9","true","null","<p id=""stimulus"" style=""font-size:100px;"">39</p>","null","","","tone_number_task_remaining_before_delay","","39","","433.5","100","0","18",""
"","","","","","html-keyboard-response","119","545719","0.0-138.0-0.0","11","1","2023-10-20 17:00:16","36476ce043e716bb3956d3c52bfa015e","190.193.127.39","Mozilla/5.0 (Windows NT 10.0; Win64; x64) AppleWebKit/537.36 (KHTML, like Gecko) Chrome/118.0.0.0 Safari/537.36","WebKit","Chrome","118.0.0.0","Windows","10.0","null","es-ES,es;q=0.9","true","680","<p id=""stimulus"" style=""font-size:100px;"">39</p>","j","","","empty_block","","39","","","","0","18",""
"","","","","","html-keyboard-response","120","548516","0.0-139.0","11","1","2023-10-20 17:00:16","36476ce043e716bb3956d3c52bfa015e","190.193.127.39","Mozilla/5.0 (Windows NT 10.0; Win64; x64) AppleWebKit/537.36 (KHTML, like Gecko) Chrome/118.0.0.0 Safari/537.36","WebKit","Chrome","118.0.0.0","Windows","10.0","null","es-ES,es;q=0.9","true","null","<div style=""font-size:100px;"">X</div>","null","","","fixation","","","","","","","",""
"","","","","","audio-keyboard-response","121","549301","0.0-140.0","11","1","2023-10-20 17:00:16","36476ce043e716bb3956d3c52bfa015e","190.193.127.39","Mozilla/5.0 (Windows NT 10.0; Win64; x64) AppleWebKit/537.36 (KHTML, like Gecko) Chrome/118.0.0.0 Safari/537.36","WebKit","Chrome","118.0.0.0","Windows","10.0","null","es-ES,es;q=0.9","true","781","tones/440hz_short.mp3","a","","","tone_number_task","1025","55","tones/440hz_short.mp3","1175","100","0","19",""
"","","","","","html-keyboard-response","122","549555","0.0-141.0-0.0","11","1","2023-10-20 17:00:16","36476ce043e716bb3956d3c52bfa015e","190.193.127.39","Mozilla/5.0 (Windows NT 10.0; Win64; x64) AppleWebKit/537.36 (KHTML, like Gecko) Chrome/118.0.0.0 Safari/537.36","WebKit","Chrome","118.0.0.0","Windows","10.0","null","es-ES,es;q=0.9","true","null","","null","","","delay_block","","","","","","0","19",""
"","","","","","html-keyboard-response","123","549731","0.0-141.0-1.0","11","1","2023-10-20 17:00:16","36476ce043e716bb3956d3c52bfa015e","190.193.127.39","Mozilla/5.0 (Windows NT 10.0; Win64; x64) AppleWebKit/537.36 (KHTML, like Gecko) Chrome/118.0.0.0 Safari/537.36","WebKit","Chrome","118.0.0.0","Windows","10.0","null","es-ES,es;q=0.9","true","null","<p id=""stimulus"" style=""font-size:100px;"">55</p>","null","","","tone_number_task_remaining_before_delay","","55","","394","100","0","19",""
"","","","","","html-keyboard-response","124","550154","0.0-144.0-0.0","11","1","2023-10-20 17:00:16","36476ce043e716bb3956d3c52bfa015e","190.193.127.39","Mozilla/5.0 (Windows NT 10.0; Win64; x64) AppleWebKit/537.36 (KHTML, like Gecko) Chrome/118.0.0.0 Safari/537.36","WebKit","Chrome","118.0.0.0","Windows","10.0","null","es-ES,es;q=0.9","true","408","<p id=""stimulus"" style=""font-size:100px;"">55</p>","k","","","empty_block","","55","","","","0","19",""
"","","","","","html-keyboard-response","125","552966","0.0-145.0","11","1","2023-10-20 17:00:16","36476ce043e716bb3956d3c52bfa015e","190.193.127.39","Mozilla/5.0 (Windows NT 10.0; Win64; x64) AppleWebKit/537.36 (KHTML, like Gecko) Chrome/118.0.0.0 Safari/537.36","WebKit","Chrome","118.0.0.0","Windows","10.0","null","es-ES,es;q=0.9","true","null","<div style=""font-size:100px;"">X</div>","null","","","fixation","","","","","","","",""
"","","","","","audio-keyboard-response","126","553469","0.0-146.0","11","1","2023-10-20 17:00:16","36476ce043e716bb3956d3c52bfa015e","190.193.127.39","Mozilla/5.0 (Windows NT 10.0; Win64; x64) AppleWebKit/537.36 (KHTML, like Gecko) Chrome/118.0.0.0 Safari/537.36","WebKit","Chrome","118.0.0.0","Windows","10.0","null","es-ES,es;q=0.9","true","491","tones/880hz_short.mp3","s","","","tone_number_task","1025","25","tones/880hz_short.mp3","1175","100","0","20",""
"","","","","","html-keyboard-response","127","554015","0.0-147.0-0.0","11","1","2023-10-20 17:00:16","36476ce043e716bb3956d3c52bfa015e","190.193.127.39","Mozilla/5.0 (Windows NT 10.0; Win64; x64) AppleWebKit/537.36 (KHTML, like Gecko) Chrome/118.0.0.0 Safari/537.36","WebKit","Chrome","118.0.0.0","Windows","10.0","null","es-ES,es;q=0.9","true","null","","null","","","delay_block","","","","","","0","20",""
"","","","","","html-keyboard-response","128","554179","0.0-147.0-1.0","11","1","2023-10-20 17:00:16","36476ce043e716bb3956d3c52bfa015e","190.193.127.39","Mozilla/5.0 (Windows NT 10.0; Win64; x64) AppleWebKit/537.36 (KHTML, like Gecko) Chrome/118.0.0.0 Safari/537.36","WebKit","Chrome","118.0.0.0","Windows","10.0","null","es-ES,es;q=0.9","true","null","<p id=""stimulus"" style=""font-size:100px;"">25</p>","null","","","tone_number_task_remaining_before_delay","","25","","684","100","0","20",""
"","","","","","html-keyboard-response","129","554527","0.0-150.0-0.0","11","1","2023-10-20 17:00:16","36476ce043e716bb3956d3c52bfa015e","190.193.127.39","Mozilla/5.0 (Windows NT 10.0; Win64; x64) AppleWebKit/537.36 (KHTML, like Gecko) Chrome/118.0.0.0 Safari/537.36","WebKit","Chrome","118.0.0.0","Windows","10.0","null","es-ES,es;q=0.9","true","340","<p id=""stimulus"" style=""font-size:100px;"">25</p>","j","","","empty_block","","25","","","","0","20",""
"","","","","","html-keyboard-response","130","557326","0.0-151.0","11","1","2023-10-20 17:00:16","36476ce043e716bb3956d3c52bfa015e","190.193.127.39","Mozilla/5.0 (Windows NT 10.0; Win64; x64) AppleWebKit/537.36 (KHTML, like Gecko) Chrome/118.0.0.0 Safari/537.36","WebKit","Chrome","118.0.0.0","Windows","10.0","null","es-ES,es;q=0.9","true","null","<div style=""font-size:100px;"">X</div>","null","","","fixation","","","","","","","",""
"","","","","","audio-keyboard-response","131","557496","0.0-152.0","11","1","2023-10-20 17:00:16","36476ce043e716bb3956d3c52bfa015e","190.193.127.39","Mozilla/5.0 (Windows NT 10.0; Win64; x64) AppleWebKit/537.36 (KHTML, like Gecko) Chrome/118.0.0.0 Safari/537.36","WebKit","Chrome","118.0.0.0","Windows","10.0","null","es-ES,es;q=0.9","true","null","tones/880hz_short.mp3","null","","","tone_number_task","0","66","tones/880hz_short.mp3","150","100","0","21",""
"","","","","","html-keyboard-response","132","557838","0.0-155.0-0.0","11","1","2023-10-20 17:00:16","36476ce043e716bb3956d3c52bfa015e","190.193.127.39","Mozilla/5.0 (Windows NT 10.0; Win64; x64) AppleWebKit/537.36 (KHTML, like Gecko) Chrome/118.0.0.0 Safari/537.36","WebKit","Chrome","118.0.0.0","Windows","10.0","null","es-ES,es;q=0.9","true","335","tones/880hz_short.mp3","s","","","empty_block","","66","","","","0","21",""
"","","","","","html-keyboard-response","133","558133","0.0-155.0-1.0","11","1","2023-10-20 17:00:16","36476ce043e716bb3956d3c52bfa015e","190.193.127.39","Mozilla/5.0 (Windows NT 10.0; Win64; x64) AppleWebKit/537.36 (KHTML, like Gecko) Chrome/118.0.0.0 Safari/537.36","WebKit","Chrome","118.0.0.0","Windows","10.0","null","es-ES,es;q=0.9","true","291","tones/880hz_short.mp3","k","","","empty_block","","66","","","","0","21",""
"","","","","","html-keyboard-response","134","560945","0.0-157.0","11","1","2023-10-20 17:00:16","36476ce043e716bb3956d3c52bfa015e","190.193.127.39","Mozilla/5.0 (Windows NT 10.0; Win64; x64) AppleWebKit/537.36 (KHTML, like Gecko) Chrome/118.0.0.0 Safari/537.36","WebKit","Chrome","118.0.0.0","Windows","10.0","null","es-ES,es;q=0.9","true","null","<div style=""font-size:100px;"">X</div>","null","","","fixation","","","","","","","",""
"","","","","","audio-keyboard-response","135","561554","0.0-158.0","11","1","2023-10-20 17:00:16","36476ce043e716bb3956d3c52bfa015e","190.193.127.39","Mozilla/5.0 (Windows NT 10.0; Win64; x64) AppleWebKit/537.36 (KHTML, like Gecko) Chrome/118.0.0.0 Safari/537.36","WebKit","Chrome","118.0.0.0","Windows","10.0","null","es-ES,es;q=0.9","true","600","tones/440hz_short.mp3","a","","","tone_number_task","992.5","33","tones/440hz_short.mp3","1142.5","100","0","22",""
"","","","","","html-keyboard-response","136","561964","0.0-159.0-0.0","11","1","2023-10-20 17:00:16","36476ce043e716bb3956d3c52bfa015e","190.193.127.39","Mozilla/5.0 (Windows NT 10.0; Win64; x64) AppleWebKit/537.36 (KHTML, like Gecko) Chrome/118.0.0.0 Safari/537.36","WebKit","Chrome","118.0.0.0","Windows","10.0","null","es-ES,es;q=0.9","true","null","","null","","","delay_block","","","","","","0","22",""
"","","","","","html-keyboard-response","137","562126","0.0-159.0-1.0","11","1","2023-10-20 17:00:16","36476ce043e716bb3956d3c52bfa015e","190.193.127.39","Mozilla/5.0 (Windows NT 10.0; Win64; x64) AppleWebKit/537.36 (KHTML, like Gecko) Chrome/118.0.0.0 Safari/537.36","WebKit","Chrome","118.0.0.0","Windows","10.0","null","es-ES,es;q=0.9","true","null","<p id=""stimulus"" style=""font-size:100px;"">33</p>","null","","","tone_number_task_remaining_before_delay","","33","","542.5","100","0","22",""
"","","","","","html-keyboard-response","138","562584","0.0-162.0-0.0","11","1","2023-10-20 17:00:16","36476ce043e716bb3956d3c52bfa015e","190.193.127.39","Mozilla/5.0 (Windows NT 10.0; Win64; x64) AppleWebKit/537.36 (KHTML, like Gecko) Chrome/118.0.0.0 Safari/537.36","WebKit","Chrome","118.0.0.0","Windows","10.0","null","es-ES,es;q=0.9","true","448","<p id=""stimulus"" style=""font-size:100px;"">33</p>","j","","","empty_block","","33","","","","0","22",""
"","","","","","html-keyboard-response","139","565396","0.0-163.0","11","1","2023-10-20 17:00:16","36476ce043e716bb3956d3c52bfa015e","190.193.127.39","Mozilla/5.0 (Windows NT 10.0; Win64; x64) AppleWebKit/537.36 (KHTML, like Gecko) Chrome/118.0.0.0 Safari/537.36","WebKit","Chrome","118.0.0.0","Windows","10.0","null","es-ES,es;q=0.9","true","null","<div style=""font-size:100px;"">X</div>","null","","","fixation","","","","","","","",""
"","","","","","audio-keyboard-response","140","566060","0.0-164.0","11","1","2023-10-20 17:00:16","36476ce043e716bb3956d3c52bfa015e","190.193.127.39","Mozilla/5.0 (Windows NT 10.0; Win64; x64) AppleWebKit/537.36 (KHTML, like Gecko) Chrome/118.0.0.0 Safari/537.36","WebKit","Chrome","118.0.0.0","Windows","10.0","null","es-ES,es;q=0.9","true","661","tones/440hz_short.mp3","a","","","tone_number_task","1025","48","tones/440hz_short.mp3","1175","100","0","23",""
"","","","","","html-keyboard-response","141","566436","0.0-165.0-0.0","11","1","2023-10-20 17:00:16","36476ce043e716bb3956d3c52bfa015e","190.193.127.39","Mozilla/5.0 (Windows NT 10.0; Win64; x64) AppleWebKit/537.36 (KHTML, like Gecko) Chrome/118.0.0.0 Safari/537.36","WebKit","Chrome","118.0.0.0","Windows","10.0","null","es-ES,es;q=0.9","true","null","","null","","","delay_block","","","","","","0","23",""
"","","","","","html-keyboard-response","142","566599","0.0-165.0-1.0","11","1","2023-10-20 17:00:16","36476ce043e716bb3956d3c52bfa015e","190.193.127.39","Mozilla/5.0 (Windows NT 10.0; Win64; x64) AppleWebKit/537.36 (KHTML, like Gecko) Chrome/118.0.0.0 Safari/537.36","WebKit","Chrome","118.0.0.0","Windows","10.0","null","es-ES,es;q=0.9","true","null","<p id=""stimulus"" style=""font-size:100px;"">48</p>","null","","","tone_number_task_remaining_before_delay","","48","","514","100","0","23",""
"","","","","","html-keyboard-response","143","567108","0.0-168.0-0.0","11","1","2023-10-20 17:00:16","36476ce043e716bb3956d3c52bfa015e","190.193.127.39","Mozilla/5.0 (Windows NT 10.0; Win64; x64) AppleWebKit/537.36 (KHTML, like Gecko) Chrome/118.0.0.0 Safari/537.36","WebKit","Chrome","118.0.0.0","Windows","10.0","null","es-ES,es;q=0.9","true","500","<p id=""stimulus"" style=""font-size:100px;"">48</p>","k","","","empty_block","","48","","","","0","23",""
"","","","","","html-keyboard-response","144","569906","0.0-169.0","11","1","2023-10-20 17:00:16","36476ce043e716bb3956d3c52bfa015e","190.193.127.39","Mozilla/5.0 (Windows NT 10.0; Win64; x64) AppleWebKit/537.36 (KHTML, like Gecko) Chrome/118.0.0.0 Safari/537.36","WebKit","Chrome","118.0.0.0","Windows","10.0","null","es-ES,es;q=0.9","true","null","<div style=""font-size:100px;"">X</div>","null","","","fixation","","","","","","","",""
"","","","","","audio-keyboard-response","145","570500","0.0-170.0","11","1","2023-10-20 17:00:16","36476ce043e716bb3956d3c52bfa015e","190.193.127.39","Mozilla/5.0 (Windows NT 10.0; Win64; x64) AppleWebKit/537.36 (KHTML, like Gecko) Chrome/118.0.0.0 Safari/537.36","WebKit","Chrome","118.0.0.0","Windows","10.0","null","es-ES,es;q=0.9","true","581","tones/440hz_short.mp3","a","","","tone_number_task","1025","62","tones/440hz_short.mp3","1175","100","0","24",""
"","","","","","html-keyboard-response","146","570965","0.0-171.0-0.0","11","1","2023-10-20 17:00:16","36476ce043e716bb3956d3c52bfa015e","190.193.127.39","Mozilla/5.0 (Windows NT 10.0; Win64; x64) AppleWebKit/537.36 (KHTML, like Gecko) Chrome/118.0.0.0 Safari/537.36","WebKit","Chrome","118.0.0.0","Windows","10.0","null","es-ES,es;q=0.9","true","null","","null","","","delay_block","","","","","","0","24",""
"","","","","","html-keyboard-response","147","571136","0.0-171.0-1.0","11","1","2023-10-20 17:00:16","36476ce043e716bb3956d3c52bfa015e","190.193.127.39","Mozilla/5.0 (Windows NT 10.0; Win64; x64) AppleWebKit/537.36 (KHTML, like Gecko) Chrome/118.0.0.0 Safari/537.36","WebKit","Chrome","118.0.0.0","Windows","10.0","null","es-ES,es;q=0.9","true","null","<p id=""stimulus"" style=""font-size:100px;"">62</p>","null","","","tone_number_task_remaining_before_delay","","62","","594","100","0","24",""
"","","","","","html-keyboard-response","148","571454","0.0-174.0-0.0","11","1","2023-10-20 17:00:16","36476ce043e716bb3956d3c52bfa015e","190.193.127.39","Mozilla/5.0 (Windows NT 10.0; Win64; x64) AppleWebKit/537.36 (KHTML, like Gecko) Chrome/118.0.0.0 Safari/537.36","WebKit","Chrome","118.0.0.0","Windows","10.0","null","es-ES,es;q=0.9","true","309","<p id=""stimulus"" style=""font-size:100px;"">62</p>","k","","","empty_block","","62","","","","0","24",""
"","","","","","html-keyboard-response","149","574256","0.0-175.0","11","1","2023-10-20 17:00:16","36476ce043e716bb3956d3c52bfa015e","190.193.127.39","Mozilla/5.0 (Windows NT 10.0; Win64; x64) AppleWebKit/537.36 (KHTML, like Gecko) Chrome/118.0.0.0 Safari/537.36","WebKit","Chrome","118.0.0.0","Windows","10.0","null","es-ES,es;q=0.9","true","null","<div style=""font-size:100px;"">X</div>","null","","","fixation","","","","","","","",""
"","","","","","audio-keyboard-response","150","574525","0.0-176.0","11","1","2023-10-20 17:00:16","36476ce043e716bb3956d3c52bfa015e","190.193.127.39","Mozilla/5.0 (Windows NT 10.0; Win64; x64) AppleWebKit/537.36 (KHTML, like Gecko) Chrome/118.0.0.0 Safari/537.36","WebKit","Chrome","118.0.0.0","Windows","10.0","null","es-ES,es;q=0.9","true","null","tones/880hz_short.mp3","null","","","tone_number_task","102.5","59","tones/880hz_short.mp3","252.5","100","0","25",""
"","","","","","html-keyboard-response","151","574914","0.0-179.0-0.0","11","1","2023-10-20 17:00:16","36476ce043e716bb3956d3c52bfa015e","190.193.127.39","Mozilla/5.0 (Windows NT 10.0; Win64; x64) AppleWebKit/537.36 (KHTML, like Gecko) Chrome/118.0.0.0 Safari/537.36","WebKit","Chrome","118.0.0.0","Windows","10.0","null","es-ES,es;q=0.9","true","380","tones/880hz_short.mp3","s","","","empty_block","","59","","","","0","25",""
"","","","","","html-keyboard-response","152","575183","0.0-179.0-1.0","11","1","2023-10-20 17:00:16","36476ce043e716bb3956d3c52bfa015e","190.193.127.39","Mozilla/5.0 (Windows NT 10.0; Win64; x64) AppleWebKit/537.36 (KHTML, like Gecko) Chrome/118.0.0.0 Safari/537.36","WebKit","Chrome","118.0.0.0","Windows","10.0","null","es-ES,es;q=0.9","true","263","tones/880hz_short.mp3","k","","","empty_block","","59","","","","0","25",""
"","","","","","html-keyboard-response","153","577985","0.0-181.0","11","1","2023-10-20 17:00:16","36476ce043e716bb3956d3c52bfa015e","190.193.127.39","Mozilla/5.0 (Windows NT 10.0; Win64; x64) AppleWebKit/537.36 (KHTML, like Gecko) Chrome/118.0.0.0 Safari/537.36","WebKit","Chrome","118.0.0.0","Windows","10.0","null","es-ES,es;q=0.9","true","null","<div style=""font-size:100px;"">X</div>","null","","","fixation","","","","","","","",""
"","","","","","audio-keyboard-response","154","578423","0.0-182.0","11","1","2023-10-20 17:00:16","36476ce043e716bb3956d3c52bfa015e","190.193.127.39","Mozilla/5.0 (Windows NT 10.0; Win64; x64) AppleWebKit/537.36 (KHTML, like Gecko) Chrome/118.0.0.0 Safari/537.36","WebKit","Chrome","118.0.0.0","Windows","10.0","null","es-ES,es;q=0.9","true","432","tones/880hz_short.mp3","s","","","tone_number_task","992.5","30","tones/880hz_short.mp3","1142.5","100","0","26",""
"","","","","","html-keyboard-response","155","578995","0.0-183.0-0.0","11","1","2023-10-20 17:00:16","36476ce043e716bb3956d3c52bfa015e","190.193.127.39","Mozilla/5.0 (Windows NT 10.0; Win64; x64) AppleWebKit/537.36 (KHTML, like Gecko) Chrome/118.0.0.0 Safari/537.36","WebKit","Chrome","118.0.0.0","Windows","10.0","null","es-ES,es;q=0.9","true","null","","null","","","delay_block","","","","","","0","26",""
"","","","","","html-keyboard-response","156","579157","0.0-183.0-1.0","11","1","2023-10-20 17:00:16","36476ce043e716bb3956d3c52bfa015e","190.193.127.39","Mozilla/5.0 (Windows NT 10.0; Win64; x64) AppleWebKit/537.36 (KHTML, like Gecko) Chrome/118.0.0.0 Safari/537.36","WebKit","Chrome","118.0.0.0","Windows","10.0","null","es-ES,es;q=0.9","true","null","<p id=""stimulus"" style=""font-size:100px;"">30</p>","null","","","tone_number_task_remaining_before_delay","","30","","710.5","100","0","26",""
"","","","","","html-keyboard-response","157","579588","0.0-186.0-0.0","11","1","2023-10-20 17:00:16","36476ce043e716bb3956d3c52bfa015e","190.193.127.39","Mozilla/5.0 (Windows NT 10.0; Win64; x64) AppleWebKit/537.36 (KHTML, like Gecko) Chrome/118.0.0.0 Safari/537.36","WebKit","Chrome","118.0.0.0","Windows","10.0","null","es-ES,es;q=0.9","true","414","<p id=""stimulus"" style=""font-size:100px;"">30</p>","j","","","empty_block","","30","","","","0","26",""
"","","","","","html-keyboard-response","158","582393","0.0-187.0","11","1","2023-10-20 17:00:16","36476ce043e716bb3956d3c52bfa015e","190.193.127.39","Mozilla/5.0 (Windows NT 10.0; Win64; x64) AppleWebKit/537.36 (KHTML, like Gecko) Chrome/118.0.0.0 Safari/537.36","WebKit","Chrome","118.0.0.0","Windows","10.0","null","es-ES,es;q=0.9","true","null","<div style=""font-size:100px;"">X</div>","null","","","fixation","","","","","","","",""
"","","","","","audio-keyboard-response","159","582555","0.0-188.0","11","1","2023-10-20 17:00:16","36476ce043e716bb3956d3c52bfa015e","190.193.127.39","Mozilla/5.0 (Windows NT 10.0; Win64; x64) AppleWebKit/537.36 (KHTML, like Gecko) Chrome/118.0.0.0 Safari/537.36","WebKit","Chrome","118.0.0.0","Windows","10.0","null","es-ES,es;q=0.9","true","null","tones/440hz_short.mp3","null","","","tone_number_task","0","59","tones/440hz_short.mp3","150","100","0","27",""
"","","","","","html-keyboard-response","160","583071","0.0-191.0-0.0","11","1","2023-10-20 17:00:16","36476ce043e716bb3956d3c52bfa015e","190.193.127.39","Mozilla/5.0 (Windows NT 10.0; Win64; x64) AppleWebKit/537.36 (KHTML, like Gecko) Chrome/118.0.0.0 Safari/537.36","WebKit","Chrome","118.0.0.0","Windows","10.0","null","es-ES,es;q=0.9","true","508","tones/440hz_short.mp3","a","","","empty_block","","59","","","","0","27",""
"","","","","","html-keyboard-response","161","583254","0.0-191.0-1.0","11","1","2023-10-20 17:00:16","36476ce043e716bb3956d3c52bfa015e","190.193.127.39","Mozilla/5.0 (Windows NT 10.0; Win64; x64) AppleWebKit/537.36 (KHTML, like Gecko) Chrome/118.0.0.0 Safari/537.36","WebKit","Chrome","118.0.0.0","Windows","10.0","null","es-ES,es;q=0.9","true","167","tones/440hz_short.mp3","k","","","empty_block","","59","","","","0","27",""
"","","","","","html-keyboard-response","162","586063","0.0-193.0","11","1","2023-10-20 17:00:16","36476ce043e716bb3956d3c52bfa015e","190.193.127.39","Mozilla/5.0 (Windows NT 10.0; Win64; x64) AppleWebKit/537.36 (KHTML, like Gecko) Chrome/118.0.0.0 Safari/537.36","WebKit","Chrome","118.0.0.0","Windows","10.0","null","es-ES,es;q=0.9","true","null","<div style=""font-size:100px;"">X</div>","null","","","fixation","","","","","","","",""
"","","","","","audio-keyboard-response","163","586336","0.0-194.0","11","1","2023-10-20 17:00:16","36476ce043e716bb3956d3c52bfa015e","190.193.127.39","Mozilla/5.0 (Windows NT 10.0; Win64; x64) AppleWebKit/537.36 (KHTML, like Gecko) Chrome/118.0.0.0 Safari/537.36","WebKit","Chrome","118.0.0.0","Windows","10.0","null","es-ES,es;q=0.9","true","null","tones/880hz_short.mp3","null","","","tone_number_task","102.5","55","tones/880hz_short.mp3","252.5","100","0","28",""
"","","","","","html-keyboard-response","164","586993","0.0-197.0-0.0","11","1","2023-10-20 17:00:16","36476ce043e716bb3956d3c52bfa015e","190.193.127.39","Mozilla/5.0 (Windows NT 10.0; Win64; x64) AppleWebKit/537.36 (KHTML, like Gecko) Chrome/118.0.0.0 Safari/537.36","WebKit","Chrome","118.0.0.0","Windows","10.0","null","es-ES,es;q=0.9","true","644","tones/880hz_short.mp3","s","","","empty_block","","55","","","","0","28",""
"","","","","","html-keyboard-response","165","587237","0.0-197.0-1.0","11","1","2023-10-20 17:00:16","36476ce043e716bb3956d3c52bfa015e","190.193.127.39","Mozilla/5.0 (Windows NT 10.0; Win64; x64) AppleWebKit/537.36 (KHTML, like Gecko) Chrome/118.0.0.0 Safari/537.36","WebKit","Chrome","118.0.0.0","Windows","10.0","null","es-ES,es;q=0.9","true","223","tones/880hz_short.mp3","k","","","empty_block","","55","","","","0","28",""
"","","","","","html-keyboard-response","166","590042","0.0-199.0","11","1","2023-10-20 17:00:16","36476ce043e716bb3956d3c52bfa015e","190.193.127.39","Mozilla/5.0 (Windows NT 10.0; Win64; x64) AppleWebKit/537.36 (KHTML, like Gecko) Chrome/118.0.0.0 Safari/537.36","WebKit","Chrome","118.0.0.0","Windows","10.0","null","es-ES,es;q=0.9","true","null","<div style=""font-size:100px;"">X</div>","null","","","fixation","","","","","","","",""
"","","","","","audio-keyboard-response","167","590520","0.0-200.0","11","1","2023-10-20 17:00:16","36476ce043e716bb3956d3c52bfa015e","190.193.127.39","Mozilla/5.0 (Windows NT 10.0; Win64; x64) AppleWebKit/537.36 (KHTML, like Gecko) Chrome/118.0.0.0 Safari/537.36","WebKit","Chrome","118.0.0.0","Windows","10.0","null","es-ES,es;q=0.9","true","469","tones/880hz_short.mp3","s","","","tone_number_task","1025","54","tones/880hz_short.mp3","1175","100","0","29",""
"","","","","","html-keyboard-response","168","591094","0.0-201.0-0.0","11","1","2023-10-20 17:00:16","36476ce043e716bb3956d3c52bfa015e","190.193.127.39","Mozilla/5.0 (Windows NT 10.0; Win64; x64) AppleWebKit/537.36 (KHTML, like Gecko) Chrome/118.0.0.0 Safari/537.36","WebKit","Chrome","118.0.0.0","Windows","10.0","null","es-ES,es;q=0.9","true","null","","null","","","delay_block","","","","","","0","29",""
"","","","","","html-keyboard-response","169","591256","0.0-201.0-1.0","11","1","2023-10-20 17:00:16","36476ce043e716bb3956d3c52bfa015e","190.193.127.39","Mozilla/5.0 (Windows NT 10.0; Win64; x64) AppleWebKit/537.36 (KHTML, like Gecko) Chrome/118.0.0.0 Safari/537.36","WebKit","Chrome","118.0.0.0","Windows","10.0","null","es-ES,es;q=0.9","true","null","<p id=""stimulus"" style=""font-size:100px;"">54</p>","null","","","tone_number_task_remaining_before_delay","","54","","706","100","0","29",""
"","","","","","html-keyboard-response","170","591789","0.0-204.0-0.0","11","1","2023-10-20 17:00:16","36476ce043e716bb3956d3c52bfa015e","190.193.127.39","Mozilla/5.0 (Windows NT 10.0; Win64; x64) AppleWebKit/537.36 (KHTML, like Gecko) Chrome/118.0.0.0 Safari/537.36","WebKit","Chrome","118.0.0.0","Windows","10.0","null","es-ES,es;q=0.9","true","529","<p id=""stimulus"" style=""font-size:100px;"">54</p>","k","","","empty_block","","54","","","","0","29",""
"","","","","","html-keyboard-response","171","594592","0.0-205.0","11","1","2023-10-20 17:00:16","36476ce043e716bb3956d3c52bfa015e","190.193.127.39","Mozilla/5.0 (Windows NT 10.0; Win64; x64) AppleWebKit/537.36 (KHTML, like Gecko) Chrome/118.0.0.0 Safari/537.36","WebKit","Chrome","118.0.0.0","Windows","10.0","null","es-ES,es;q=0.9","true","null","<div style=""font-size:100px;"">X</div>","null","","","fixation","","","","","","","",""
"","","","","","audio-keyboard-response","172","595114","0.0-206.0","11","1","2023-10-20 17:00:16","36476ce043e716bb3956d3c52bfa015e","190.193.127.39","Mozilla/5.0 (Windows NT 10.0; Win64; x64) AppleWebKit/537.36 (KHTML, like Gecko) Chrome/118.0.0.0 Safari/537.36","WebKit","Chrome","118.0.0.0","Windows","10.0","null","es-ES,es;q=0.9","true","509","tones/440hz_short.mp3","a","","","tone_number_task","992.5","31","tones/440hz_short.mp3","1142.5","100","0","30",""
"","","","","","html-keyboard-response","173","595605","0.0-207.0-0.0","11","1","2023-10-20 17:00:16","36476ce043e716bb3956d3c52bfa015e","190.193.127.39","Mozilla/5.0 (Windows NT 10.0; Win64; x64) AppleWebKit/537.36 (KHTML, like Gecko) Chrome/118.0.0.0 Safari/537.36","WebKit","Chrome","118.0.0.0","Windows","10.0","null","es-ES,es;q=0.9","true","null","","null","","","delay_block","","","","","","0","30",""
"","","","","","html-keyboard-response","174","595763","0.0-207.0-1.0","11","1","2023-10-20 17:00:16","36476ce043e716bb3956d3c52bfa015e","190.193.127.39","Mozilla/5.0 (Windows NT 10.0; Win64; x64) AppleWebKit/537.36 (KHTML, like Gecko) Chrome/118.0.0.0 Safari/537.36","WebKit","Chrome","118.0.0.0","Windows","10.0","null","es-ES,es;q=0.9","true","null","<p id=""stimulus"" style=""font-size:100px;"">31</p>","null","","","tone_number_task_remaining_before_delay","","31","","633.5","100","0","30",""
"","","","","","html-keyboard-response","175","596049","0.0-210.0-0.0","11","1","2023-10-20 17:00:16","36476ce043e716bb3956d3c52bfa015e","190.193.127.39","Mozilla/5.0 (Windows NT 10.0; Win64; x64) AppleWebKit/537.36 (KHTML, like Gecko) Chrome/118.0.0.0 Safari/537.36","WebKit","Chrome","118.0.0.0","Windows","10.0","null","es-ES,es;q=0.9","true","282","<p id=""stimulus"" style=""font-size:100px;"">31</p>","j","","","empty_block","","31","","","","0","30",""
"","","","","","html-keyboard-response","176","598856","0.0-211.0","11","1","2023-10-20 17:00:16","36476ce043e716bb3956d3c52bfa015e","190.193.127.39","Mozilla/5.0 (Windows NT 10.0; Win64; x64) AppleWebKit/537.36 (KHTML, like Gecko) Chrome/118.0.0.0 Safari/537.36","WebKit","Chrome","118.0.0.0","Windows","10.0","null","es-ES,es;q=0.9","true","null","<div style=""font-size:100px;"">X</div>","null","","","fixation","","","","","","","",""
"","","","","","audio-keyboard-response","177","599029","0.0-212.0","11","1","2023-10-20 17:00:16","36476ce043e716bb3956d3c52bfa015e","190.193.127.39","Mozilla/5.0 (Windows NT 10.0; Win64; x64) AppleWebKit/537.36 (KHTML, like Gecko) Chrome/118.0.0.0 Safari/537.36","WebKit","Chrome","118.0.0.0","Windows","10.0","null","es-ES,es;q=0.9","true","null","tones/440hz_short.mp3","null","","","tone_number_task","0","22","tones/440hz_short.mp3","150","100","0","31",""
"","","","","","html-keyboard-response","178","599851","0.0-215.0-0.0","11","1","2023-10-20 17:00:16","36476ce043e716bb3956d3c52bfa015e","190.193.127.39","Mozilla/5.0 (Windows NT 10.0; Win64; x64) AppleWebKit/537.36 (KHTML, like Gecko) Chrome/118.0.0.0 Safari/537.36","WebKit","Chrome","118.0.0.0","Windows","10.0","null","es-ES,es;q=0.9","true","814","tones/440hz_short.mp3","a","","","empty_block","","22","","","","0","31",""
"","","","","","html-keyboard-response","179","599951","0.0-215.0-1.0","11","1","2023-10-20 17:00:16","36476ce043e716bb3956d3c52bfa015e","190.193.127.39","Mozilla/5.0 (Windows NT 10.0; Win64; x64) AppleWebKit/537.36 (KHTML, like Gecko) Chrome/118.0.0.0 Safari/537.36","WebKit","Chrome","118.0.0.0","Windows","10.0","null","es-ES,es;q=0.9","true","93","tones/440hz_short.mp3","j","","","empty_block","","22","","","","0","31",""
"","","","","","html-keyboard-response","180","602751","0.0-217.0","11","1","2023-10-20 17:00:16","36476ce043e716bb3956d3c52bfa015e","190.193.127.39","Mozilla/5.0 (Windows NT 10.0; Win64; x64) AppleWebKit/537.36 (KHTML, like Gecko) Chrome/118.0.0.0 Safari/537.36","WebKit","Chrome","118.0.0.0","Windows","10.0","null","es-ES,es;q=0.9","true","null","<div style=""font-size:100px;"">X</div>","null","","","fixation","","","","","","","",""
"","","","","","audio-keyboard-response","181","603419","0.0-218.0","11","1","2023-10-20 17:00:16","36476ce043e716bb3956d3c52bfa015e","190.193.127.39","Mozilla/5.0 (Windows NT 10.0; Win64; x64) AppleWebKit/537.36 (KHTML, like Gecko) Chrome/118.0.0.0 Safari/537.36","WebKit","Chrome","118.0.0.0","Windows","10.0","null","es-ES,es;q=0.9","true","661","tones/880hz_short.mp3","s","","","tone_number_task","992.5","57","tones/880hz_short.mp3","1142.5","100","0","32",""
"","","","","","html-keyboard-response","182","603769","0.0-219.0-0.0","11","1","2023-10-20 17:00:16","36476ce043e716bb3956d3c52bfa015e","190.193.127.39","Mozilla/5.0 (Windows NT 10.0; Win64; x64) AppleWebKit/537.36 (KHTML, like Gecko) Chrome/118.0.0.0 Safari/537.36","WebKit","Chrome","118.0.0.0","Windows","10.0","null","es-ES,es;q=0.9","true","null","","null","","","delay_block","","","","","","0","32",""
"","","","","","html-keyboard-response","183","603935","0.0-219.0-1.0","11","1","2023-10-20 17:00:16","36476ce043e716bb3956d3c52bfa015e","190.193.127.39","Mozilla/5.0 (Windows NT 10.0; Win64; x64) AppleWebKit/537.36 (KHTML, like Gecko) Chrome/118.0.0.0 Safari/537.36","WebKit","Chrome","118.0.0.0","Windows","10.0","null","es-ES,es;q=0.9","true","null","<p id=""stimulus"" style=""font-size:100px;"">57</p>","null","","","tone_number_task_remaining_before_delay","","57","","481.5","100","0","32",""
"","","","","","html-keyboard-response","184","604208","0.0-222.0-0.0","11","1","2023-10-20 17:00:16","36476ce043e716bb3956d3c52bfa015e","190.193.127.39","Mozilla/5.0 (Windows NT 10.0; Win64; x64) AppleWebKit/537.36 (KHTML, like Gecko) Chrome/118.0.0.0 Safari/537.36","WebKit","Chrome","118.0.0.0","Windows","10.0","null","es-ES,es;q=0.9","true","268","<p id=""stimulus"" style=""font-size:100px;"">57</p>","k","","","empty_block","","57","","","","0","32",""
"","","","","","html-keyboard-response","185","607006","0.0-223.0","11","1","2023-10-20 17:00:16","36476ce043e716bb3956d3c52bfa015e","190.193.127.39","Mozilla/5.0 (Windows NT 10.0; Win64; x64) AppleWebKit/537.36 (KHTML, like Gecko) Chrome/118.0.0.0 Safari/537.36","WebKit","Chrome","118.0.0.0","Windows","10.0","null","es-ES,es;q=0.9","true","null","<div style=""font-size:100px;"">X</div>","null","","","fixation","","","","","","","",""
"","","","","","audio-keyboard-response","186","607631","0.0-224.0","11","1","2023-10-20 17:00:16","36476ce043e716bb3956d3c52bfa015e","190.193.127.39","Mozilla/5.0 (Windows NT 10.0; Win64; x64) AppleWebKit/537.36 (KHTML, like Gecko) Chrome/118.0.0.0 Safari/537.36","WebKit","Chrome","118.0.0.0","Windows","10.0","null","es-ES,es;q=0.9","true","608","tones/440hz_short.mp3","a","","","tone_number_task","1025","68","tones/440hz_short.mp3","1175","100","0","33",""
"","","","","","html-keyboard-response","187","608075","0.0-225.0-0.0","11","1","2023-10-20 17:00:16","36476ce043e716bb3956d3c52bfa015e","190.193.127.39","Mozilla/5.0 (Windows NT 10.0; Win64; x64) AppleWebKit/537.36 (KHTML, like Gecko) Chrome/118.0.0.0 Safari/537.36","WebKit","Chrome","118.0.0.0","Windows","10.0","null","es-ES,es;q=0.9","true","null","","null","","","delay_block","","","","","","0","33",""
"","","","","","html-keyboard-response","188","608255","0.0-225.0-1.0","11","1","2023-10-20 17:00:16","36476ce043e716bb3956d3c52bfa015e","190.193.127.39","Mozilla/5.0 (Windows NT 10.0; Win64; x64) AppleWebKit/537.36 (KHTML, like Gecko) Chrome/118.0.0.0 Safari/537.36","WebKit","Chrome","118.0.0.0","Windows","10.0","null","es-ES,es;q=0.9","true","null","<p id=""stimulus"" style=""font-size:100px;"">68</p>","null","","","tone_number_task_remaining_before_delay","","68","","567","100","0","33",""
"","","","","","html-keyboard-response","189","608550","0.0-228.0-0.0","11","1","2023-10-20 17:00:16","36476ce043e716bb3956d3c52bfa015e","190.193.127.39","Mozilla/5.0 (Windows NT 10.0; Win64; x64) AppleWebKit/537.36 (KHTML, like Gecko) Chrome/118.0.0.0 Safari/537.36","WebKit","Chrome","118.0.0.0","Windows","10.0","null","es-ES,es;q=0.9","true","290","<p id=""stimulus"" style=""font-size:100px;"">68</p>","k","","","empty_block","","68","","","","0","33",""
"","","","","","html-keyboard-response","190","611362","0.0-229.0","11","1","2023-10-20 17:00:16","36476ce043e716bb3956d3c52bfa015e","190.193.127.39","Mozilla/5.0 (Windows NT 10.0; Win64; x64) AppleWebKit/537.36 (KHTML, like Gecko) Chrome/118.0.0.0 Safari/537.36","WebKit","Chrome","118.0.0.0","Windows","10.0","null","es-ES,es;q=0.9","true","null","<div style=""font-size:100px;"">X</div>","null","","","fixation","","","","","","","",""
"","","","","","audio-keyboard-response","191","612079","0.0-230.0","11","1","2023-10-20 17:00:16","36476ce043e716bb3956d3c52bfa015e","190.193.127.39","Mozilla/5.0 (Windows NT 10.0; Win64; x64) AppleWebKit/537.36 (KHTML, like Gecko) Chrome/118.0.0.0 Safari/537.36","WebKit","Chrome","118.0.0.0","Windows","10.0","null","es-ES,es;q=0.9","true","709","tones/440hz_short.mp3","a","","","tone_number_task","992.5","57","tones/440hz_short.mp3","1142.5","100","0","34",""
"","","","","","html-keyboard-response","192","612376","0.0-231.0-0.0","11","1","2023-10-20 17:00:16","36476ce043e716bb3956d3c52bfa015e","190.193.127.39","Mozilla/5.0 (Windows NT 10.0; Win64; x64) AppleWebKit/537.36 (KHTML, like Gecko) Chrome/118.0.0.0 Safari/537.36","WebKit","Chrome","118.0.0.0","Windows","10.0","null","es-ES,es;q=0.9","true","null","","null","","","delay_block","","","","","","0","34",""
"","","","","","html-keyboard-response","193","612545","0.0-231.0-1.0","11","1","2023-10-20 17:00:16","36476ce043e716bb3956d3c52bfa015e","190.193.127.39","Mozilla/5.0 (Windows NT 10.0; Win64; x64) AppleWebKit/537.36 (KHTML, like Gecko) Chrome/118.0.0.0 Safari/537.36","WebKit","Chrome","118.0.0.0","Windows","10.0","null","es-ES,es;q=0.9","true","null","<p id=""stimulus"" style=""font-size:100px;"">57</p>","null","","","tone_number_task_remaining_before_delay","","57","","433.5","100","0","34",""
"","","","","","html-keyboard-response","194","613115","0.0-234.0-0.0","11","1","2023-10-20 17:00:16","36476ce043e716bb3956d3c52bfa015e","190.193.127.39","Mozilla/5.0 (Windows NT 10.0; Win64; x64) AppleWebKit/537.36 (KHTML, like Gecko) Chrome/118.0.0.0 Safari/537.36","WebKit","Chrome","118.0.0.0","Windows","10.0","null","es-ES,es;q=0.9","true","558","<p id=""stimulus"" style=""font-size:100px;"">57</p>","k","","","empty_block","","57","","","","0","34",""
"","","","","","html-keyboard-response","195","615915","0.0-235.0","11","1","2023-10-20 17:00:16","36476ce043e716bb3956d3c52bfa015e","190.193.127.39","Mozilla/5.0 (Windows NT 10.0; Win64; x64) AppleWebKit/537.36 (KHTML, like Gecko) Chrome/118.0.0.0 Safari/537.36","WebKit","Chrome","118.0.0.0","Windows","10.0","null","es-ES,es;q=0.9","true","null","<div style=""font-size:100px;"">X</div>","null","","","fixation","","","","","","","",""
"","","","","","audio-keyboard-response","196","616734","0.0-236.0","11","1","2023-10-20 17:00:16","36476ce043e716bb3956d3c52bfa015e","190.193.127.39","Mozilla/5.0 (Windows NT 10.0; Win64; x64) AppleWebKit/537.36 (KHTML, like Gecko) Chrome/118.0.0.0 Safari/537.36","WebKit","Chrome","118.0.0.0","Windows","10.0","null","es-ES,es;q=0.9","true","811","tones/880hz_short.mp3","s","","","tone_number_task","992.5","26","tones/880hz_short.mp3","1142.5","100","0","35",""
"","","","","","html-keyboard-response","197","616935","0.0-237.0-0.0","11","1","2023-10-20 17:00:16","36476ce043e716bb3956d3c52bfa015e","190.193.127.39","Mozilla/5.0 (Windows NT 10.0; Win64; x64) AppleWebKit/537.36 (KHTML, like Gecko) Chrome/118.0.0.0 Safari/537.36","WebKit","Chrome","118.0.0.0","Windows","10.0","null","es-ES,es;q=0.9","true","null","","null","","","delay_block","","","","","","0","35",""
"","","","","","html-keyboard-response","198","617110","0.0-237.0-1.0","11","1","2023-10-20 17:00:16","36476ce043e716bb3956d3c52bfa015e","190.193.127.39","Mozilla/5.0 (Windows NT 10.0; Win64; x64) AppleWebKit/537.36 (KHTML, like Gecko) Chrome/118.0.0.0 Safari/537.36","WebKit","Chrome","118.0.0.0","Windows","10.0","null","es-ES,es;q=0.9","true","null","<p id=""stimulus"" style=""font-size:100px;"">26</p>","null","","","tone_number_task_remaining_before_delay","","26","","331.5","100","0","35",""
"","","","","","html-keyboard-response","199","617549","0.0-240.0-0.0","11","1","2023-10-20 17:00:16","36476ce043e716bb3956d3c52bfa015e","190.193.127.39","Mozilla/5.0 (Windows NT 10.0; Win64; x64) AppleWebKit/537.36 (KHTML, like Gecko) Chrome/118.0.0.0 Safari/537.36","WebKit","Chrome","118.0.0.0","Windows","10.0","null","es-ES,es;q=0.9","true","430","<p id=""stimulus"" style=""font-size:100px;"">26</p>","j","","","empty_block","","26","","","","0","35",""
"","","","","","html-keyboard-response","200","620355","0.0-241.0","11","1","2023-10-20 17:00:16","36476ce043e716bb3956d3c52bfa015e","190.193.127.39","Mozilla/5.0 (Windows NT 10.0; Win64; x64) AppleWebKit/537.36 (KHTML, like Gecko) Chrome/118.0.0.0 Safari/537.36","WebKit","Chrome","118.0.0.0","Windows","10.0","null","es-ES,es;q=0.9","true","null","<div style=""font-size:100px;"">X</div>","null","","","fixation","","","","","","","",""
"","","","","","audio-keyboard-response","201","620625","0.0-242.0","11","1","2023-10-20 17:00:16","36476ce043e716bb3956d3c52bfa015e","190.193.127.39","Mozilla/5.0 (Windows NT 10.0; Win64; x64) AppleWebKit/537.36 (KHTML, like Gecko) Chrome/118.0.0.0 Safari/537.36","WebKit","Chrome","118.0.0.0","Windows","10.0","null","es-ES,es;q=0.9","true","null","tones/440hz_short.mp3","null","","","tone_number_task","102.5","22","tones/440hz_short.mp3","252.5","100","0","36",""
"","","","","","html-keyboard-response","202","621412","0.0-245.0-0.0","11","1","2023-10-20 17:00:16","36476ce043e716bb3956d3c52bfa015e","190.193.127.39","Mozilla/5.0 (Windows NT 10.0; Win64; x64) AppleWebKit/537.36 (KHTML, like Gecko) Chrome/118.0.0.0 Safari/537.36","WebKit","Chrome","118.0.0.0","Windows","10.0","null","es-ES,es;q=0.9","true","777","tones/440hz_short.mp3","a","","","empty_block","","22","","","","0","36",""
"","","","","","html-keyboard-response","203","621521","0.0-245.0-1.0","11","1","2023-10-20 17:00:16","36476ce043e716bb3956d3c52bfa015e","190.193.127.39","Mozilla/5.0 (Windows NT 10.0; Win64; x64) AppleWebKit/537.36 (KHTML, like Gecko) Chrome/118.0.0.0 Safari/537.36","WebKit","Chrome","118.0.0.0","Windows","10.0","null","es-ES,es;q=0.9","true","95","tones/440hz_short.mp3","j","","","empty_block","","22","","","","0","36",""
"","","","","","html-keyboard-response","204","624325","0.0-247.0","11","1","2023-10-20 17:00:16","36476ce043e716bb3956d3c52bfa015e","190.193.127.39","Mozilla/5.0 (Windows NT 10.0; Win64; x64) AppleWebKit/537.36 (KHTML, like Gecko) Chrome/118.0.0.0 Safari/537.36","WebKit","Chrome","118.0.0.0","Windows","10.0","null","es-ES,es;q=0.9","true","null","<div style=""font-size:100px;"">X</div>","null","","","fixation","","","","","","","",""
"","","","","","audio-keyboard-response","205","625071","0.0-248.0","11","1","2023-10-20 17:00:16","36476ce043e716bb3956d3c52bfa015e","190.193.127.39","Mozilla/5.0 (Windows NT 10.0; Win64; x64) AppleWebKit/537.36 (KHTML, like Gecko) Chrome/118.0.0.0 Safari/537.36","WebKit","Chrome","118.0.0.0","Windows","10.0","null","es-ES,es;q=0.9","true","739","tones/440hz_short.mp3","a","","","tone_number_task","992.5","38","tones/440hz_short.mp3","1142.5","100","0","37",""
"","","","","","html-keyboard-response","206","625333","0.0-249.0-0.0","11","1","2023-10-20 17:00:16","36476ce043e716bb3956d3c52bfa015e","190.193.127.39","Mozilla/5.0 (Windows NT 10.0; Win64; x64) AppleWebKit/537.36 (KHTML, like Gecko) Chrome/118.0.0.0 Safari/537.36","WebKit","Chrome","118.0.0.0","Windows","10.0","null","es-ES,es;q=0.9","true","null","","null","","","delay_block","","","","","","0","37",""
"","","","","","html-keyboard-response","207","625494","0.0-249.0-1.0","11","1","2023-10-20 17:00:16","36476ce043e716bb3956d3c52bfa015e","190.193.127.39","Mozilla/5.0 (Windows NT 10.0; Win64; x64) AppleWebKit/537.36 (KHTML, like Gecko) Chrome/118.0.0.0 Safari/537.36","WebKit","Chrome","118.0.0.0","Windows","10.0","null","es-ES,es;q=0.9","true","null","<p id=""stimulus"" style=""font-size:100px;"">38</p>","null","","","tone_number_task_remaining_before_delay","","38","","403.5","100","0","37",""
"","","","","","html-keyboard-response","208","626041","0.0-252.0-0.0","11","1","2023-10-20 17:00:16","36476ce043e716bb3956d3c52bfa015e","190.193.127.39","Mozilla/5.0 (Windows NT 10.0; Win64; x64) AppleWebKit/537.36 (KHTML, like Gecko) Chrome/118.0.0.0 Safari/537.36","WebKit","Chrome","118.0.0.0","Windows","10.0","null","es-ES,es;q=0.9","true","542","<p id=""stimulus"" style=""font-size:100px;"">38</p>","k","","","empty_block","","38","","","","0","37",""
"","","","","","html-keyboard-response","209","628845","0.0-253.0","11","1","2023-10-20 17:00:16","36476ce043e716bb3956d3c52bfa015e","190.193.127.39","Mozilla/5.0 (Windows NT 10.0; Win64; x64) AppleWebKit/537.36 (KHTML, like Gecko) Chrome/118.0.0.0 Safari/537.36","WebKit","Chrome","118.0.0.0","Windows","10.0","null","es-ES,es;q=0.9","true","null","<div style=""font-size:100px;"">X</div>","null","","","fixation","","","","","","","",""
"","","","","","audio-keyboard-response","210","629005","0.0-254.0","11","1","2023-10-20 17:00:16","36476ce043e716bb3956d3c52bfa015e","190.193.127.39","Mozilla/5.0 (Windows NT 10.0; Win64; x64) AppleWebKit/537.36 (KHTML, like Gecko) Chrome/118.0.0.0 Safari/537.36","WebKit","Chrome","118.0.0.0","Windows","10.0","null","es-ES,es;q=0.9","true","null","tones/880hz_short.mp3","null","","","tone_number_task","0","49","tones/880hz_short.mp3","150","100","0","38",""
"","","","","","html-keyboard-response","211","629489","0.0-257.0-0.0","11","1","2023-10-20 17:00:16","36476ce043e716bb3956d3c52bfa015e","190.193.127.39","Mozilla/5.0 (Windows NT 10.0; Win64; x64) AppleWebKit/537.36 (KHTML, like Gecko) Chrome/118.0.0.0 Safari/537.36","WebKit","Chrome","118.0.0.0","Windows","10.0","null","es-ES,es;q=0.9","true","470","tones/880hz_short.mp3","s","","","empty_block","","49","","","","0","38",""
"","","","","","html-keyboard-response","212","629598","0.0-257.0-1.0","11","1","2023-10-20 17:00:16","36476ce043e716bb3956d3c52bfa015e","190.193.127.39","Mozilla/5.0 (Windows NT 10.0; Win64; x64) AppleWebKit/537.36 (KHTML, like Gecko) Chrome/118.0.0.0 Safari/537.36","WebKit","Chrome","118.0.0.0","Windows","10.0","null","es-ES,es;q=0.9","true","103","tones/880hz_short.mp3","k","","","empty_block","","49","","","","0","38",""
"","","","","","html-keyboard-response","213","632404","0.0-259.0","11","1","2023-10-20 17:00:16","36476ce043e716bb3956d3c52bfa015e","190.193.127.39","Mozilla/5.0 (Windows NT 10.0; Win64; x64) AppleWebKit/537.36 (KHTML, like Gecko) Chrome/118.0.0.0 Safari/537.36","WebKit","Chrome","118.0.0.0","Windows","10.0","null","es-ES,es;q=0.9","true","null","<div style=""font-size:100px;"">X</div>","null","","","fixation","","","","","","","",""
"","","","","","audio-keyboard-response","214","632979","0.0-260.0","11","1","2023-10-20 17:00:16","36476ce043e716bb3956d3c52bfa015e","190.193.127.39","Mozilla/5.0 (Windows NT 10.0; Win64; x64) AppleWebKit/537.36 (KHTML, like Gecko) Chrome/118.0.0.0 Safari/537.36","WebKit","Chrome","118.0.0.0","Windows","10.0","null","es-ES,es;q=0.9","true","571","tones/440hz_short.mp3","a","","","tone_number_task","1025","41","tones/440hz_short.mp3","1175","100","0","39",""
"","","","","","html-keyboard-response","215","633444","0.0-261.0-0.0","11","1","2023-10-20 17:00:16","36476ce043e716bb3956d3c52bfa015e","190.193.127.39","Mozilla/5.0 (Windows NT 10.0; Win64; x64) AppleWebKit/537.36 (KHTML, like Gecko) Chrome/118.0.0.0 Safari/537.36","WebKit","Chrome","118.0.0.0","Windows","10.0","null","es-ES,es;q=0.9","true","null","","null","","","delay_block","","","","","","0","39",""
"","","","","","html-keyboard-response","216","633616","0.0-261.0-1.0","11","1","2023-10-20 17:00:16","36476ce043e716bb3956d3c52bfa015e","190.193.127.39","Mozilla/5.0 (Windows NT 10.0; Win64; x64) AppleWebKit/537.36 (KHTML, like Gecko) Chrome/118.0.0.0 Safari/537.36","WebKit","Chrome","118.0.0.0","Windows","10.0","null","es-ES,es;q=0.9","true","null","<p id=""stimulus"" style=""font-size:100px;"">41</p>","null","","","tone_number_task_remaining_before_delay","","41","","604","100","0","39",""
"","","","","","html-keyboard-response","217","634057","0.0-264.0-0.0","11","1","2023-10-20 17:00:16","36476ce043e716bb3956d3c52bfa015e","190.193.127.39","Mozilla/5.0 (Windows NT 10.0; Win64; x64) AppleWebKit/537.36 (KHTML, like Gecko) Chrome/118.0.0.0 Safari/537.36","WebKit","Chrome","118.0.0.0","Windows","10.0","null","es-ES,es;q=0.9","true","437","<p id=""stimulus"" style=""font-size:100px;"">41</p>","j","","","empty_block","","41","","","","0","39",""
"","","","","","call-function","218","634062","0.0-265.0","11","1","2023-10-20 17:00:16","36476ce043e716bb3956d3c52bfa015e","190.193.127.39","Mozilla/5.0 (Windows NT 10.0; Win64; x64) AppleWebKit/537.36 (KHTML, like Gecko) Chrome/118.0.0.0 Safari/537.36","WebKit","Chrome","118.0.0.0","Windows","10.0","null","es-ES,es;q=0.9","true","","","","","","","","","","","","","",""
"","","","","","external-html","219","736490","0.0-266.0","11","1","2023-10-20 17:00:16","36476ce043e716bb3956d3c52bfa015e","190.193.127.39","Mozilla/5.0 (Windows NT 10.0; Win64; x64) AppleWebKit/537.36 (KHTML, like Gecko) Chrome/118.0.0.0 Safari/537.36","WebKit","Chrome","118.0.0.0","Windows","10.0","null","es-ES,es;q=0.9","true","102083","","","","instructions/instructions_digits_last.html","","","","","","","","",""
"","","","","","call-function","220","736502","0.0-267.0","11","1","2023-10-20 17:00:16","36476ce043e716bb3956d3c52bfa015e","190.193.127.39","Mozilla/5.0 (Windows NT 10.0; Win64; x64) AppleWebKit/537.36 (KHTML, like Gecko) Chrome/118.0.0.0 Safari/537.36","WebKit","Chrome","118.0.0.0","Windows","10.0","null","es-ES,es;q=0.9","true","","","","","","","","","","","","","",""
