"success","timeout","failed_images","failed_audio","failed_video","trial_type","trial_index","time_elapsed","internal_node_id","run_id","condition","recorded_at","source_code_version","ip","user_agent","device","browser","browser_version","platform","platform_version","referer","accept_language","check","rt","stimulus","response","question_order","url","task","delay","number","audioFile","trial_duration","font_size","block","round","value"
"true","false","[]","[]","[]","preload","0","720","0.0-0.0","5","1","2023-10-26 20:39:49","a725c3012b74bf33a1020a98cb69c237","186.158.228.113","Mozilla/5.0 (Windows NT 10.0; Win64; x64) AppleWebKit/537.36 (KHTML, like Gecko) Chrome/118.0.0.0 Safari/537.36 Edg/118.0.2088.69","WebKit","Edge","118.0.2088.69","Windows","10.0","null","es,es-ES;q=0.9,en;q=0.8,en-GB;q=0.7,en-US;q=0.6","true","","","","","","","","","","","","","",""
"true","","","","","fullscreen","1","8227","0.0-1.0","5","1","2023-10-26 20:39:49","a725c3012b74bf33a1020a98cb69c237","186.158.228.113","Mozilla/5.0 (Windows NT 10.0; Win64; x64) AppleWebKit/537.36 (KHTML, like Gecko) Chrome/118.0.0.0 Safari/537.36 Edg/118.0.2088.69","WebKit","Edge","118.0.2088.69","Windows","10.0","null","es,es-ES;q=0.9,en;q=0.8,en-GB;q=0.7,en-US;q=0.6","true","","","","","","","","","","","","","",""
"","","","","","html-button-response","2","10969","0.0-2.0","5","1","2023-10-26 20:39:49","a725c3012b74bf33a1020a98cb69c237","186.158.228.113","Mozilla/5.0 (Windows NT 10.0; Win64; x64) AppleWebKit/537.36 (KHTML, like Gecko) Chrome/118.0.0.0 Safari/537.36 Edg/118.0.2088.69","WebKit","Edge","118.0.2088.69","Windows","10.0","null","es,es-ES;q=0.9,en;q=0.8,en-GB;q=0.7,en-US;q=0.6","true","2739","<p style=""font-size:24px; color:red;"">Cosas importantes a tener en cuenta antes de comenzar el experimento:</p>","0","","","","","","","","","","",""
"","","","","","html-button-response","3","19936","0.0-3.0","5","1","2023-10-26 20:39:49","a725c3012b74bf33a1020a98cb69c237","186.158.228.113","Mozilla/5.0 (Windows NT 10.0; Win64; x64) AppleWebKit/537.36 (KHTML, like Gecko) Chrome/118.0.0.0 Safari/537.36 Edg/118.0.2088.69","WebKit","Edge","118.0.2088.69","Windows","10.0","null","es,es-ES;q=0.9,en;q=0.8,en-GB;q=0.7,en-US;q=0.6","true","8966","<p style=""font-size:24px;"">El experimento dura aproximadamente 15 minutos.</p><p style=""font-size:24px;"">Por favor, no cierres la ventana del navegador durante el experimento.</p><p style=""font-size:24px;"">Si se completa de forma parcial, no se guardará ningún resultado.</p>","0","","","","","","","","","","",""
"","","","","","html-button-response","4","44609","0.0-4.0","5","1","2023-10-26 20:39:49","a725c3012b74bf33a1020a98cb69c237","186.158.228.113","Mozilla/5.0 (Windows NT 10.0; Win64; x64) AppleWebKit/537.36 (KHTML, like Gecko) Chrome/118.0.0.0 Safari/537.36 Edg/118.0.2088.69","WebKit","Edge","118.0.2088.69","Windows","10.0","null","es,es-ES;q=0.9,en;q=0.8,en-GB;q=0.7,en-US;q=0.6","true","24671","<p style=""font-size:24px;"">El experimento contiene estímulos sonoros.</p>","0","","","","","","","","","","",""
"","","","","","audio-button-response","5","50673","0.0-5.0-0.0","5","1","2023-10-26 20:39:49","a725c3012b74bf33a1020a98cb69c237","186.158.228.113","Mozilla/5.0 (Windows NT 10.0; Win64; x64) AppleWebKit/537.36 (KHTML, like Gecko) Chrome/118.0.0.0 Safari/537.36 Edg/118.0.2088.69","WebKit","Edge","118.0.2088.69","Windows","10.0","null","es,es-ES;q=0.9,en;q=0.8,en-GB;q=0.7,en-US;q=0.6","true","5909","tones/440hz_short.mp3","1","","","","","","","","","","",""
"","","","","","audio-button-response","6","53513","0.0-6.0-0.0","5","1","2023-10-26 20:39:49","a725c3012b74bf33a1020a98cb69c237","186.158.228.113","Mozilla/5.0 (Windows NT 10.0; Win64; x64) AppleWebKit/537.36 (KHTML, like Gecko) Chrome/118.0.0.0 Safari/537.36 Edg/118.0.2088.69","WebKit","Edge","118.0.2088.69","Windows","10.0","null","es,es-ES;q=0.9,en;q=0.8,en-GB;q=0.7,en-US;q=0.6","true","2840","tones/880hz_short.mp3","1","","","","","","","","","","",""
"","","","","","survey-html-form","7","58058","0.0-7.0","5","1","2023-10-26 20:39:49","a725c3012b74bf33a1020a98cb69c237","186.158.228.113","Mozilla/5.0 (Windows NT 10.0; Win64; x64) AppleWebKit/537.36 (KHTML, like Gecko) Chrome/118.0.0.0 Safari/537.36 Edg/118.0.2088.69","WebKit","Edge","118.0.2088.69","Windows","10.0","null","es,es-ES;q=0.9,en;q=0.8,en-GB;q=0.7,en-US;q=0.6","true","4537","","{""response"":""18""}","","","","","","","","","","",""
"","","","","","survey-multi-choice","8","64426","0.0-8.0","5","1","2023-10-26 20:39:49","a725c3012b74bf33a1020a98cb69c237","186.158.228.113","Mozilla/5.0 (Windows NT 10.0; Win64; x64) AppleWebKit/537.36 (KHTML, like Gecko) Chrome/118.0.0.0 Safari/537.36 Edg/118.0.2088.69","WebKit","Edge","118.0.2088.69","Windows","10.0","null","es,es-ES;q=0.9,en;q=0.8,en-GB;q=0.7,en-US;q=0.6","true","6364","","{""gender"":""Hombre"",""hand"":""Derecha""}","[0,1]","","","","","","","","","",""
"","","","","","external-html","9","140067","0.0-9.0","5","1","2023-10-26 20:39:49","a725c3012b74bf33a1020a98cb69c237","186.158.228.113","Mozilla/5.0 (Windows NT 10.0; Win64; x64) AppleWebKit/537.36 (KHTML, like Gecko) Chrome/118.0.0.0 Safari/537.36 Edg/118.0.2088.69","WebKit","Edge","118.0.2088.69","Windows","10.0","null","es,es-ES;q=0.9,en;q=0.8,en-GB;q=0.7,en-US;q=0.6","true","75202","","","","instructions/instructions.html","","","","","","","","",""
"","","","","","external-html","10","182581","0.0-10.0","5","1","2023-10-26 20:39:49","a725c3012b74bf33a1020a98cb69c237","186.158.228.113","Mozilla/5.0 (Windows NT 10.0; Win64; x64) AppleWebKit/537.36 (KHTML, like Gecko) Chrome/118.0.0.0 Safari/537.36 Edg/118.0.2088.69","WebKit","Edge","118.0.2088.69","Windows","10.0","null","es,es-ES;q=0.9,en;q=0.8,en-GB;q=0.7,en-US;q=0.6","true","41674","","","","instructions/animation.html","","","","","","","","",""
"","","","","","html-keyboard-response","11","185219","0.0-11.0-0.0","5","1","2023-10-26 20:39:49","a725c3012b74bf33a1020a98cb69c237","186.158.228.113","Mozilla/5.0 (Windows NT 10.0; Win64; x64) AppleWebKit/537.36 (KHTML, like Gecko) Chrome/118.0.0.0 Safari/537.36 Edg/118.0.2088.69","WebKit","Edge","118.0.2088.69","Windows","10.0","null","es,es-ES;q=0.9,en;q=0.8,en-GB;q=0.7,en-US;q=0.6","true","null","<div style=""font-size:100px;"">X</div>","null","","","fixation","","","","","","","",""
"","","","","","audio-keyboard-response","12","186030","0.0-11.0-1.0","5","1","2023-10-26 20:39:49","a725c3012b74bf33a1020a98cb69c237","186.158.228.113","Mozilla/5.0 (Windows NT 10.0; Win64; x64) AppleWebKit/537.36 (KHTML, like Gecko) Chrome/118.0.0.0 Safari/537.36 Edg/118.0.2088.69","WebKit","Edge","118.0.2088.69","Windows","10.0","null","es,es-ES;q=0.9,en;q=0.8,en-GB;q=0.7,en-US;q=0.6","true","701","tones/440hz_short.mp3","a","","","tone_number_task","1000","63","tones/440hz_short.mp3","1150","100","null","null",""
"","","","","","html-keyboard-response","13","186350","0.0-11.0-2.0-0.0","5","1","2023-10-26 20:39:49","a725c3012b74bf33a1020a98cb69c237","186.158.228.113","Mozilla/5.0 (Windows NT 10.0; Win64; x64) AppleWebKit/537.36 (KHTML, like Gecko) Chrome/118.0.0.0 Safari/537.36 Edg/118.0.2088.69","WebKit","Edge","118.0.2088.69","Windows","10.0","null","es,es-ES;q=0.9,en;q=0.8,en-GB;q=0.7,en-US;q=0.6","true","null","","null","","","delay_block","","","","","","null","null",""
"","","","","","html-keyboard-response","14","186508","0.0-11.0-2.0-1.0","5","1","2023-10-26 20:39:49","a725c3012b74bf33a1020a98cb69c237","186.158.228.113","Mozilla/5.0 (Windows NT 10.0; Win64; x64) AppleWebKit/537.36 (KHTML, like Gecko) Chrome/118.0.0.0 Safari/537.36 Edg/118.0.2088.69","WebKit","Edge","118.0.2088.69","Windows","10.0","null","es,es-ES;q=0.9,en;q=0.8,en-GB;q=0.7,en-US;q=0.6","true","null","<p id=""stimulus"" style=""font-size:100px;"">63</p>","null","","","tone_number_task_remaining_before_delay","","63","","449","100","null","null",""
"","","","","","html-keyboard-response","15","187053","0.0-11.0-5.0-0.0","5","1","2023-10-26 20:39:49","a725c3012b74bf33a1020a98cb69c237","186.158.228.113","Mozilla/5.0 (Windows NT 10.0; Win64; x64) AppleWebKit/537.36 (KHTML, like Gecko) Chrome/118.0.0.0 Safari/537.36 Edg/118.0.2088.69","WebKit","Edge","118.0.2088.69","Windows","10.0","null","es,es-ES;q=0.9,en;q=0.8,en-GB;q=0.7,en-US;q=0.6","true","544","<p id=""stimulus"" style=""font-size:100px;"">63</p>","k","","","empty_block","","63","","","","null","null",""
"","","","","","html-keyboard-response","16","189688","0.0-13.0-0.0","5","1","2023-10-26 20:39:49","a725c3012b74bf33a1020a98cb69c237","186.158.228.113","Mozilla/5.0 (Windows NT 10.0; Win64; x64) AppleWebKit/537.36 (KHTML, like Gecko) Chrome/118.0.0.0 Safari/537.36 Edg/118.0.2088.69","WebKit","Edge","118.0.2088.69","Windows","10.0","null","es,es-ES;q=0.9,en;q=0.8,en-GB;q=0.7,en-US;q=0.6","true","null","<div style=""font-size:100px;"">X</div>","null","","","fixation","","","","","","","",""
"","","","","","audio-keyboard-response","17","190322","0.0-13.0-1.0","5","1","2023-10-26 20:39:49","a725c3012b74bf33a1020a98cb69c237","186.158.228.113","Mozilla/5.0 (Windows NT 10.0; Win64; x64) AppleWebKit/537.36 (KHTML, like Gecko) Chrome/118.0.0.0 Safari/537.36 Edg/118.0.2088.69","WebKit","Edge","118.0.2088.69","Windows","10.0","null","es,es-ES;q=0.9,en;q=0.8,en-GB;q=0.7,en-US;q=0.6","true","640","tones/440hz_short.mp3","s","","","tone_number_task","500","33","tones/440hz_short.mp3","650","100","null","null",""
"","","","","","html-keyboard-response","18","190340","0.0-13.0-3.0-0.0","5","1","2023-10-26 20:39:49","a725c3012b74bf33a1020a98cb69c237","186.158.228.113","Mozilla/5.0 (Windows NT 10.0; Win64; x64) AppleWebKit/537.36 (KHTML, like Gecko) Chrome/118.0.0.0 Safari/537.36 Edg/118.0.2088.69","WebKit","Edge","118.0.2088.69","Windows","10.0","null","es,es-ES;q=0.9,en;q=0.8,en-GB;q=0.7,en-US;q=0.6","true","null","<p id=""stimulus"" style=""font-size:100px;"">33</p>","null","","","tone_number_task_remaining_after_delay","","33","","","100","null","null",""
"","","","","","html-keyboard-response","19","191055","0.0-13.0-5.0-0.0","5","1","2023-10-26 20:39:49","a725c3012b74bf33a1020a98cb69c237","186.158.228.113","Mozilla/5.0 (Windows NT 10.0; Win64; x64) AppleWebKit/537.36 (KHTML, like Gecko) Chrome/118.0.0.0 Safari/537.36 Edg/118.0.2088.69","WebKit","Edge","118.0.2088.69","Windows","10.0","null","es,es-ES;q=0.9,en;q=0.8,en-GB;q=0.7,en-US;q=0.6","true","713","<p id=""stimulus"" style=""font-size:100px;"">33</p>","j","","","empty_block","","33","","","","null","null",""
"","","","","","html-button-response","20","197693","0.0-13.0-6.0-0.0","5","1","2023-10-26 20:39:49","a725c3012b74bf33a1020a98cb69c237","186.158.228.113","Mozilla/5.0 (Windows NT 10.0; Win64; x64) AppleWebKit/537.36 (KHTML, like Gecko) Chrome/118.0.0.0 Safari/537.36 Edg/118.0.2088.69","WebKit","Edge","118.0.2088.69","Windows","10.0","null","es,es-ES;q=0.9,en;q=0.8,en-GB;q=0.7,en-US;q=0.6","true","6635","
  '<p style=""font-size:24px; color:red;"">Incorrecto</p><p> Respondiste alguno de los estímulos de manera incorrecta.</p><p>Por favor, repasá las instrucciones y seguimos desde donde nos quedamos. </p>
  ","0","","","","","","","","","","",""
"","","","","","external-html","21","201685","0.0-13.0-6.0-1.0","5","1","2023-10-26 20:39:49","a725c3012b74bf33a1020a98cb69c237","186.158.228.113","Mozilla/5.0 (Windows NT 10.0; Win64; x64) AppleWebKit/537.36 (KHTML, like Gecko) Chrome/118.0.0.0 Safari/537.36 Edg/118.0.2088.69","WebKit","Edge","118.0.2088.69","Windows","10.0","null","es,es-ES;q=0.9,en;q=0.8,en-GB;q=0.7,en-US;q=0.6","true","3452","","","","instructions/instructions_B.html","","","","","","","","",""
"","","","","","html-keyboard-response","22","204326","0.0-13.1-0.1","5","1","2023-10-26 20:39:49","a725c3012b74bf33a1020a98cb69c237","186.158.228.113","Mozilla/5.0 (Windows NT 10.0; Win64; x64) AppleWebKit/537.36 (KHTML, like Gecko) Chrome/118.0.0.0 Safari/537.36 Edg/118.0.2088.69","WebKit","Edge","118.0.2088.69","Windows","10.0","null","es,es-ES;q=0.9,en;q=0.8,en-GB;q=0.7,en-US;q=0.6","true","null","<div style=""font-size:100px;"">X</div>","null","","","fixation","","","","","","","",""
"","","","","","audio-keyboard-response","23","204981","0.0-13.1-1.1","5","1","2023-10-26 20:39:49","a725c3012b74bf33a1020a98cb69c237","186.158.228.113","Mozilla/5.0 (Windows NT 10.0; Win64; x64) AppleWebKit/537.36 (KHTML, like Gecko) Chrome/118.0.0.0 Safari/537.36 Edg/118.0.2088.69","WebKit","Edge","118.0.2088.69","Windows","10.0","null","es,es-ES;q=0.9,en;q=0.8,en-GB;q=0.7,en-US;q=0.6","true","null","tones/440hz_short.mp3","null","","","tone_number_task","500","33","tones/440hz_short.mp3","650","100","null","null",""
"","","","","","html-keyboard-response","24","205214","0.0-13.1-4.1-0.1","5","1","2023-10-26 20:39:49","a725c3012b74bf33a1020a98cb69c237","186.158.228.113","Mozilla/5.0 (Windows NT 10.0; Win64; x64) AppleWebKit/537.36 (KHTML, like Gecko) Chrome/118.0.0.0 Safari/537.36 Edg/118.0.2088.69","WebKit","Edge","118.0.2088.69","Windows","10.0","null","es,es-ES;q=0.9,en;q=0.8,en-GB;q=0.7,en-US;q=0.6","true","230","tones/440hz_short.mp3","a","","","empty_block","","33","","","","null","null",""
"","","","","","html-keyboard-response","25","205792","0.0-13.1-4.1-1.1","5","1","2023-10-26 20:39:49","a725c3012b74bf33a1020a98cb69c237","186.158.228.113","Mozilla/5.0 (Windows NT 10.0; Win64; x64) AppleWebKit/537.36 (KHTML, like Gecko) Chrome/118.0.0.0 Safari/537.36 Edg/118.0.2088.69","WebKit","Edge","118.0.2088.69","Windows","10.0","null","es,es-ES;q=0.9,en;q=0.8,en-GB;q=0.7,en-US;q=0.6","true","574","tones/440hz_short.mp3","j","","","empty_block","","33","","","","null","null",""
"","","","","","html-keyboard-response","26","208421","0.0-15.0-0.0","5","1","2023-10-26 20:39:49","a725c3012b74bf33a1020a98cb69c237","186.158.228.113","Mozilla/5.0 (Windows NT 10.0; Win64; x64) AppleWebKit/537.36 (KHTML, like Gecko) Chrome/118.0.0.0 Safari/537.36 Edg/118.0.2088.69","WebKit","Edge","118.0.2088.69","Windows","10.0","null","es,es-ES;q=0.9,en;q=0.8,en-GB;q=0.7,en-US;q=0.6","true","null","<div style=""font-size:100px;"">X</div>","null","","","fixation","","","","","","","",""
"","","","","","audio-keyboard-response","27","208732","0.0-15.0-1.0","5","1","2023-10-26 20:39:49","a725c3012b74bf33a1020a98cb69c237","186.158.228.113","Mozilla/5.0 (Windows NT 10.0; Win64; x64) AppleWebKit/537.36 (KHTML, like Gecko) Chrome/118.0.0.0 Safari/537.36 Edg/118.0.2088.69","WebKit","Edge","118.0.2088.69","Windows","10.0","null","es,es-ES;q=0.9,en;q=0.8,en-GB;q=0.7,en-US;q=0.6","true","null","tones/440hz_short.mp3","null","","","tone_number_task","150","44","tones/440hz_short.mp3","300","100","null","null",""
"","","","","","html-keyboard-response","28","209001","0.0-15.0-4.0-0.0","5","1","2023-10-26 20:39:49","a725c3012b74bf33a1020a98cb69c237","186.158.228.113","Mozilla/5.0 (Windows NT 10.0; Win64; x64) AppleWebKit/537.36 (KHTML, like Gecko) Chrome/118.0.0.0 Safari/537.36 Edg/118.0.2088.69","WebKit","Edge","118.0.2088.69","Windows","10.0","null","es,es-ES;q=0.9,en;q=0.8,en-GB;q=0.7,en-US;q=0.6","true","266","tones/440hz_short.mp3","a","","","empty_block","","44","","","","null","null",""
"","","","","","html-keyboard-response","29","209474","0.0-15.0-4.0-1.0","5","1","2023-10-26 20:39:49","a725c3012b74bf33a1020a98cb69c237","186.158.228.113","Mozilla/5.0 (Windows NT 10.0; Win64; x64) AppleWebKit/537.36 (KHTML, like Gecko) Chrome/118.0.0.0 Safari/537.36 Edg/118.0.2088.69","WebKit","Edge","118.0.2088.69","Windows","10.0","null","es,es-ES;q=0.9,en;q=0.8,en-GB;q=0.7,en-US;q=0.6","true","471","tones/440hz_short.mp3","j","","","empty_block","","44","","","","null","null",""
"","","","","","html-keyboard-response","30","212111","0.0-17.0-0.0","5","1","2023-10-26 20:39:49","a725c3012b74bf33a1020a98cb69c237","186.158.228.113","Mozilla/5.0 (Windows NT 10.0; Win64; x64) AppleWebKit/537.36 (KHTML, like Gecko) Chrome/118.0.0.0 Safari/537.36 Edg/118.0.2088.69","WebKit","Edge","118.0.2088.69","Windows","10.0","null","es,es-ES;q=0.9,en;q=0.8,en-GB;q=0.7,en-US;q=0.6","true","null","<div style=""font-size:100px;"">X</div>","null","","","fixation","","","","","","","",""
"","","","","","audio-keyboard-response","31","212321","0.0-17.0-1.0","5","1","2023-10-26 20:39:49","a725c3012b74bf33a1020a98cb69c237","186.158.228.113","Mozilla/5.0 (Windows NT 10.0; Win64; x64) AppleWebKit/537.36 (KHTML, like Gecko) Chrome/118.0.0.0 Safari/537.36 Edg/118.0.2088.69","WebKit","Edge","118.0.2088.69","Windows","10.0","null","es,es-ES;q=0.9,en;q=0.8,en-GB;q=0.7,en-US;q=0.6","true","null","tones/440hz_short.mp3","null","","","tone_number_task","50","48","tones/440hz_short.mp3","200","100","null","null",""
"","","","","","html-keyboard-response","32","212672","0.0-17.0-4.0-0.0","5","1","2023-10-26 20:39:49","a725c3012b74bf33a1020a98cb69c237","186.158.228.113","Mozilla/5.0 (Windows NT 10.0; Win64; x64) AppleWebKit/537.36 (KHTML, like Gecko) Chrome/118.0.0.0 Safari/537.36 Edg/118.0.2088.69","WebKit","Edge","118.0.2088.69","Windows","10.0","null","es,es-ES;q=0.9,en;q=0.8,en-GB;q=0.7,en-US;q=0.6","true","348","tones/440hz_short.mp3","a","","","empty_block","","48","","","","null","null",""
"","","","","","html-keyboard-response","33","213256","0.0-17.0-4.0-1.0","5","1","2023-10-26 20:39:49","a725c3012b74bf33a1020a98cb69c237","186.158.228.113","Mozilla/5.0 (Windows NT 10.0; Win64; x64) AppleWebKit/537.36 (KHTML, like Gecko) Chrome/118.0.0.0 Safari/537.36 Edg/118.0.2088.69","WebKit","Edge","118.0.2088.69","Windows","10.0","null","es,es-ES;q=0.9,en;q=0.8,en-GB;q=0.7,en-US;q=0.6","true","581","tones/440hz_short.mp3","k","","","empty_block","","48","","","","null","null",""
"","","","","","html-button-response","34","222445","0.0-19.0","5","1","2023-10-26 20:39:49","a725c3012b74bf33a1020a98cb69c237","186.158.228.113","Mozilla/5.0 (Windows NT 10.0; Win64; x64) AppleWebKit/537.36 (KHTML, like Gecko) Chrome/118.0.0.0 Safari/537.36 Edg/118.0.2088.69","WebKit","Edge","118.0.2088.69","Windows","10.0","null","es,es-ES;q=0.9,en;q=0.8,en-GB;q=0.7,en-US;q=0.6","true","9186","
  <h1> Muy bien </h1>
  <p> Ahora, en vez de ser presentados en dígitos, los números vendrán escritos en palabras. </p>
  <p> Por ejemplo, en vez de 44 te aparecerá ""cuarenta y cuatro"". </p>
  ","0","","","","","","","","","","",""
"","","","","","html-keyboard-response","35","225081","0.0-20.0-0.0","5","1","2023-10-26 20:39:49","a725c3012b74bf33a1020a98cb69c237","186.158.228.113","Mozilla/5.0 (Windows NT 10.0; Win64; x64) AppleWebKit/537.36 (KHTML, like Gecko) Chrome/118.0.0.0 Safari/537.36 Edg/118.0.2088.69","WebKit","Edge","118.0.2088.69","Windows","10.0","null","es,es-ES;q=0.9,en;q=0.8,en-GB;q=0.7,en-US;q=0.6","true","null","<div style=""font-size:100px;"">X</div>","null","","","fixation","","","","","","","",""
"","","","","","audio-keyboard-response","36","225579","0.0-20.0-1.0","5","1","2023-10-26 20:39:49","a725c3012b74bf33a1020a98cb69c237","186.158.228.113","Mozilla/5.0 (Windows NT 10.0; Win64; x64) AppleWebKit/537.36 (KHTML, like Gecko) Chrome/118.0.0.0 Safari/537.36 Edg/118.0.2088.69","WebKit","Edge","118.0.2088.69","Windows","10.0","null","es,es-ES;q=0.9,en;q=0.8,en-GB;q=0.7,en-US;q=0.6","true","491","tones/880hz_short.mp3","s","","","tone_number_task","1000","cuarenta y nueve","tones/880hz_short.mp3","1150","60","null","null",""
"","","","","","html-keyboard-response","37","226092","0.0-20.0-2.0-0.0","5","1","2023-10-26 20:39:49","a725c3012b74bf33a1020a98cb69c237","186.158.228.113","Mozilla/5.0 (Windows NT 10.0; Win64; x64) AppleWebKit/537.36 (KHTML, like Gecko) Chrome/118.0.0.0 Safari/537.36 Edg/118.0.2088.69","WebKit","Edge","118.0.2088.69","Windows","10.0","null","es,es-ES;q=0.9,en;q=0.8,en-GB;q=0.7,en-US;q=0.6","true","null","","null","","","delay_block","","","","","","null","null",""
"","","","","","html-keyboard-response","38","226252","0.0-20.0-2.0-1.0","5","1","2023-10-26 20:39:49","a725c3012b74bf33a1020a98cb69c237","186.158.228.113","Mozilla/5.0 (Windows NT 10.0; Win64; x64) AppleWebKit/537.36 (KHTML, like Gecko) Chrome/118.0.0.0 Safari/537.36 Edg/118.0.2088.69","WebKit","Edge","118.0.2088.69","Windows","10.0","null","es,es-ES;q=0.9,en;q=0.8,en-GB;q=0.7,en-US;q=0.6","true","null","<p id=""stimulus"" style=""font-size:60px;"">cuarenta y nueve</p>","null","","","tone_number_task_remaining_before_delay","","cuarenta y nueve","","659","60","null","null",""
"","","","","","html-keyboard-response","39","226951","0.0-20.0-5.0-0.0","5","1","2023-10-26 20:39:49","a725c3012b74bf33a1020a98cb69c237","186.158.228.113","Mozilla/5.0 (Windows NT 10.0; Win64; x64) AppleWebKit/537.36 (KHTML, like Gecko) Chrome/118.0.0.0 Safari/537.36 Edg/118.0.2088.69","WebKit","Edge","118.0.2088.69","Windows","10.0","null","es,es-ES;q=0.9,en;q=0.8,en-GB;q=0.7,en-US;q=0.6","true","696","<p id=""stimulus"" style=""font-size:60px;"">cuarenta y nueve</p>","k","","","empty_block","","cuarenta y nueve","","","","null","null",""
"","","","","","html-button-response","40","241923","0.0-22.0","5","1","2023-10-26 20:39:49","a725c3012b74bf33a1020a98cb69c237","186.158.228.113","Mozilla/5.0 (Windows NT 10.0; Win64; x64) AppleWebKit/537.36 (KHTML, like Gecko) Chrome/118.0.0.0 Safari/537.36 Edg/118.0.2088.69","WebKit","Edge","118.0.2088.69","Windows","10.0","null","es,es-ES;q=0.9,en;q=0.8,en-GB;q=0.7,en-US;q=0.6","true","14963","
  <h1> Fin del Entrenamiento </h1>
  <p> ¡Felicitaciones, terminaste el entrenamiento! Ahora vamos a comenzar con el experimento. </p>
  <p> Es importante tener en cuenta que consta de cuatro bloques.</p>
  <p> Podés aprovechar los momentos entre bloques para tomar un breve descanso o tomar agua entre cada uno</p>
  <p> Recordá que tenés que responder lo más rápido que puedas, pero sin equivocarte. </p>
  ","0","","","","","","","","","","",""
"","","","","","external-html","41","263459","0.0-23.0","5","1","2023-10-26 20:39:49","a725c3012b74bf33a1020a98cb69c237","186.158.228.113","Mozilla/5.0 (Windows NT 10.0; Win64; x64) AppleWebKit/537.36 (KHTML, like Gecko) Chrome/118.0.0.0 Safari/537.36 Edg/118.0.2088.69","WebKit","Edge","118.0.2088.69","Windows","10.0","null","es,es-ES;q=0.9,en;q=0.8,en-GB;q=0.7,en-US;q=0.6","true","21062","","","","instructions/instructions_digits_first.html","","","","","","","","",""
"","","","","","call-function","42","263472","0.0-24.0","5","1","2023-10-26 20:39:49","a725c3012b74bf33a1020a98cb69c237","186.158.228.113","Mozilla/5.0 (Windows NT 10.0; Win64; x64) AppleWebKit/537.36 (KHTML, like Gecko) Chrome/118.0.0.0 Safari/537.36 Edg/118.0.2088.69","WebKit","Edge","118.0.2088.69","Windows","10.0","null","es,es-ES;q=0.9,en;q=0.8,en-GB;q=0.7,en-US;q=0.6","true","","","","","","","","","","","","","",""
"","","","","","html-keyboard-response","43","266107","0.0-25.0","5","1","2023-10-26 20:39:49","a725c3012b74bf33a1020a98cb69c237","186.158.228.113","Mozilla/5.0 (Windows NT 10.0; Win64; x64) AppleWebKit/537.36 (KHTML, like Gecko) Chrome/118.0.0.0 Safari/537.36 Edg/118.0.2088.69","WebKit","Edge","118.0.2088.69","Windows","10.0","null","es,es-ES;q=0.9,en;q=0.8,en-GB;q=0.7,en-US;q=0.6","true","null","<div style=""font-size:100px;"">X</div>","null","","","fixation","","","","","","","",""
"","","","","","audio-keyboard-response","44","266747","0.0-26.0","5","1","2023-10-26 20:39:49","a725c3012b74bf33a1020a98cb69c237","186.158.228.113","Mozilla/5.0 (Windows NT 10.0; Win64; x64) AppleWebKit/537.36 (KHTML, like Gecko) Chrome/118.0.0.0 Safari/537.36 Edg/118.0.2088.69","WebKit","Edge","118.0.2088.69","Windows","10.0","null","es,es-ES;q=0.9,en;q=0.8,en-GB;q=0.7,en-US;q=0.6","true","600","tones/440hz_short.mp3","a","","","tone_number_task","992.5","49","tones/440hz_short.mp3","1142.5","100","0","0",""
"","","","","","html-keyboard-response","45","267147","0.0-27.0-0.0","5","1","2023-10-26 20:39:49","a725c3012b74bf33a1020a98cb69c237","186.158.228.113","Mozilla/5.0 (Windows NT 10.0; Win64; x64) AppleWebKit/537.36 (KHTML, like Gecko) Chrome/118.0.0.0 Safari/537.36 Edg/118.0.2088.69","WebKit","Edge","118.0.2088.69","Windows","10.0","null","es,es-ES;q=0.9,en;q=0.8,en-GB;q=0.7,en-US;q=0.6","true","null","","null","","","delay_block","","","","","","0","0",""
"","","","","","html-keyboard-response","46","267303","0.0-27.0-1.0","5","1","2023-10-26 20:39:49","a725c3012b74bf33a1020a98cb69c237","186.158.228.113","Mozilla/5.0 (Windows NT 10.0; Win64; x64) AppleWebKit/537.36 (KHTML, like Gecko) Chrome/118.0.0.0 Safari/537.36 Edg/118.0.2088.69","WebKit","Edge","118.0.2088.69","Windows","10.0","null","es,es-ES;q=0.9,en;q=0.8,en-GB;q=0.7,en-US;q=0.6","true","null","<p id=""stimulus"" style=""font-size:100px;"">49</p>","null","","","tone_number_task_remaining_before_delay","","49","","542.5","100","0","0",""
"","","","","","html-keyboard-response","47","267739","0.0-30.0-0.0","5","1","2023-10-26 20:39:49","a725c3012b74bf33a1020a98cb69c237","186.158.228.113","Mozilla/5.0 (Windows NT 10.0; Win64; x64) AppleWebKit/537.36 (KHTML, like Gecko) Chrome/118.0.0.0 Safari/537.36 Edg/118.0.2088.69","WebKit","Edge","118.0.2088.69","Windows","10.0","null","es,es-ES;q=0.9,en;q=0.8,en-GB;q=0.7,en-US;q=0.6","true","433","<p id=""stimulus"" style=""font-size:100px;"">49</p>","k","","","empty_block","","49","","","","0","0",""
"","","","","","html-keyboard-response","48","270368","0.0-31.0","5","1","2023-10-26 20:39:49","a725c3012b74bf33a1020a98cb69c237","186.158.228.113","Mozilla/5.0 (Windows NT 10.0; Win64; x64) AppleWebKit/537.36 (KHTML, like Gecko) Chrome/118.0.0.0 Safari/537.36 Edg/118.0.2088.69","WebKit","Edge","118.0.2088.69","Windows","10.0","null","es,es-ES;q=0.9,en;q=0.8,en-GB;q=0.7,en-US;q=0.6","true","null","<div style=""font-size:100px;"">X</div>","null","","","fixation","","","","","","","",""
"","","","","","audio-keyboard-response","49","270954","0.0-32.0","5","1","2023-10-26 20:39:49","a725c3012b74bf33a1020a98cb69c237","186.158.228.113","Mozilla/5.0 (Windows NT 10.0; Win64; x64) AppleWebKit/537.36 (KHTML, like Gecko) Chrome/118.0.0.0 Safari/537.36 Edg/118.0.2088.69","WebKit","Edge","118.0.2088.69","Windows","10.0","null","es,es-ES;q=0.9,en;q=0.8,en-GB;q=0.7,en-US;q=0.6","true","579","tones/880hz_short.mp3","s","","","tone_number_task","992.5","58","tones/880hz_short.mp3","1142.5","100","0","1",""
"","","","","","html-keyboard-response","50","271378","0.0-33.0-0.0","5","1","2023-10-26 20:39:49","a725c3012b74bf33a1020a98cb69c237","186.158.228.113","Mozilla/5.0 (Windows NT 10.0; Win64; x64) AppleWebKit/537.36 (KHTML, like Gecko) Chrome/118.0.0.0 Safari/537.36 Edg/118.0.2088.69","WebKit","Edge","118.0.2088.69","Windows","10.0","null","es,es-ES;q=0.9,en;q=0.8,en-GB;q=0.7,en-US;q=0.6","true","null","","null","","","delay_block","","","","","","0","1",""
"","","","","","html-keyboard-response","51","271548","0.0-33.0-1.0","5","1","2023-10-26 20:39:49","a725c3012b74bf33a1020a98cb69c237","186.158.228.113","Mozilla/5.0 (Windows NT 10.0; Win64; x64) AppleWebKit/537.36 (KHTML, like Gecko) Chrome/118.0.0.0 Safari/537.36 Edg/118.0.2088.69","WebKit","Edge","118.0.2088.69","Windows","10.0","null","es,es-ES;q=0.9,en;q=0.8,en-GB;q=0.7,en-US;q=0.6","true","null","<p id=""stimulus"" style=""font-size:100px;"">58</p>","null","","","tone_number_task_remaining_before_delay","","58","","563.5","100","0","1",""
"","","","","","html-keyboard-response","52","271793","0.0-36.0-0.0","5","1","2023-10-26 20:39:49","a725c3012b74bf33a1020a98cb69c237","186.158.228.113","Mozilla/5.0 (Windows NT 10.0; Win64; x64) AppleWebKit/537.36 (KHTML, like Gecko) Chrome/118.0.0.0 Safari/537.36 Edg/118.0.2088.69","WebKit","Edge","118.0.2088.69","Windows","10.0","null","es,es-ES;q=0.9,en;q=0.8,en-GB;q=0.7,en-US;q=0.6","true","242","<p id=""stimulus"" style=""font-size:100px;"">58</p>","k","","","empty_block","","58","","","","0","1",""
"","","","","","html-keyboard-response","53","274427","0.0-37.0","5","1","2023-10-26 20:39:49","a725c3012b74bf33a1020a98cb69c237","186.158.228.113","Mozilla/5.0 (Windows NT 10.0; Win64; x64) AppleWebKit/537.36 (KHTML, like Gecko) Chrome/118.0.0.0 Safari/537.36 Edg/118.0.2088.69","WebKit","Edge","118.0.2088.69","Windows","10.0","null","es,es-ES;q=0.9,en;q=0.8,en-GB;q=0.7,en-US;q=0.6","true","null","<div style=""font-size:100px;"">X</div>","null","","","fixation","","","","","","","",""
"","","","","","audio-keyboard-response","54","274686","0.0-38.0","5","1","2023-10-26 20:39:49","a725c3012b74bf33a1020a98cb69c237","186.158.228.113","Mozilla/5.0 (Windows NT 10.0; Win64; x64) AppleWebKit/537.36 (KHTML, like Gecko) Chrome/118.0.0.0 Safari/537.36 Edg/118.0.2088.69","WebKit","Edge","118.0.2088.69","Windows","10.0","null","es,es-ES;q=0.9,en;q=0.8,en-GB;q=0.7,en-US;q=0.6","true","null","tones/440hz_short.mp3","null","","","tone_number_task","102.5","57","tones/440hz_short.mp3","252.5","100","0","2",""
"","","","","","html-keyboard-response","55","275093","0.0-41.0-0.0","5","1","2023-10-26 20:39:49","a725c3012b74bf33a1020a98cb69c237","186.158.228.113","Mozilla/5.0 (Windows NT 10.0; Win64; x64) AppleWebKit/537.36 (KHTML, like Gecko) Chrome/118.0.0.0 Safari/537.36 Edg/118.0.2088.69","WebKit","Edge","118.0.2088.69","Windows","10.0","null","es,es-ES;q=0.9,en;q=0.8,en-GB;q=0.7,en-US;q=0.6","true","404","tones/440hz_short.mp3","a","","","empty_block","","57","","","","0","2",""
"","","","","","html-keyboard-response","56","275403","0.0-41.0-1.0","5","1","2023-10-26 20:39:49","a725c3012b74bf33a1020a98cb69c237","186.158.228.113","Mozilla/5.0 (Windows NT 10.0; Win64; x64) AppleWebKit/537.36 (KHTML, like Gecko) Chrome/118.0.0.0 Safari/537.36 Edg/118.0.2088.69","WebKit","Edge","118.0.2088.69","Windows","10.0","null","es,es-ES;q=0.9,en;q=0.8,en-GB;q=0.7,en-US;q=0.6","true","305","tones/440hz_short.mp3","j","","","empty_block","","57","","","","0","2",""
"","","","","","html-keyboard-response","57","278037","0.0-43.0","5","1","2023-10-26 20:39:49","a725c3012b74bf33a1020a98cb69c237","186.158.228.113","Mozilla/5.0 (Windows NT 10.0; Win64; x64) AppleWebKit/537.36 (KHTML, like Gecko) Chrome/118.0.0.0 Safari/537.36 Edg/118.0.2088.69","WebKit","Edge","118.0.2088.69","Windows","10.0","null","es,es-ES;q=0.9,en;q=0.8,en-GB;q=0.7,en-US;q=0.6","true","null","<div style=""font-size:100px;"">X</div>","null","","","fixation","","","","","","","",""
"","","","","","audio-keyboard-response","58","278197","0.0-44.0","5","1","2023-10-26 20:39:49","a725c3012b74bf33a1020a98cb69c237","186.158.228.113","Mozilla/5.0 (Windows NT 10.0; Win64; x64) AppleWebKit/537.36 (KHTML, like Gecko) Chrome/118.0.0.0 Safari/537.36 Edg/118.0.2088.69","WebKit","Edge","118.0.2088.69","Windows","10.0","null","es,es-ES;q=0.9,en;q=0.8,en-GB;q=0.7,en-US;q=0.6","true","null","tones/880hz_short.mp3","null","","","tone_number_task","0","23","tones/880hz_short.mp3","150","100","0","3",""
"","","","","","html-keyboard-response","59","278621","0.0-47.0-0.0","5","1","2023-10-26 20:39:49","a725c3012b74bf33a1020a98cb69c237","186.158.228.113","Mozilla/5.0 (Windows NT 10.0; Win64; x64) AppleWebKit/537.36 (KHTML, like Gecko) Chrome/118.0.0.0 Safari/537.36 Edg/118.0.2088.69","WebKit","Edge","118.0.2088.69","Windows","10.0","null","es,es-ES;q=0.9,en;q=0.8,en-GB;q=0.7,en-US;q=0.6","true","421","tones/880hz_short.mp3","a","","","empty_block","","23","","","","0","3",""
"","","","","","html-keyboard-response","60","279087","0.0-47.0-1.0","5","1","2023-10-26 20:39:49","a725c3012b74bf33a1020a98cb69c237","186.158.228.113","Mozilla/5.0 (Windows NT 10.0; Win64; x64) AppleWebKit/537.36 (KHTML, like Gecko) Chrome/118.0.0.0 Safari/537.36 Edg/118.0.2088.69","WebKit","Edge","118.0.2088.69","Windows","10.0","null","es,es-ES;q=0.9,en;q=0.8,en-GB;q=0.7,en-US;q=0.6","true","463","tones/880hz_short.mp3","k","","","empty_block","","23","","","","0","3",""
"","","","","","html-keyboard-response","61","281717","0.0-49.0","5","1","2023-10-26 20:39:49","a725c3012b74bf33a1020a98cb69c237","186.158.228.113","Mozilla/5.0 (Windows NT 10.0; Win64; x64) AppleWebKit/537.36 (KHTML, like Gecko) Chrome/118.0.0.0 Safari/537.36 Edg/118.0.2088.69","WebKit","Edge","118.0.2088.69","Windows","10.0","null","es,es-ES;q=0.9,en;q=0.8,en-GB;q=0.7,en-US;q=0.6","true","null","<div style=""font-size:100px;"">X</div>","null","","","fixation","","","","","","","",""
"","","","","","audio-keyboard-response","62","282382","0.0-50.0","5","1","2023-10-26 20:39:49","a725c3012b74bf33a1020a98cb69c237","186.158.228.113","Mozilla/5.0 (Windows NT 10.0; Win64; x64) AppleWebKit/537.36 (KHTML, like Gecko) Chrome/118.0.0.0 Safari/537.36 Edg/118.0.2088.69","WebKit","Edge","118.0.2088.69","Windows","10.0","null","es,es-ES;q=0.9,en;q=0.8,en-GB;q=0.7,en-US;q=0.6","true","659","tones/440hz_short.mp3","a","","","tone_number_task","1025","67","tones/440hz_short.mp3","1175","100","0","4",""
"","","","","","html-keyboard-response","63","282758","0.0-51.0-0.0","5","1","2023-10-26 20:39:49","a725c3012b74bf33a1020a98cb69c237","186.158.228.113","Mozilla/5.0 (Windows NT 10.0; Win64; x64) AppleWebKit/537.36 (KHTML, like Gecko) Chrome/118.0.0.0 Safari/537.36 Edg/118.0.2088.69","WebKit","Edge","118.0.2088.69","Windows","10.0","null","es,es-ES;q=0.9,en;q=0.8,en-GB;q=0.7,en-US;q=0.6","true","null","","null","","","delay_block","","","","","","0","4",""
"","","","","","html-keyboard-response","64","282918","0.0-51.0-1.0","5","1","2023-10-26 20:39:49","a725c3012b74bf33a1020a98cb69c237","186.158.228.113","Mozilla/5.0 (Windows NT 10.0; Win64; x64) AppleWebKit/537.36 (KHTML, like Gecko) Chrome/118.0.0.0 Safari/537.36 Edg/118.0.2088.69","WebKit","Edge","118.0.2088.69","Windows","10.0","null","es,es-ES;q=0.9,en;q=0.8,en-GB;q=0.7,en-US;q=0.6","true","null","<p id=""stimulus"" style=""font-size:100px;"">67</p>","null","","","tone_number_task_remaining_before_delay","","67","","516","100","0","4",""
"","","","","","html-keyboard-response","65","283171","0.0-54.0-0.0","5","1","2023-10-26 20:39:49","a725c3012b74bf33a1020a98cb69c237","186.158.228.113","Mozilla/5.0 (Windows NT 10.0; Win64; x64) AppleWebKit/537.36 (KHTML, like Gecko) Chrome/118.0.0.0 Safari/537.36 Edg/118.0.2088.69","WebKit","Edge","118.0.2088.69","Windows","10.0","null","es,es-ES;q=0.9,en;q=0.8,en-GB;q=0.7,en-US;q=0.6","true","250","<p id=""stimulus"" style=""font-size:100px;"">67</p>","k","","","empty_block","","67","","","","0","4",""
"","","","","","html-keyboard-response","66","285808","0.0-55.0","5","1","2023-10-26 20:39:49","a725c3012b74bf33a1020a98cb69c237","186.158.228.113","Mozilla/5.0 (Windows NT 10.0; Win64; x64) AppleWebKit/537.36 (KHTML, like Gecko) Chrome/118.0.0.0 Safari/537.36 Edg/118.0.2088.69","WebKit","Edge","118.0.2088.69","Windows","10.0","null","es,es-ES;q=0.9,en;q=0.8,en-GB;q=0.7,en-US;q=0.6","true","null","<div style=""font-size:100px;"">X</div>","null","","","fixation","","","","","","","",""
"","","","","","audio-keyboard-response","67","285968","0.0-56.0","5","1","2023-10-26 20:39:49","a725c3012b74bf33a1020a98cb69c237","186.158.228.113","Mozilla/5.0 (Windows NT 10.0; Win64; x64) AppleWebKit/537.36 (KHTML, like Gecko) Chrome/118.0.0.0 Safari/537.36 Edg/118.0.2088.69","WebKit","Edge","118.0.2088.69","Windows","10.0","null","es,es-ES;q=0.9,en;q=0.8,en-GB;q=0.7,en-US;q=0.6","true","null","tones/440hz_short.mp3","null","","","tone_number_task","0","40","tones/440hz_short.mp3","150","100","0","5",""
"","","","","","html-keyboard-response","68","286471","0.0-59.0-0.0","5","1","2023-10-26 20:39:49","a725c3012b74bf33a1020a98cb69c237","186.158.228.113","Mozilla/5.0 (Windows NT 10.0; Win64; x64) AppleWebKit/537.36 (KHTML, like Gecko) Chrome/118.0.0.0 Safari/537.36 Edg/118.0.2088.69","WebKit","Edge","118.0.2088.69","Windows","10.0","null","es,es-ES;q=0.9,en;q=0.8,en-GB;q=0.7,en-US;q=0.6","true","500","tones/440hz_short.mp3","a","","","empty_block","","40","","","","0","5",""
"","","","","","html-keyboard-response","69","286779","0.0-59.0-1.0","5","1","2023-10-26 20:39:49","a725c3012b74bf33a1020a98cb69c237","186.158.228.113","Mozilla/5.0 (Windows NT 10.0; Win64; x64) AppleWebKit/537.36 (KHTML, like Gecko) Chrome/118.0.0.0 Safari/537.36 Edg/118.0.2088.69","WebKit","Edge","118.0.2088.69","Windows","10.0","null","es,es-ES;q=0.9,en;q=0.8,en-GB;q=0.7,en-US;q=0.6","true","304","tones/440hz_short.mp3","j","","","empty_block","","40","","","","0","5",""
"","","","","","html-keyboard-response","70","289408","0.0-61.0","5","1","2023-10-26 20:39:49","a725c3012b74bf33a1020a98cb69c237","186.158.228.113","Mozilla/5.0 (Windows NT 10.0; Win64; x64) AppleWebKit/537.36 (KHTML, like Gecko) Chrome/118.0.0.0 Safari/537.36 Edg/118.0.2088.69","WebKit","Edge","118.0.2088.69","Windows","10.0","null","es,es-ES;q=0.9,en;q=0.8,en-GB;q=0.7,en-US;q=0.6","true","null","<div style=""font-size:100px;"">X</div>","null","","","fixation","","","","","","","",""
"","","","","","audio-keyboard-response","71","289667","0.0-62.0","5","1","2023-10-26 20:39:49","a725c3012b74bf33a1020a98cb69c237","186.158.228.113","Mozilla/5.0 (Windows NT 10.0; Win64; x64) AppleWebKit/537.36 (KHTML, like Gecko) Chrome/118.0.0.0 Safari/537.36 Edg/118.0.2088.69","WebKit","Edge","118.0.2088.69","Windows","10.0","null","es,es-ES;q=0.9,en;q=0.8,en-GB;q=0.7,en-US;q=0.6","true","null","tones/440hz_short.mp3","null","","","tone_number_task","102.5","29","tones/440hz_short.mp3","252.5","100","0","6",""
"","","","","","html-keyboard-response","72","289947","0.0-65.0-0.0","5","1","2023-10-26 20:39:49","a725c3012b74bf33a1020a98cb69c237","186.158.228.113","Mozilla/5.0 (Windows NT 10.0; Win64; x64) AppleWebKit/537.36 (KHTML, like Gecko) Chrome/118.0.0.0 Safari/537.36 Edg/118.0.2088.69","WebKit","Edge","118.0.2088.69","Windows","10.0","null","es,es-ES;q=0.9,en;q=0.8,en-GB;q=0.7,en-US;q=0.6","true","276","tones/440hz_short.mp3","a","","","empty_block","","29","","","","0","6",""
"","","","","","html-keyboard-response","73","290225","0.0-65.0-1.0","5","1","2023-10-26 20:39:49","a725c3012b74bf33a1020a98cb69c237","186.158.228.113","Mozilla/5.0 (Windows NT 10.0; Win64; x64) AppleWebKit/537.36 (KHTML, like Gecko) Chrome/118.0.0.0 Safari/537.36 Edg/118.0.2088.69","WebKit","Edge","118.0.2088.69","Windows","10.0","null","es,es-ES;q=0.9,en;q=0.8,en-GB;q=0.7,en-US;q=0.6","true","274","tones/440hz_short.mp3","j","","","empty_block","","29","","","","0","6",""
"","","","","","html-keyboard-response","74","292858","0.0-67.0","5","1","2023-10-26 20:39:49","a725c3012b74bf33a1020a98cb69c237","186.158.228.113","Mozilla/5.0 (Windows NT 10.0; Win64; x64) AppleWebKit/537.36 (KHTML, like Gecko) Chrome/118.0.0.0 Safari/537.36 Edg/118.0.2088.69","WebKit","Edge","118.0.2088.69","Windows","10.0","null","es,es-ES;q=0.9,en;q=0.8,en-GB;q=0.7,en-US;q=0.6","true","null","<div style=""font-size:100px;"">X</div>","null","","","fixation","","","","","","","",""
"","","","","","audio-keyboard-response","75","293380","0.0-68.0","5","1","2023-10-26 20:39:49","a725c3012b74bf33a1020a98cb69c237","186.158.228.113","Mozilla/5.0 (Windows NT 10.0; Win64; x64) AppleWebKit/537.36 (KHTML, like Gecko) Chrome/118.0.0.0 Safari/537.36 Edg/118.0.2088.69","WebKit","Edge","118.0.2088.69","Windows","10.0","null","es,es-ES;q=0.9,en;q=0.8,en-GB;q=0.7,en-US;q=0.6","true","520","tones/440hz_short.mp3","a","","","tone_number_task","992.5","48","tones/440hz_short.mp3","1142.5","100","0","7",""
"","","","","","html-keyboard-response","76","293858","0.0-69.0-0.0","5","1","2023-10-26 20:39:49","a725c3012b74bf33a1020a98cb69c237","186.158.228.113","Mozilla/5.0 (Windows NT 10.0; Win64; x64) AppleWebKit/537.36 (KHTML, like Gecko) Chrome/118.0.0.0 Safari/537.36 Edg/118.0.2088.69","WebKit","Edge","118.0.2088.69","Windows","10.0","null","es,es-ES;q=0.9,en;q=0.8,en-GB;q=0.7,en-US;q=0.6","true","null","","null","","","delay_block","","","","","","0","7",""
"","","","","","html-keyboard-response","77","294018","0.0-69.0-1.0","5","1","2023-10-26 20:39:49","a725c3012b74bf33a1020a98cb69c237","186.158.228.113","Mozilla/5.0 (Windows NT 10.0; Win64; x64) AppleWebKit/537.36 (KHTML, like Gecko) Chrome/118.0.0.0 Safari/537.36 Edg/118.0.2088.69","WebKit","Edge","118.0.2088.69","Windows","10.0","null","es,es-ES;q=0.9,en;q=0.8,en-GB;q=0.7,en-US;q=0.6","true","null","<p id=""stimulus"" style=""font-size:100px;"">48</p>","null","","","tone_number_task_remaining_before_delay","","48","","622.5","100","0","7",""
"","","","","","html-keyboard-response","78","294279","0.0-72.0-0.0","5","1","2023-10-26 20:39:49","a725c3012b74bf33a1020a98cb69c237","186.158.228.113","Mozilla/5.0 (Windows NT 10.0; Win64; x64) AppleWebKit/537.36 (KHTML, like Gecko) Chrome/118.0.0.0 Safari/537.36 Edg/118.0.2088.69","WebKit","Edge","118.0.2088.69","Windows","10.0","null","es,es-ES;q=0.9,en;q=0.8,en-GB;q=0.7,en-US;q=0.6","true","257","<p id=""stimulus"" style=""font-size:100px;"">48</p>","j","","","empty_block","","48","","","","0","7",""
"","","","","","html-keyboard-response","79","296915","0.0-73.0","5","1","2023-10-26 20:39:49","a725c3012b74bf33a1020a98cb69c237","186.158.228.113","Mozilla/5.0 (Windows NT 10.0; Win64; x64) AppleWebKit/537.36 (KHTML, like Gecko) Chrome/118.0.0.0 Safari/537.36 Edg/118.0.2088.69","WebKit","Edge","118.0.2088.69","Windows","10.0","null","es,es-ES;q=0.9,en;q=0.8,en-GB;q=0.7,en-US;q=0.6","true","null","<div style=""font-size:100px;"">X</div>","null","","","fixation","","","","","","","",""
"","","","","","audio-keyboard-response","80","297178","0.0-74.0","5","1","2023-10-26 20:39:49","a725c3012b74bf33a1020a98cb69c237","186.158.228.113","Mozilla/5.0 (Windows NT 10.0; Win64; x64) AppleWebKit/537.36 (KHTML, like Gecko) Chrome/118.0.0.0 Safari/537.36 Edg/118.0.2088.69","WebKit","Edge","118.0.2088.69","Windows","10.0","null","es,es-ES;q=0.9,en;q=0.8,en-GB;q=0.7,en-US;q=0.6","true","null","tones/880hz_short.mp3","null","","","tone_number_task","102.5","31","tones/880hz_short.mp3","252.5","100","0","8",""
"","","","","","html-keyboard-response","81","297411","0.0-77.0-0.0","5","1","2023-10-26 20:39:49","a725c3012b74bf33a1020a98cb69c237","186.158.228.113","Mozilla/5.0 (Windows NT 10.0; Win64; x64) AppleWebKit/537.36 (KHTML, like Gecko) Chrome/118.0.0.0 Safari/537.36 Edg/118.0.2088.69","WebKit","Edge","118.0.2088.69","Windows","10.0","null","es,es-ES;q=0.9,en;q=0.8,en-GB;q=0.7,en-US;q=0.6","true","229","tones/880hz_short.mp3","s","","","empty_block","","31","","","","0","8",""
"","","","","","html-keyboard-response","82","297816","0.0-77.0-1.0","5","1","2023-10-26 20:39:49","a725c3012b74bf33a1020a98cb69c237","186.158.228.113","Mozilla/5.0 (Windows NT 10.0; Win64; x64) AppleWebKit/537.36 (KHTML, like Gecko) Chrome/118.0.0.0 Safari/537.36 Edg/118.0.2088.69","WebKit","Edge","118.0.2088.69","Windows","10.0","null","es,es-ES;q=0.9,en;q=0.8,en-GB;q=0.7,en-US;q=0.6","true","401","tones/880hz_short.mp3","j","","","empty_block","","31","","","","0","8",""
"","","","","","html-keyboard-response","83","300447","0.0-79.0","5","1","2023-10-26 20:39:49","a725c3012b74bf33a1020a98cb69c237","186.158.228.113","Mozilla/5.0 (Windows NT 10.0; Win64; x64) AppleWebKit/537.36 (KHTML, like Gecko) Chrome/118.0.0.0 Safari/537.36 Edg/118.0.2088.69","WebKit","Edge","118.0.2088.69","Windows","10.0","null","es,es-ES;q=0.9,en;q=0.8,en-GB;q=0.7,en-US;q=0.6","true","null","<div style=""font-size:100px;"">X</div>","null","","","fixation","","","","","","","",""
"","","","","","audio-keyboard-response","84","301081","0.0-80.0","5","1","2023-10-26 20:39:49","a725c3012b74bf33a1020a98cb69c237","186.158.228.113","Mozilla/5.0 (Windows NT 10.0; Win64; x64) AppleWebKit/537.36 (KHTML, like Gecko) Chrome/118.0.0.0 Safari/537.36 Edg/118.0.2088.69","WebKit","Edge","118.0.2088.69","Windows","10.0","null","es,es-ES;q=0.9,en;q=0.8,en-GB;q=0.7,en-US;q=0.6","true","629","tones/440hz_short.mp3","a","","","tone_number_task","1025","53","tones/440hz_short.mp3","1175","100","0","9",""
"","","","","","html-keyboard-response","85","301487","0.0-81.0-0.0","5","1","2023-10-26 20:39:49","a725c3012b74bf33a1020a98cb69c237","186.158.228.113","Mozilla/5.0 (Windows NT 10.0; Win64; x64) AppleWebKit/537.36 (KHTML, like Gecko) Chrome/118.0.0.0 Safari/537.36 Edg/118.0.2088.69","WebKit","Edge","118.0.2088.69","Windows","10.0","null","es,es-ES;q=0.9,en;q=0.8,en-GB;q=0.7,en-US;q=0.6","true","null","","null","","","delay_block","","","","","","0","9",""
"","","","","","html-keyboard-response","86","301647","0.0-81.0-1.0","5","1","2023-10-26 20:39:49","a725c3012b74bf33a1020a98cb69c237","186.158.228.113","Mozilla/5.0 (Windows NT 10.0; Win64; x64) AppleWebKit/537.36 (KHTML, like Gecko) Chrome/118.0.0.0 Safari/537.36 Edg/118.0.2088.69","WebKit","Edge","118.0.2088.69","Windows","10.0","null","es,es-ES;q=0.9,en;q=0.8,en-GB;q=0.7,en-US;q=0.6","true","null","<p id=""stimulus"" style=""font-size:100px;"">53</p>","null","","","tone_number_task_remaining_before_delay","","53","","546","100","0","9",""
"","","","","","html-keyboard-response","87","301910","0.0-84.0-0.0","5","1","2023-10-26 20:39:49","a725c3012b74bf33a1020a98cb69c237","186.158.228.113","Mozilla/5.0 (Windows NT 10.0; Win64; x64) AppleWebKit/537.36 (KHTML, like Gecko) Chrome/118.0.0.0 Safari/537.36 Edg/118.0.2088.69","WebKit","Edge","118.0.2088.69","Windows","10.0","null","es,es-ES;q=0.9,en;q=0.8,en-GB;q=0.7,en-US;q=0.6","true","259","<p id=""stimulus"" style=""font-size:100px;"">53</p>","k","","","empty_block","","53","","","","0","9",""
"","","","","","html-keyboard-response","88","304548","0.0-85.0","5","1","2023-10-26 20:39:49","a725c3012b74bf33a1020a98cb69c237","186.158.228.113","Mozilla/5.0 (Windows NT 10.0; Win64; x64) AppleWebKit/537.36 (KHTML, like Gecko) Chrome/118.0.0.0 Safari/537.36 Edg/118.0.2088.69","WebKit","Edge","118.0.2088.69","Windows","10.0","null","es,es-ES;q=0.9,en;q=0.8,en-GB;q=0.7,en-US;q=0.6","true","null","<div style=""font-size:100px;"">X</div>","null","","","fixation","","","","","","","",""
"","","","","","audio-keyboard-response","89","304707","0.0-86.0","5","1","2023-10-26 20:39:49","a725c3012b74bf33a1020a98cb69c237","186.158.228.113","Mozilla/5.0 (Windows NT 10.0; Win64; x64) AppleWebKit/537.36 (KHTML, like Gecko) Chrome/118.0.0.0 Safari/537.36 Edg/118.0.2088.69","WebKit","Edge","118.0.2088.69","Windows","10.0","null","es,es-ES;q=0.9,en;q=0.8,en-GB;q=0.7,en-US;q=0.6","true","null","tones/880hz_short.mp3","null","","","tone_number_task","0","32","tones/880hz_short.mp3","150","100","0","10",""
"","","","","","html-keyboard-response","90","305185","0.0-89.0-0.0","5","1","2023-10-26 20:39:49","a725c3012b74bf33a1020a98cb69c237","186.158.228.113","Mozilla/5.0 (Windows NT 10.0; Win64; x64) AppleWebKit/537.36 (KHTML, like Gecko) Chrome/118.0.0.0 Safari/537.36 Edg/118.0.2088.69","WebKit","Edge","118.0.2088.69","Windows","10.0","null","es,es-ES;q=0.9,en;q=0.8,en-GB;q=0.7,en-US;q=0.6","true","474","tones/880hz_short.mp3","s","","","empty_block","","32","","","","0","10",""
"","","","","","html-keyboard-response","91","305558","0.0-89.0-1.0","5","1","2023-10-26 20:39:49","a725c3012b74bf33a1020a98cb69c237","186.158.228.113","Mozilla/5.0 (Windows NT 10.0; Win64; x64) AppleWebKit/537.36 (KHTML, like Gecko) Chrome/118.0.0.0 Safari/537.36 Edg/118.0.2088.69","WebKit","Edge","118.0.2088.69","Windows","10.0","null","es,es-ES;q=0.9,en;q=0.8,en-GB;q=0.7,en-US;q=0.6","true","370","tones/880hz_short.mp3","j","","","empty_block","","32","","","","0","10",""
"","","","","","html-keyboard-response","92","308198","0.0-91.0","5","1","2023-10-26 20:39:49","a725c3012b74bf33a1020a98cb69c237","186.158.228.113","Mozilla/5.0 (Windows NT 10.0; Win64; x64) AppleWebKit/537.36 (KHTML, like Gecko) Chrome/118.0.0.0 Safari/537.36 Edg/118.0.2088.69","WebKit","Edge","118.0.2088.69","Windows","10.0","null","es,es-ES;q=0.9,en;q=0.8,en-GB;q=0.7,en-US;q=0.6","true","null","<div style=""font-size:100px;"">X</div>","null","","","fixation","","","","","","","",""
"","","","","","audio-keyboard-response","93","308625","0.0-92.0","5","1","2023-10-26 20:39:49","a725c3012b74bf33a1020a98cb69c237","186.158.228.113","Mozilla/5.0 (Windows NT 10.0; Win64; x64) AppleWebKit/537.36 (KHTML, like Gecko) Chrome/118.0.0.0 Safari/537.36 Edg/118.0.2088.69","WebKit","Edge","118.0.2088.69","Windows","10.0","null","es,es-ES;q=0.9,en;q=0.8,en-GB;q=0.7,en-US;q=0.6","true","419","tones/880hz_short.mp3","s","","","tone_number_task","992.5","64","tones/880hz_short.mp3","1142.5","100","0","11",""
"","","","","","html-keyboard-response","94","309207","0.0-93.0-0.0","5","1","2023-10-26 20:39:49","a725c3012b74bf33a1020a98cb69c237","186.158.228.113","Mozilla/5.0 (Windows NT 10.0; Win64; x64) AppleWebKit/537.36 (KHTML, like Gecko) Chrome/118.0.0.0 Safari/537.36 Edg/118.0.2088.69","WebKit","Edge","118.0.2088.69","Windows","10.0","null","es,es-ES;q=0.9,en;q=0.8,en-GB;q=0.7,en-US;q=0.6","true","null","","null","","","delay_block","","","","","","0","11",""
"","","","","","html-keyboard-response","95","309367","0.0-93.0-1.0","5","1","2023-10-26 20:39:49","a725c3012b74bf33a1020a98cb69c237","186.158.228.113","Mozilla/5.0 (Windows NT 10.0; Win64; x64) AppleWebKit/537.36 (KHTML, like Gecko) Chrome/118.0.0.0 Safari/537.36 Edg/118.0.2088.69","WebKit","Edge","118.0.2088.69","Windows","10.0","null","es,es-ES;q=0.9,en;q=0.8,en-GB;q=0.7,en-US;q=0.6","true","null","<p id=""stimulus"" style=""font-size:100px;"">64</p>","null","","","tone_number_task_remaining_before_delay","","64","","723.5","100","0","11",""
"","","","","","html-keyboard-response","96","309603","0.0-96.0-0.0","5","1","2023-10-26 20:39:49","a725c3012b74bf33a1020a98cb69c237","186.158.228.113","Mozilla/5.0 (Windows NT 10.0; Win64; x64) AppleWebKit/537.36 (KHTML, like Gecko) Chrome/118.0.0.0 Safari/537.36 Edg/118.0.2088.69","WebKit","Edge","118.0.2088.69","Windows","10.0","null","es,es-ES;q=0.9,en;q=0.8,en-GB;q=0.7,en-US;q=0.6","true","230","<p id=""stimulus"" style=""font-size:100px;"">64</p>","k","","","empty_block","","64","","","","0","11",""
"","","","","","html-keyboard-response","97","312238","0.0-97.0","5","1","2023-10-26 20:39:49","a725c3012b74bf33a1020a98cb69c237","186.158.228.113","Mozilla/5.0 (Windows NT 10.0; Win64; x64) AppleWebKit/537.36 (KHTML, like Gecko) Chrome/118.0.0.0 Safari/537.36 Edg/118.0.2088.69","WebKit","Edge","118.0.2088.69","Windows","10.0","null","es,es-ES;q=0.9,en;q=0.8,en-GB;q=0.7,en-US;q=0.6","true","null","<div style=""font-size:100px;"">X</div>","null","","","fixation","","","","","","","",""
"","","","","","audio-keyboard-response","98","312720","0.0-98.0","5","1","2023-10-26 20:39:49","a725c3012b74bf33a1020a98cb69c237","186.158.228.113","Mozilla/5.0 (Windows NT 10.0; Win64; x64) AppleWebKit/537.36 (KHTML, like Gecko) Chrome/118.0.0.0 Safari/537.36 Edg/118.0.2088.69","WebKit","Edge","118.0.2088.69","Windows","10.0","null","es,es-ES;q=0.9,en;q=0.8,en-GB;q=0.7,en-US;q=0.6","true","480","tones/880hz_short.mp3","s","","","tone_number_task","992.5","47","tones/880hz_short.mp3","1142.5","100","0","12",""
"","","","","","html-keyboard-response","99","313239","0.0-99.0-0.0","5","1","2023-10-26 20:39:49","a725c3012b74bf33a1020a98cb69c237","186.158.228.113","Mozilla/5.0 (Windows NT 10.0; Win64; x64) AppleWebKit/537.36 (KHTML, like Gecko) Chrome/118.0.0.0 Safari/537.36 Edg/118.0.2088.69","WebKit","Edge","118.0.2088.69","Windows","10.0","null","es,es-ES;q=0.9,en;q=0.8,en-GB;q=0.7,en-US;q=0.6","true","null","","null","","","delay_block","","","","","","0","12",""
"","","","","","html-keyboard-response","100","313398","0.0-99.0-1.0","5","1","2023-10-26 20:39:49","a725c3012b74bf33a1020a98cb69c237","186.158.228.113","Mozilla/5.0 (Windows NT 10.0; Win64; x64) AppleWebKit/537.36 (KHTML, like Gecko) Chrome/118.0.0.0 Safari/537.36 Edg/118.0.2088.69","WebKit","Edge","118.0.2088.69","Windows","10.0","null","es,es-ES;q=0.9,en;q=0.8,en-GB;q=0.7,en-US;q=0.6","true","null","<p id=""stimulus"" style=""font-size:100px;"">47</p>","null","","","tone_number_task_remaining_before_delay","","47","","662.5","100","0","12",""
"","","","","","html-keyboard-response","101","313768","0.0-102.0-0.0","5","1","2023-10-26 20:39:49","a725c3012b74bf33a1020a98cb69c237","186.158.228.113","Mozilla/5.0 (Windows NT 10.0; Win64; x64) AppleWebKit/537.36 (KHTML, like Gecko) Chrome/118.0.0.0 Safari/537.36 Edg/118.0.2088.69","WebKit","Edge","118.0.2088.69","Windows","10.0","null","es,es-ES;q=0.9,en;q=0.8,en-GB;q=0.7,en-US;q=0.6","true","365","<p id=""stimulus"" style=""font-size:100px;"">47</p>","k","","","empty_block","","47","","","","0","12",""
"","","","","","html-keyboard-response","102","316398","0.0-103.0","5","1","2023-10-26 20:39:49","a725c3012b74bf33a1020a98cb69c237","186.158.228.113","Mozilla/5.0 (Windows NT 10.0; Win64; x64) AppleWebKit/537.36 (KHTML, like Gecko) Chrome/118.0.0.0 Safari/537.36 Edg/118.0.2088.69","WebKit","Edge","118.0.2088.69","Windows","10.0","null","es,es-ES;q=0.9,en;q=0.8,en-GB;q=0.7,en-US;q=0.6","true","null","<div style=""font-size:100px;"">X</div>","null","","","fixation","","","","","","","",""
"","","","","","audio-keyboard-response","103","316557","0.0-104.0","5","1","2023-10-26 20:39:49","a725c3012b74bf33a1020a98cb69c237","186.158.228.113","Mozilla/5.0 (Windows NT 10.0; Win64; x64) AppleWebKit/537.36 (KHTML, like Gecko) Chrome/118.0.0.0 Safari/537.36 Edg/118.0.2088.69","WebKit","Edge","118.0.2088.69","Windows","10.0","null","es,es-ES;q=0.9,en;q=0.8,en-GB;q=0.7,en-US;q=0.6","true","null","tones/880hz_short.mp3","null","","","tone_number_task","0","31","tones/880hz_short.mp3","150","100","0","13",""
"","","","","","html-keyboard-response","104","316967","0.0-107.0-0.0","5","1","2023-10-26 20:39:49","a725c3012b74bf33a1020a98cb69c237","186.158.228.113","Mozilla/5.0 (Windows NT 10.0; Win64; x64) AppleWebKit/537.36 (KHTML, like Gecko) Chrome/118.0.0.0 Safari/537.36 Edg/118.0.2088.69","WebKit","Edge","118.0.2088.69","Windows","10.0","null","es,es-ES;q=0.9,en;q=0.8,en-GB;q=0.7,en-US;q=0.6","true","405","tones/880hz_short.mp3","s","","","empty_block","","31","","","","0","13",""
"","","","","","html-keyboard-response","105","317330","0.0-107.0-1.0","5","1","2023-10-26 20:39:49","a725c3012b74bf33a1020a98cb69c237","186.158.228.113","Mozilla/5.0 (Windows NT 10.0; Win64; x64) AppleWebKit/537.36 (KHTML, like Gecko) Chrome/118.0.0.0 Safari/537.36 Edg/118.0.2088.69","WebKit","Edge","118.0.2088.69","Windows","10.0","null","es,es-ES;q=0.9,en;q=0.8,en-GB;q=0.7,en-US;q=0.6","true","358","tones/880hz_short.mp3","j","","","empty_block","","31","","","","0","13",""
"","","","","","html-keyboard-response","106","319968","0.0-109.0","5","1","2023-10-26 20:39:49","a725c3012b74bf33a1020a98cb69c237","186.158.228.113","Mozilla/5.0 (Windows NT 10.0; Win64; x64) AppleWebKit/537.36 (KHTML, like Gecko) Chrome/118.0.0.0 Safari/537.36 Edg/118.0.2088.69","WebKit","Edge","118.0.2088.69","Windows","10.0","null","es,es-ES;q=0.9,en;q=0.8,en-GB;q=0.7,en-US;q=0.6","true","null","<div style=""font-size:100px;"">X</div>","null","","","fixation","","","","","","","",""
"","","","","","audio-keyboard-response","107","320558","0.0-110.0","5","1","2023-10-26 20:39:49","a725c3012b74bf33a1020a98cb69c237","186.158.228.113","Mozilla/5.0 (Windows NT 10.0; Win64; x64) AppleWebKit/537.36 (KHTML, like Gecko) Chrome/118.0.0.0 Safari/537.36 Edg/118.0.2088.69","WebKit","Edge","118.0.2088.69","Windows","10.0","null","es,es-ES;q=0.9,en;q=0.8,en-GB;q=0.7,en-US;q=0.6","true","579","tones/880hz_short.mp3","s","","","tone_number_task","1025","41","tones/880hz_short.mp3","1175","100","0","14",""
"","","","","","html-keyboard-response","108","321018","0.0-111.0-0.0","5","1","2023-10-26 20:39:49","a725c3012b74bf33a1020a98cb69c237","186.158.228.113","Mozilla/5.0 (Windows NT 10.0; Win64; x64) AppleWebKit/537.36 (KHTML, like Gecko) Chrome/118.0.0.0 Safari/537.36 Edg/118.0.2088.69","WebKit","Edge","118.0.2088.69","Windows","10.0","null","es,es-ES;q=0.9,en;q=0.8,en-GB;q=0.7,en-US;q=0.6","true","null","","null","","","delay_block","","","","","","0","14",""
"","","","","","html-keyboard-response","109","321188","0.0-111.0-1.0","5","1","2023-10-26 20:39:49","a725c3012b74bf33a1020a98cb69c237","186.158.228.113","Mozilla/5.0 (Windows NT 10.0; Win64; x64) AppleWebKit/537.36 (KHTML, like Gecko) Chrome/118.0.0.0 Safari/537.36 Edg/118.0.2088.69","WebKit","Edge","118.0.2088.69","Windows","10.0","null","es,es-ES;q=0.9,en;q=0.8,en-GB;q=0.7,en-US;q=0.6","true","null","<p id=""stimulus"" style=""font-size:100px;"">41</p>","null","","","tone_number_task_remaining_before_delay","","41","","596","100","0","14",""
"","","","","","html-keyboard-response","110","321466","0.0-114.0-0.0","5","1","2023-10-26 20:39:49","a725c3012b74bf33a1020a98cb69c237","186.158.228.113","Mozilla/5.0 (Windows NT 10.0; Win64; x64) AppleWebKit/537.36 (KHTML, like Gecko) Chrome/118.0.0.0 Safari/537.36 Edg/118.0.2088.69","WebKit","Edge","118.0.2088.69","Windows","10.0","null","es,es-ES;q=0.9,en;q=0.8,en-GB;q=0.7,en-US;q=0.6","true","273","<p id=""stimulus"" style=""font-size:100px;"">41</p>","k","","","empty_block","","41","","","","0","14",""
"","","","","","html-keyboard-response","111","324098","0.0-115.0","5","1","2023-10-26 20:39:49","a725c3012b74bf33a1020a98cb69c237","186.158.228.113","Mozilla/5.0 (Windows NT 10.0; Win64; x64) AppleWebKit/537.36 (KHTML, like Gecko) Chrome/118.0.0.0 Safari/537.36 Edg/118.0.2088.69","WebKit","Edge","118.0.2088.69","Windows","10.0","null","es,es-ES;q=0.9,en;q=0.8,en-GB;q=0.7,en-US;q=0.6","true","null","<div style=""font-size:100px;"">X</div>","null","","","fixation","","","","","","","",""
"","","","","","audio-keyboard-response","112","324644","0.0-116.0","5","1","2023-10-26 20:39:49","a725c3012b74bf33a1020a98cb69c237","186.158.228.113","Mozilla/5.0 (Windows NT 10.0; Win64; x64) AppleWebKit/537.36 (KHTML, like Gecko) Chrome/118.0.0.0 Safari/537.36 Edg/118.0.2088.69","WebKit","Edge","118.0.2088.69","Windows","10.0","null","es,es-ES;q=0.9,en;q=0.8,en-GB;q=0.7,en-US;q=0.6","true","541","tones/440hz_short.mp3","a","","","tone_number_task","992.5","32","tones/440hz_short.mp3","1142.5","100","0","15",""
"","","","","","html-keyboard-response","113","325107","0.0-117.0-0.0","5","1","2023-10-26 20:39:49","a725c3012b74bf33a1020a98cb69c237","186.158.228.113","Mozilla/5.0 (Windows NT 10.0; Win64; x64) AppleWebKit/537.36 (KHTML, like Gecko) Chrome/118.0.0.0 Safari/537.36 Edg/118.0.2088.69","WebKit","Edge","118.0.2088.69","Windows","10.0","null","es,es-ES;q=0.9,en;q=0.8,en-GB;q=0.7,en-US;q=0.6","true","null","","null","","","delay_block","","","","","","0","15",""
"","","","","","html-keyboard-response","114","325268","0.0-117.0-1.0","5","1","2023-10-26 20:39:49","a725c3012b74bf33a1020a98cb69c237","186.158.228.113","Mozilla/5.0 (Windows NT 10.0; Win64; x64) AppleWebKit/537.36 (KHTML, like Gecko) Chrome/118.0.0.0 Safari/537.36 Edg/118.0.2088.69","WebKit","Edge","118.0.2088.69","Windows","10.0","null","es,es-ES;q=0.9,en;q=0.8,en-GB;q=0.7,en-US;q=0.6","true","null","<p id=""stimulus"" style=""font-size:100px;"">32</p>","null","","","tone_number_task_remaining_before_delay","","32","","601.5","100","0","15",""
"","","","","","html-keyboard-response","115","325586","0.0-120.0-0.0","5","1","2023-10-26 20:39:49","a725c3012b74bf33a1020a98cb69c237","186.158.228.113","Mozilla/5.0 (Windows NT 10.0; Win64; x64) AppleWebKit/537.36 (KHTML, like Gecko) Chrome/118.0.0.0 Safari/537.36 Edg/118.0.2088.69","WebKit","Edge","118.0.2088.69","Windows","10.0","null","es,es-ES;q=0.9,en;q=0.8,en-GB;q=0.7,en-US;q=0.6","true","313","<p id=""stimulus"" style=""font-size:100px;"">32</p>","j","","","empty_block","","32","","","","0","15",""
"","","","","","html-keyboard-response","116","328218","0.0-121.0","5","1","2023-10-26 20:39:49","a725c3012b74bf33a1020a98cb69c237","186.158.228.113","Mozilla/5.0 (Windows NT 10.0; Win64; x64) AppleWebKit/537.36 (KHTML, like Gecko) Chrome/118.0.0.0 Safari/537.36 Edg/118.0.2088.69","WebKit","Edge","118.0.2088.69","Windows","10.0","null","es,es-ES;q=0.9,en;q=0.8,en-GB;q=0.7,en-US;q=0.6","true","null","<div style=""font-size:100px;"">X</div>","null","","","fixation","","","","","","","",""
"","","","","","audio-keyboard-response","117","328827","0.0-122.0","5","1","2023-10-26 20:39:49","a725c3012b74bf33a1020a98cb69c237","186.158.228.113","Mozilla/5.0 (Windows NT 10.0; Win64; x64) AppleWebKit/537.36 (KHTML, like Gecko) Chrome/118.0.0.0 Safari/537.36 Edg/118.0.2088.69","WebKit","Edge","118.0.2088.69","Windows","10.0","null","es,es-ES;q=0.9,en;q=0.8,en-GB;q=0.7,en-US;q=0.6","true","600","tones/440hz_short.mp3","a","","","tone_number_task","1025","65","tones/440hz_short.mp3","1175","100","0","16",""
"","","","","","html-keyboard-response","118","329258","0.0-123.0-0.0","5","1","2023-10-26 20:39:49","a725c3012b74bf33a1020a98cb69c237","186.158.228.113","Mozilla/5.0 (Windows NT 10.0; Win64; x64) AppleWebKit/537.36 (KHTML, like Gecko) Chrome/118.0.0.0 Safari/537.36 Edg/118.0.2088.69","WebKit","Edge","118.0.2088.69","Windows","10.0","null","es,es-ES;q=0.9,en;q=0.8,en-GB;q=0.7,en-US;q=0.6","true","null","","null","","","delay_block","","","","","","0","16",""
"","","","","","html-keyboard-response","119","329418","0.0-123.0-1.0","5","1","2023-10-26 20:39:49","a725c3012b74bf33a1020a98cb69c237","186.158.228.113","Mozilla/5.0 (Windows NT 10.0; Win64; x64) AppleWebKit/537.36 (KHTML, like Gecko) Chrome/118.0.0.0 Safari/537.36 Edg/118.0.2088.69","WebKit","Edge","118.0.2088.69","Windows","10.0","null","es,es-ES;q=0.9,en;q=0.8,en-GB;q=0.7,en-US;q=0.6","true","null","<p id=""stimulus"" style=""font-size:100px;"">65</p>","null","","","tone_number_task_remaining_before_delay","","65","","575","100","0","16",""
"","","","","","html-keyboard-response","120","329692","0.0-126.0-0.0","5","1","2023-10-26 20:39:49","a725c3012b74bf33a1020a98cb69c237","186.158.228.113","Mozilla/5.0 (Windows NT 10.0; Win64; x64) AppleWebKit/537.36 (KHTML, like Gecko) Chrome/118.0.0.0 Safari/537.36 Edg/118.0.2088.69","WebKit","Edge","118.0.2088.69","Windows","10.0","null","es,es-ES;q=0.9,en;q=0.8,en-GB;q=0.7,en-US;q=0.6","true","268","<p id=""stimulus"" style=""font-size:100px;"">65</p>","k","","","empty_block","","65","","","","0","16",""
"","","","","","html-keyboard-response","121","332328","0.0-127.0","5","1","2023-10-26 20:39:49","a725c3012b74bf33a1020a98cb69c237","186.158.228.113","Mozilla/5.0 (Windows NT 10.0; Win64; x64) AppleWebKit/537.36 (KHTML, like Gecko) Chrome/118.0.0.0 Safari/537.36 Edg/118.0.2088.69","WebKit","Edge","118.0.2088.69","Windows","10.0","null","es,es-ES;q=0.9,en;q=0.8,en-GB;q=0.7,en-US;q=0.6","true","null","<div style=""font-size:100px;"">X</div>","null","","","fixation","","","","","","","",""
"","","","","","audio-keyboard-response","122","332911","0.0-128.0","5","1","2023-10-26 20:39:49","a725c3012b74bf33a1020a98cb69c237","186.158.228.113","Mozilla/5.0 (Windows NT 10.0; Win64; x64) AppleWebKit/537.36 (KHTML, like Gecko) Chrome/118.0.0.0 Safari/537.36 Edg/118.0.2088.69","WebKit","Edge","118.0.2088.69","Windows","10.0","null","es,es-ES;q=0.9,en;q=0.8,en-GB;q=0.7,en-US;q=0.6","true","579","tones/880hz_short.mp3","s","","","tone_number_task","1025","43","tones/880hz_short.mp3","1175","100","0","17",""
"","","","","","html-keyboard-response","123","333368","0.0-129.0-0.0","5","1","2023-10-26 20:39:49","a725c3012b74bf33a1020a98cb69c237","186.158.228.113","Mozilla/5.0 (Windows NT 10.0; Win64; x64) AppleWebKit/537.36 (KHTML, like Gecko) Chrome/118.0.0.0 Safari/537.36 Edg/118.0.2088.69","WebKit","Edge","118.0.2088.69","Windows","10.0","null","es,es-ES;q=0.9,en;q=0.8,en-GB;q=0.7,en-US;q=0.6","true","null","","null","","","delay_block","","","","","","0","17",""
"","","","","","html-keyboard-response","124","333538","0.0-129.0-1.0","5","1","2023-10-26 20:39:49","a725c3012b74bf33a1020a98cb69c237","186.158.228.113","Mozilla/5.0 (Windows NT 10.0; Win64; x64) AppleWebKit/537.36 (KHTML, like Gecko) Chrome/118.0.0.0 Safari/537.36 Edg/118.0.2088.69","WebKit","Edge","118.0.2088.69","Windows","10.0","null","es,es-ES;q=0.9,en;q=0.8,en-GB;q=0.7,en-US;q=0.6","true","null","<p id=""stimulus"" style=""font-size:100px;"">43</p>","null","","","tone_number_task_remaining_before_delay","","43","","596","100","0","17",""
"","","","","","html-keyboard-response","125","333883","0.0-132.0-0.0","5","1","2023-10-26 20:39:49","a725c3012b74bf33a1020a98cb69c237","186.158.228.113","Mozilla/5.0 (Windows NT 10.0; Win64; x64) AppleWebKit/537.36 (KHTML, like Gecko) Chrome/118.0.0.0 Safari/537.36 Edg/118.0.2088.69","WebKit","Edge","118.0.2088.69","Windows","10.0","null","es,es-ES;q=0.9,en;q=0.8,en-GB;q=0.7,en-US;q=0.6","true","339","<p id=""stimulus"" style=""font-size:100px;"">43</p>","j","","","empty_block","","43","","","","0","17",""
"","","","","","html-keyboard-response","126","336518","0.0-133.0","5","1","2023-10-26 20:39:49","a725c3012b74bf33a1020a98cb69c237","186.158.228.113","Mozilla/5.0 (Windows NT 10.0; Win64; x64) AppleWebKit/537.36 (KHTML, like Gecko) Chrome/118.0.0.0 Safari/537.36 Edg/118.0.2088.69","WebKit","Edge","118.0.2088.69","Windows","10.0","null","es,es-ES;q=0.9,en;q=0.8,en-GB;q=0.7,en-US;q=0.6","true","null","<div style=""font-size:100px;"">X</div>","null","","","fixation","","","","","","","",""
"","","","","","audio-keyboard-response","127","336678","0.0-134.0","5","1","2023-10-26 20:39:49","a725c3012b74bf33a1020a98cb69c237","186.158.228.113","Mozilla/5.0 (Windows NT 10.0; Win64; x64) AppleWebKit/537.36 (KHTML, like Gecko) Chrome/118.0.0.0 Safari/537.36 Edg/118.0.2088.69","WebKit","Edge","118.0.2088.69","Windows","10.0","null","es,es-ES;q=0.9,en;q=0.8,en-GB;q=0.7,en-US;q=0.6","true","null","tones/880hz_short.mp3","null","","","tone_number_task","0","61","tones/880hz_short.mp3","150","100","0","18",""
"","","","","","html-keyboard-response","128","336980","0.0-137.0-0.0","5","1","2023-10-26 20:39:49","a725c3012b74bf33a1020a98cb69c237","186.158.228.113","Mozilla/5.0 (Windows NT 10.0; Win64; x64) AppleWebKit/537.36 (KHTML, like Gecko) Chrome/118.0.0.0 Safari/537.36 Edg/118.0.2088.69","WebKit","Edge","118.0.2088.69","Windows","10.0","null","es,es-ES;q=0.9,en;q=0.8,en-GB;q=0.7,en-US;q=0.6","true","296","tones/880hz_short.mp3","s","","","empty_block","","61","","","","0","18",""
"","","","","","html-keyboard-response","129","337410","0.0-137.0-1.0","5","1","2023-10-26 20:39:49","a725c3012b74bf33a1020a98cb69c237","186.158.228.113","Mozilla/5.0 (Windows NT 10.0; Win64; x64) AppleWebKit/537.36 (KHTML, like Gecko) Chrome/118.0.0.0 Safari/537.36 Edg/118.0.2088.69","WebKit","Edge","118.0.2088.69","Windows","10.0","null","es,es-ES;q=0.9,en;q=0.8,en-GB;q=0.7,en-US;q=0.6","true","424","tones/880hz_short.mp3","k","","","empty_block","","61","","","","0","18",""
"","","","","","html-keyboard-response","130","340048","0.0-139.0","5","1","2023-10-26 20:39:49","a725c3012b74bf33a1020a98cb69c237","186.158.228.113","Mozilla/5.0 (Windows NT 10.0; Win64; x64) AppleWebKit/537.36 (KHTML, like Gecko) Chrome/118.0.0.0 Safari/537.36 Edg/118.0.2088.69","WebKit","Edge","118.0.2088.69","Windows","10.0","null","es,es-ES;q=0.9,en;q=0.8,en-GB;q=0.7,en-US;q=0.6","true","null","<div style=""font-size:100px;"">X</div>","null","","","fixation","","","","","","","",""
"","","","","","audio-keyboard-response","131","340208","0.0-140.0","5","1","2023-10-26 20:39:49","a725c3012b74bf33a1020a98cb69c237","186.158.228.113","Mozilla/5.0 (Windows NT 10.0; Win64; x64) AppleWebKit/537.36 (KHTML, like Gecko) Chrome/118.0.0.0 Safari/537.36 Edg/118.0.2088.69","WebKit","Edge","118.0.2088.69","Windows","10.0","null","es,es-ES;q=0.9,en;q=0.8,en-GB;q=0.7,en-US;q=0.6","true","null","tones/440hz_short.mp3","null","","","tone_number_task","0","26","tones/440hz_short.mp3","150","100","0","19",""
"","","","","","html-keyboard-response","132","340695","0.0-143.0-0.0","5","1","2023-10-26 20:39:49","a725c3012b74bf33a1020a98cb69c237","186.158.228.113","Mozilla/5.0 (Windows NT 10.0; Win64; x64) AppleWebKit/537.36 (KHTML, like Gecko) Chrome/118.0.0.0 Safari/537.36 Edg/118.0.2088.69","WebKit","Edge","118.0.2088.69","Windows","10.0","null","es,es-ES;q=0.9,en;q=0.8,en-GB;q=0.7,en-US;q=0.6","true","481","tones/440hz_short.mp3","a","","","empty_block","","26","","","","0","19",""
"","","","","","html-keyboard-response","133","341640","0.0-143.0-1.0","5","1","2023-10-26 20:39:49","a725c3012b74bf33a1020a98cb69c237","186.158.228.113","Mozilla/5.0 (Windows NT 10.0; Win64; x64) AppleWebKit/537.36 (KHTML, like Gecko) Chrome/118.0.0.0 Safari/537.36 Edg/118.0.2088.69","WebKit","Edge","118.0.2088.69","Windows","10.0","null","es,es-ES;q=0.9,en;q=0.8,en-GB;q=0.7,en-US;q=0.6","true","939","tones/440hz_short.mp3","j","","","empty_block","","26","","","","0","19",""
"","","","","","html-keyboard-response","134","344278","0.0-145.0","5","1","2023-10-26 20:39:49","a725c3012b74bf33a1020a98cb69c237","186.158.228.113","Mozilla/5.0 (Windows NT 10.0; Win64; x64) AppleWebKit/537.36 (KHTML, like Gecko) Chrome/118.0.0.0 Safari/537.36 Edg/118.0.2088.69","WebKit","Edge","118.0.2088.69","Windows","10.0","null","es,es-ES;q=0.9,en;q=0.8,en-GB;q=0.7,en-US;q=0.6","true","null","<div style=""font-size:100px;"">X</div>","null","","","fixation","","","","","","","",""
"","","","","","audio-keyboard-response","135","344538","0.0-146.0","5","1","2023-10-26 20:39:49","a725c3012b74bf33a1020a98cb69c237","186.158.228.113","Mozilla/5.0 (Windows NT 10.0; Win64; x64) AppleWebKit/537.36 (KHTML, like Gecko) Chrome/118.0.0.0 Safari/537.36 Edg/118.0.2088.69","WebKit","Edge","118.0.2088.69","Windows","10.0","null","es,es-ES;q=0.9,en;q=0.8,en-GB;q=0.7,en-US;q=0.6","true","null","tones/440hz_short.mp3","null","","","tone_number_task","102.5","64","tones/440hz_short.mp3","252.5","100","0","20",""
"","","","","","html-keyboard-response","136","345618","0.0-149.0-0.0","5","1","2023-10-26 20:39:49","a725c3012b74bf33a1020a98cb69c237","186.158.228.113","Mozilla/5.0 (Windows NT 10.0; Win64; x64) AppleWebKit/537.36 (KHTML, like Gecko) Chrome/118.0.0.0 Safari/537.36 Edg/118.0.2088.69","WebKit","Edge","118.0.2088.69","Windows","10.0","null","es,es-ES;q=0.9,en;q=0.8,en-GB;q=0.7,en-US;q=0.6","true","1073","tones/440hz_short.mp3","a","","","empty_block","","64","","","","0","20",""
"","","","","","html-keyboard-response","137","345846","0.0-149.0-1.0","5","1","2023-10-26 20:39:49","a725c3012b74bf33a1020a98cb69c237","186.158.228.113","Mozilla/5.0 (Windows NT 10.0; Win64; x64) AppleWebKit/537.36 (KHTML, like Gecko) Chrome/118.0.0.0 Safari/537.36 Edg/118.0.2088.69","WebKit","Edge","118.0.2088.69","Windows","10.0","null","es,es-ES;q=0.9,en;q=0.8,en-GB;q=0.7,en-US;q=0.6","true","222","tones/440hz_short.mp3","j","","","empty_block","","64","","","","0","20",""
"","","","","","html-keyboard-response","138","348478","0.0-151.0","5","1","2023-10-26 20:39:49","a725c3012b74bf33a1020a98cb69c237","186.158.228.113","Mozilla/5.0 (Windows NT 10.0; Win64; x64) AppleWebKit/537.36 (KHTML, like Gecko) Chrome/118.0.0.0 Safari/537.36 Edg/118.0.2088.69","WebKit","Edge","118.0.2088.69","Windows","10.0","null","es,es-ES;q=0.9,en;q=0.8,en-GB;q=0.7,en-US;q=0.6","true","null","<div style=""font-size:100px;"">X</div>","null","","","fixation","","","","","","","",""
"","","","","","audio-keyboard-response","139","349054","0.0-152.0","5","1","2023-10-26 20:39:49","a725c3012b74bf33a1020a98cb69c237","186.158.228.113","Mozilla/5.0 (Windows NT 10.0; Win64; x64) AppleWebKit/537.36 (KHTML, like Gecko) Chrome/118.0.0.0 Safari/537.36 Edg/118.0.2088.69","WebKit","Edge","118.0.2088.69","Windows","10.0","null","es,es-ES;q=0.9,en;q=0.8,en-GB;q=0.7,en-US;q=0.6","true","571","tones/440hz_short.mp3","a","","","tone_number_task","992.5","55","tones/440hz_short.mp3","1142.5","100","0","21",""
"","","","","","html-keyboard-response","140","349488","0.0-153.0-0.0","5","1","2023-10-26 20:39:49","a725c3012b74bf33a1020a98cb69c237","186.158.228.113","Mozilla/5.0 (Windows NT 10.0; Win64; x64) AppleWebKit/537.36 (KHTML, like Gecko) Chrome/118.0.0.0 Safari/537.36 Edg/118.0.2088.69","WebKit","Edge","118.0.2088.69","Windows","10.0","null","es,es-ES;q=0.9,en;q=0.8,en-GB;q=0.7,en-US;q=0.6","true","null","","null","","","delay_block","","","","","","0","21",""
"","","","","","html-keyboard-response","141","349648","0.0-153.0-1.0","5","1","2023-10-26 20:39:49","a725c3012b74bf33a1020a98cb69c237","186.158.228.113","Mozilla/5.0 (Windows NT 10.0; Win64; x64) AppleWebKit/537.36 (KHTML, like Gecko) Chrome/118.0.0.0 Safari/537.36 Edg/118.0.2088.69","WebKit","Edge","118.0.2088.69","Windows","10.0","null","es,es-ES;q=0.9,en;q=0.8,en-GB;q=0.7,en-US;q=0.6","true","null","<p id=""stimulus"" style=""font-size:100px;"">55</p>","null","","","tone_number_task_remaining_before_delay","","55","","571.5","100","0","21",""
"","","","","","html-keyboard-response","142","349896","0.0-156.0-0.0","5","1","2023-10-26 20:39:49","a725c3012b74bf33a1020a98cb69c237","186.158.228.113","Mozilla/5.0 (Windows NT 10.0; Win64; x64) AppleWebKit/537.36 (KHTML, like Gecko) Chrome/118.0.0.0 Safari/537.36 Edg/118.0.2088.69","WebKit","Edge","118.0.2088.69","Windows","10.0","null","es,es-ES;q=0.9,en;q=0.8,en-GB;q=0.7,en-US;q=0.6","true","241","<p id=""stimulus"" style=""font-size:100px;"">55</p>","k","","","empty_block","","55","","","","0","21",""
"","","","","","html-keyboard-response","143","352527","0.0-157.0","5","1","2023-10-26 20:39:49","a725c3012b74bf33a1020a98cb69c237","186.158.228.113","Mozilla/5.0 (Windows NT 10.0; Win64; x64) AppleWebKit/537.36 (KHTML, like Gecko) Chrome/118.0.0.0 Safari/537.36 Edg/118.0.2088.69","WebKit","Edge","118.0.2088.69","Windows","10.0","null","es,es-ES;q=0.9,en;q=0.8,en-GB;q=0.7,en-US;q=0.6","true","null","<div style=""font-size:100px;"">X</div>","null","","","fixation","","","","","","","",""
"","","","","","audio-keyboard-response","144","352789","0.0-158.0","5","1","2023-10-26 20:39:49","a725c3012b74bf33a1020a98cb69c237","186.158.228.113","Mozilla/5.0 (Windows NT 10.0; Win64; x64) AppleWebKit/537.36 (KHTML, like Gecko) Chrome/118.0.0.0 Safari/537.36 Edg/118.0.2088.69","WebKit","Edge","118.0.2088.69","Windows","10.0","null","es,es-ES;q=0.9,en;q=0.8,en-GB;q=0.7,en-US;q=0.6","true","null","tones/880hz_short.mp3","null","","","tone_number_task","102.5","34","tones/880hz_short.mp3","252.5","100","0","22",""
"","","","","","html-keyboard-response","145","353531","0.0-161.0-0.0","5","1","2023-10-26 20:39:49","a725c3012b74bf33a1020a98cb69c237","186.158.228.113","Mozilla/5.0 (Windows NT 10.0; Win64; x64) AppleWebKit/537.36 (KHTML, like Gecko) Chrome/118.0.0.0 Safari/537.36 Edg/118.0.2088.69","WebKit","Edge","118.0.2088.69","Windows","10.0","null","es,es-ES;q=0.9,en;q=0.8,en-GB;q=0.7,en-US;q=0.6","true","736","tones/880hz_short.mp3","s","","","empty_block","","34","","","","0","22",""
"","","","","","html-keyboard-response","146","353794","0.0-161.0-1.0","5","1","2023-10-26 20:39:49","a725c3012b74bf33a1020a98cb69c237","186.158.228.113","Mozilla/5.0 (Windows NT 10.0; Win64; x64) AppleWebKit/537.36 (KHTML, like Gecko) Chrome/118.0.0.0 Safari/537.36 Edg/118.0.2088.69","WebKit","Edge","118.0.2088.69","Windows","10.0","null","es,es-ES;q=0.9,en;q=0.8,en-GB;q=0.7,en-US;q=0.6","true","257","tones/880hz_short.mp3","j","","","empty_block","","34","","","","0","22",""
"","","","","","html-keyboard-response","147","356428","0.0-163.0","5","1","2023-10-26 20:39:49","a725c3012b74bf33a1020a98cb69c237","186.158.228.113","Mozilla/5.0 (Windows NT 10.0; Win64; x64) AppleWebKit/537.36 (KHTML, like Gecko) Chrome/118.0.0.0 Safari/537.36 Edg/118.0.2088.69","WebKit","Edge","118.0.2088.69","Windows","10.0","null","es,es-ES;q=0.9,en;q=0.8,en-GB;q=0.7,en-US;q=0.6","true","null","<div style=""font-size:100px;"">X</div>","null","","","fixation","","","","","","","",""
"","","","","","audio-keyboard-response","148","356942","0.0-164.0","5","1","2023-10-26 20:39:49","a725c3012b74bf33a1020a98cb69c237","186.158.228.113","Mozilla/5.0 (Windows NT 10.0; Win64; x64) AppleWebKit/537.36 (KHTML, like Gecko) Chrome/118.0.0.0 Safari/537.36 Edg/118.0.2088.69","WebKit","Edge","118.0.2088.69","Windows","10.0","null","es,es-ES;q=0.9,en;q=0.8,en-GB;q=0.7,en-US;q=0.6","true","509","tones/440hz_short.mp3","a","","","tone_number_task","992.5","63","tones/440hz_short.mp3","1142.5","100","0","23",""
"","","","","","html-keyboard-response","149","357438","0.0-165.0-0.0","5","1","2023-10-26 20:39:49","a725c3012b74bf33a1020a98cb69c237","186.158.228.113","Mozilla/5.0 (Windows NT 10.0; Win64; x64) AppleWebKit/537.36 (KHTML, like Gecko) Chrome/118.0.0.0 Safari/537.36 Edg/118.0.2088.69","WebKit","Edge","118.0.2088.69","Windows","10.0","null","es,es-ES;q=0.9,en;q=0.8,en-GB;q=0.7,en-US;q=0.6","true","null","","null","","","delay_block","","","","","","0","23",""
"","","","","","html-keyboard-response","150","357598","0.0-165.0-1.0","5","1","2023-10-26 20:39:49","a725c3012b74bf33a1020a98cb69c237","186.158.228.113","Mozilla/5.0 (Windows NT 10.0; Win64; x64) AppleWebKit/537.36 (KHTML, like Gecko) Chrome/118.0.0.0 Safari/537.36 Edg/118.0.2088.69","WebKit","Edge","118.0.2088.69","Windows","10.0","null","es,es-ES;q=0.9,en;q=0.8,en-GB;q=0.7,en-US;q=0.6","true","null","<p id=""stimulus"" style=""font-size:100px;"">63</p>","null","","","tone_number_task_remaining_before_delay","","63","","633.5","100","0","23",""
"","","","","","html-keyboard-response","151","357786","0.0-168.0-0.0","5","1","2023-10-26 20:39:49","a725c3012b74bf33a1020a98cb69c237","186.158.228.113","Mozilla/5.0 (Windows NT 10.0; Win64; x64) AppleWebKit/537.36 (KHTML, like Gecko) Chrome/118.0.0.0 Safari/537.36 Edg/118.0.2088.69","WebKit","Edge","118.0.2088.69","Windows","10.0","null","es,es-ES;q=0.9,en;q=0.8,en-GB;q=0.7,en-US;q=0.6","true","180","<p id=""stimulus"" style=""font-size:100px;"">63</p>","k","","","empty_block","","63","","","","0","23",""
"","","","","","html-keyboard-response","152","360428","0.0-169.0","5","1","2023-10-26 20:39:49","a725c3012b74bf33a1020a98cb69c237","186.158.228.113","Mozilla/5.0 (Windows NT 10.0; Win64; x64) AppleWebKit/537.36 (KHTML, like Gecko) Chrome/118.0.0.0 Safari/537.36 Edg/118.0.2088.69","WebKit","Edge","118.0.2088.69","Windows","10.0","null","es,es-ES;q=0.9,en;q=0.8,en-GB;q=0.7,en-US;q=0.6","true","null","<div style=""font-size:100px;"">X</div>","null","","","fixation","","","","","","","",""
"","","","","","audio-keyboard-response","153","360588","0.0-170.0","5","1","2023-10-26 20:39:49","a725c3012b74bf33a1020a98cb69c237","186.158.228.113","Mozilla/5.0 (Windows NT 10.0; Win64; x64) AppleWebKit/537.36 (KHTML, like Gecko) Chrome/118.0.0.0 Safari/537.36 Edg/118.0.2088.69","WebKit","Edge","118.0.2088.69","Windows","10.0","null","es,es-ES;q=0.9,en;q=0.8,en-GB;q=0.7,en-US;q=0.6","true","null","tones/440hz_short.mp3","null","","","tone_number_task","0","69","tones/440hz_short.mp3","150","100","0","24",""
"","","","","","html-keyboard-response","154","361295","0.0-173.0-0.0","5","1","2023-10-26 20:39:49","a725c3012b74bf33a1020a98cb69c237","186.158.228.113","Mozilla/5.0 (Windows NT 10.0; Win64; x64) AppleWebKit/537.36 (KHTML, like Gecko) Chrome/118.0.0.0 Safari/537.36 Edg/118.0.2088.69","WebKit","Edge","118.0.2088.69","Windows","10.0","null","es,es-ES;q=0.9,en;q=0.8,en-GB;q=0.7,en-US;q=0.6","true","700","tones/440hz_short.mp3","a","","","empty_block","","69","","","","0","24",""
"","","","","","html-keyboard-response","155","361644","0.0-173.0-1.0","5","1","2023-10-26 20:39:49","a725c3012b74bf33a1020a98cb69c237","186.158.228.113","Mozilla/5.0 (Windows NT 10.0; Win64; x64) AppleWebKit/537.36 (KHTML, like Gecko) Chrome/118.0.0.0 Safari/537.36 Edg/118.0.2088.69","WebKit","Edge","118.0.2088.69","Windows","10.0","null","es,es-ES;q=0.9,en;q=0.8,en-GB;q=0.7,en-US;q=0.6","true","342","tones/440hz_short.mp3","k","","","empty_block","","69","","","","0","24",""
"","","","","","html-keyboard-response","156","364277","0.0-175.0","5","1","2023-10-26 20:39:49","a725c3012b74bf33a1020a98cb69c237","186.158.228.113","Mozilla/5.0 (Windows NT 10.0; Win64; x64) AppleWebKit/537.36 (KHTML, like Gecko) Chrome/118.0.0.0 Safari/537.36 Edg/118.0.2088.69","WebKit","Edge","118.0.2088.69","Windows","10.0","null","es,es-ES;q=0.9,en;q=0.8,en-GB;q=0.7,en-US;q=0.6","true","null","<div style=""font-size:100px;"">X</div>","null","","","fixation","","","","","","","",""
"","","","","","audio-keyboard-response","157","364971","0.0-176.0","5","1","2023-10-26 20:39:49","a725c3012b74bf33a1020a98cb69c237","186.158.228.113","Mozilla/5.0 (Windows NT 10.0; Win64; x64) AppleWebKit/537.36 (KHTML, like Gecko) Chrome/118.0.0.0 Safari/537.36 Edg/118.0.2088.69","WebKit","Edge","118.0.2088.69","Windows","10.0","null","es,es-ES;q=0.9,en;q=0.8,en-GB;q=0.7,en-US;q=0.6","true","691","tones/880hz_short.mp3","s","","","tone_number_task","992.5","30","tones/880hz_short.mp3","1142.5","100","0","25",""
"","","","","","html-keyboard-response","158","365288","0.0-177.0-0.0","5","1","2023-10-26 20:39:49","a725c3012b74bf33a1020a98cb69c237","186.158.228.113","Mozilla/5.0 (Windows NT 10.0; Win64; x64) AppleWebKit/537.36 (KHTML, like Gecko) Chrome/118.0.0.0 Safari/537.36 Edg/118.0.2088.69","WebKit","Edge","118.0.2088.69","Windows","10.0","null","es,es-ES;q=0.9,en;q=0.8,en-GB;q=0.7,en-US;q=0.6","true","null","","null","","","delay_block","","","","","","0","25",""
"","","","","","html-keyboard-response","159","365448","0.0-177.0-1.0","5","1","2023-10-26 20:39:49","a725c3012b74bf33a1020a98cb69c237","186.158.228.113","Mozilla/5.0 (Windows NT 10.0; Win64; x64) AppleWebKit/537.36 (KHTML, like Gecko) Chrome/118.0.0.0 Safari/537.36 Edg/118.0.2088.69","WebKit","Edge","118.0.2088.69","Windows","10.0","null","es,es-ES;q=0.9,en;q=0.8,en-GB;q=0.7,en-US;q=0.6","true","null","<p id=""stimulus"" style=""font-size:100px;"">30</p>","null","","","tone_number_task_remaining_before_delay","","30","","451.5","100","0","25",""
"","","","","","html-keyboard-response","160","365692","0.0-180.0-0.0","5","1","2023-10-26 20:39:49","a725c3012b74bf33a1020a98cb69c237","186.158.228.113","Mozilla/5.0 (Windows NT 10.0; Win64; x64) AppleWebKit/537.36 (KHTML, like Gecko) Chrome/118.0.0.0 Safari/537.36 Edg/118.0.2088.69","WebKit","Edge","118.0.2088.69","Windows","10.0","null","es,es-ES;q=0.9,en;q=0.8,en-GB;q=0.7,en-US;q=0.6","true","237","<p id=""stimulus"" style=""font-size:100px;"">30</p>","j","","","empty_block","","30","","","","0","25",""
"","","","","","html-keyboard-response","161","368328","0.0-181.0","5","1","2023-10-26 20:39:49","a725c3012b74bf33a1020a98cb69c237","186.158.228.113","Mozilla/5.0 (Windows NT 10.0; Win64; x64) AppleWebKit/537.36 (KHTML, like Gecko) Chrome/118.0.0.0 Safari/537.36 Edg/118.0.2088.69","WebKit","Edge","118.0.2088.69","Windows","10.0","null","es,es-ES;q=0.9,en;q=0.8,en-GB;q=0.7,en-US;q=0.6","true","null","<div style=""font-size:100px;"">X</div>","null","","","fixation","","","","","","","",""
"","","","","","audio-keyboard-response","162","368997","0.0-182.0","5","1","2023-10-26 20:39:49","a725c3012b74bf33a1020a98cb69c237","186.158.228.113","Mozilla/5.0 (Windows NT 10.0; Win64; x64) AppleWebKit/537.36 (KHTML, like Gecko) Chrome/118.0.0.0 Safari/537.36 Edg/118.0.2088.69","WebKit","Edge","118.0.2088.69","Windows","10.0","null","es,es-ES;q=0.9,en;q=0.8,en-GB;q=0.7,en-US;q=0.6","true","659","tones/440hz_short.mp3","a","","","tone_number_task","1025","49","tones/440hz_short.mp3","1175","100","0","26",""
"","","","","","html-keyboard-response","163","369388","0.0-183.0-0.0","5","1","2023-10-26 20:39:49","a725c3012b74bf33a1020a98cb69c237","186.158.228.113","Mozilla/5.0 (Windows NT 10.0; Win64; x64) AppleWebKit/537.36 (KHTML, like Gecko) Chrome/118.0.0.0 Safari/537.36 Edg/118.0.2088.69","WebKit","Edge","118.0.2088.69","Windows","10.0","null","es,es-ES;q=0.9,en;q=0.8,en-GB;q=0.7,en-US;q=0.6","true","null","","null","","","delay_block","","","","","","0","26",""
"","","","","","html-keyboard-response","164","369549","0.0-183.0-1.0","5","1","2023-10-26 20:39:49","a725c3012b74bf33a1020a98cb69c237","186.158.228.113","Mozilla/5.0 (Windows NT 10.0; Win64; x64) AppleWebKit/537.36 (KHTML, like Gecko) Chrome/118.0.0.0 Safari/537.36 Edg/118.0.2088.69","WebKit","Edge","118.0.2088.69","Windows","10.0","null","es,es-ES;q=0.9,en;q=0.8,en-GB;q=0.7,en-US;q=0.6","true","null","<p id=""stimulus"" style=""font-size:100px;"">49</p>","null","","","tone_number_task_remaining_before_delay","","49","","516","100","0","26",""
"","","","","","html-keyboard-response","165","369811","0.0-186.0-0.0","5","1","2023-10-26 20:39:49","a725c3012b74bf33a1020a98cb69c237","186.158.228.113","Mozilla/5.0 (Windows NT 10.0; Win64; x64) AppleWebKit/537.36 (KHTML, like Gecko) Chrome/118.0.0.0 Safari/537.36 Edg/118.0.2088.69","WebKit","Edge","118.0.2088.69","Windows","10.0","null","es,es-ES;q=0.9,en;q=0.8,en-GB;q=0.7,en-US;q=0.6","true","254","<p id=""stimulus"" style=""font-size:100px;"">49</p>","k","","","empty_block","","49","","","","0","26",""
"","","","","","html-keyboard-response","166","372449","0.0-187.0","5","1","2023-10-26 20:39:49","a725c3012b74bf33a1020a98cb69c237","186.158.228.113","Mozilla/5.0 (Windows NT 10.0; Win64; x64) AppleWebKit/537.36 (KHTML, like Gecko) Chrome/118.0.0.0 Safari/537.36 Edg/118.0.2088.69","WebKit","Edge","118.0.2088.69","Windows","10.0","null","es,es-ES;q=0.9,en;q=0.8,en-GB;q=0.7,en-US;q=0.6","true","null","<div style=""font-size:100px;"">X</div>","null","","","fixation","","","","","","","",""
"","","","","","audio-keyboard-response","167","372710","0.0-188.0","5","1","2023-10-26 20:39:49","a725c3012b74bf33a1020a98cb69c237","186.158.228.113","Mozilla/5.0 (Windows NT 10.0; Win64; x64) AppleWebKit/537.36 (KHTML, like Gecko) Chrome/118.0.0.0 Safari/537.36 Edg/118.0.2088.69","WebKit","Edge","118.0.2088.69","Windows","10.0","null","es,es-ES;q=0.9,en;q=0.8,en-GB;q=0.7,en-US;q=0.6","true","null","tones/440hz_short.mp3","null","","","tone_number_task","102.5","41","tones/440hz_short.mp3","252.5","100","0","27",""
"","","","","","html-keyboard-response","168","373030","0.0-191.0-0.0","5","1","2023-10-26 20:39:49","a725c3012b74bf33a1020a98cb69c237","186.158.228.113","Mozilla/5.0 (Windows NT 10.0; Win64; x64) AppleWebKit/537.36 (KHTML, like Gecko) Chrome/118.0.0.0 Safari/537.36 Edg/118.0.2088.69","WebKit","Edge","118.0.2088.69","Windows","10.0","null","es,es-ES;q=0.9,en;q=0.8,en-GB;q=0.7,en-US;q=0.6","true","313","tones/440hz_short.mp3","a","","","empty_block","","41","","","","0","27",""
"","","","","","html-keyboard-response","169","373467","0.0-191.0-1.0","5","1","2023-10-26 20:39:49","a725c3012b74bf33a1020a98cb69c237","186.158.228.113","Mozilla/5.0 (Windows NT 10.0; Win64; x64) AppleWebKit/537.36 (KHTML, like Gecko) Chrome/118.0.0.0 Safari/537.36 Edg/118.0.2088.69","WebKit","Edge","118.0.2088.69","Windows","10.0","null","es,es-ES;q=0.9,en;q=0.8,en-GB;q=0.7,en-US;q=0.6","true","431","tones/440hz_short.mp3","j","","","empty_block","","41","","","","0","27",""
"","","","","","html-keyboard-response","170","376109","0.0-193.0","5","1","2023-10-26 20:39:49","a725c3012b74bf33a1020a98cb69c237","186.158.228.113","Mozilla/5.0 (Windows NT 10.0; Win64; x64) AppleWebKit/537.36 (KHTML, like Gecko) Chrome/118.0.0.0 Safari/537.36 Edg/118.0.2088.69","WebKit","Edge","118.0.2088.69","Windows","10.0","null","es,es-ES;q=0.9,en;q=0.8,en-GB;q=0.7,en-US;q=0.6","true","null","<div style=""font-size:100px;"">X</div>","null","","","fixation","","","","","","","",""
"","","","","","audio-keyboard-response","171","376378","0.0-194.0","5","1","2023-10-26 20:39:49","a725c3012b74bf33a1020a98cb69c237","186.158.228.113","Mozilla/5.0 (Windows NT 10.0; Win64; x64) AppleWebKit/537.36 (KHTML, like Gecko) Chrome/118.0.0.0 Safari/537.36 Edg/118.0.2088.69","WebKit","Edge","118.0.2088.69","Windows","10.0","null","es,es-ES;q=0.9,en;q=0.8,en-GB;q=0.7,en-US;q=0.6","true","null","tones/880hz_short.mp3","null","","","tone_number_task","102.5","61","tones/880hz_short.mp3","252.5","100","0","28",""
"","","","","","html-keyboard-response","172","376533","0.0-197.0-0.0","5","1","2023-10-26 20:39:49","a725c3012b74bf33a1020a98cb69c237","186.158.228.113","Mozilla/5.0 (Windows NT 10.0; Win64; x64) AppleWebKit/537.36 (KHTML, like Gecko) Chrome/118.0.0.0 Safari/537.36 Edg/118.0.2088.69","WebKit","Edge","118.0.2088.69","Windows","10.0","null","es,es-ES;q=0.9,en;q=0.8,en-GB;q=0.7,en-US;q=0.6","true","147","tones/880hz_short.mp3","s","","","empty_block","","61","","","","0","28",""
"","","","","","html-keyboard-response","173","376824","0.0-197.0-1.0","5","1","2023-10-26 20:39:49","a725c3012b74bf33a1020a98cb69c237","186.158.228.113","Mozilla/5.0 (Windows NT 10.0; Win64; x64) AppleWebKit/537.36 (KHTML, like Gecko) Chrome/118.0.0.0 Safari/537.36 Edg/118.0.2088.69","WebKit","Edge","118.0.2088.69","Windows","10.0","null","es,es-ES;q=0.9,en;q=0.8,en-GB;q=0.7,en-US;q=0.6","true","285","tones/880hz_short.mp3","k","","","empty_block","","61","","","","0","28",""
"","","","","","html-keyboard-response","174","379459","0.0-199.0","5","1","2023-10-26 20:39:49","a725c3012b74bf33a1020a98cb69c237","186.158.228.113","Mozilla/5.0 (Windows NT 10.0; Win64; x64) AppleWebKit/537.36 (KHTML, like Gecko) Chrome/118.0.0.0 Safari/537.36 Edg/118.0.2088.69","WebKit","Edge","118.0.2088.69","Windows","10.0","null","es,es-ES;q=0.9,en;q=0.8,en-GB;q=0.7,en-US;q=0.6","true","null","<div style=""font-size:100px;"">X</div>","null","","","fixation","","","","","","","",""
"","","","","","audio-keyboard-response","175","379951","0.0-200.0","5","1","2023-10-26 20:39:49","a725c3012b74bf33a1020a98cb69c237","186.158.228.113","Mozilla/5.0 (Windows NT 10.0; Win64; x64) AppleWebKit/537.36 (KHTML, like Gecko) Chrome/118.0.0.0 Safari/537.36 Edg/118.0.2088.69","WebKit","Edge","118.0.2088.69","Windows","10.0","null","es,es-ES;q=0.9,en;q=0.8,en-GB;q=0.7,en-US;q=0.6","true","491","tones/440hz_short.mp3","a","","","tone_number_task","1025","38","tones/440hz_short.mp3","1175","100","0","29",""
"","","","","","html-keyboard-response","176","380509","0.0-201.0-0.0","5","1","2023-10-26 20:39:49","a725c3012b74bf33a1020a98cb69c237","186.158.228.113","Mozilla/5.0 (Windows NT 10.0; Win64; x64) AppleWebKit/537.36 (KHTML, like Gecko) Chrome/118.0.0.0 Safari/537.36 Edg/118.0.2088.69","WebKit","Edge","118.0.2088.69","Windows","10.0","null","es,es-ES;q=0.9,en;q=0.8,en-GB;q=0.7,en-US;q=0.6","true","null","","null","","","delay_block","","","","","","0","29",""
"","","","","","html-keyboard-response","177","380669","0.0-201.0-1.0","5","1","2023-10-26 20:39:49","a725c3012b74bf33a1020a98cb69c237","186.158.228.113","Mozilla/5.0 (Windows NT 10.0; Win64; x64) AppleWebKit/537.36 (KHTML, like Gecko) Chrome/118.0.0.0 Safari/537.36 Edg/118.0.2088.69","WebKit","Edge","118.0.2088.69","Windows","10.0","null","es,es-ES;q=0.9,en;q=0.8,en-GB;q=0.7,en-US;q=0.6","true","null","<p id=""stimulus"" style=""font-size:100px;"">38</p>","null","","","tone_number_task_remaining_before_delay","","38","","684","100","0","29",""
"","","","","","html-keyboard-response","178","380930","0.0-204.0-0.0","5","1","2023-10-26 20:39:49","a725c3012b74bf33a1020a98cb69c237","186.158.228.113","Mozilla/5.0 (Windows NT 10.0; Win64; x64) AppleWebKit/537.36 (KHTML, like Gecko) Chrome/118.0.0.0 Safari/537.36 Edg/118.0.2088.69","WebKit","Edge","118.0.2088.69","Windows","10.0","null","es,es-ES;q=0.9,en;q=0.8,en-GB;q=0.7,en-US;q=0.6","true","254","<p id=""stimulus"" style=""font-size:100px;"">38</p>","j","","","empty_block","","38","","","","0","29",""
"","","","","","html-keyboard-response","179","383569","0.0-205.0","5","1","2023-10-26 20:39:49","a725c3012b74bf33a1020a98cb69c237","186.158.228.113","Mozilla/5.0 (Windows NT 10.0; Win64; x64) AppleWebKit/537.36 (KHTML, like Gecko) Chrome/118.0.0.0 Safari/537.36 Edg/118.0.2088.69","WebKit","Edge","118.0.2088.69","Windows","10.0","null","es,es-ES;q=0.9,en;q=0.8,en-GB;q=0.7,en-US;q=0.6","true","null","<div style=""font-size:100px;"">X</div>","null","","","fixation","","","","","","","",""
"","","","","","audio-keyboard-response","180","383829","0.0-206.0","5","1","2023-10-26 20:39:49","a725c3012b74bf33a1020a98cb69c237","186.158.228.113","Mozilla/5.0 (Windows NT 10.0; Win64; x64) AppleWebKit/537.36 (KHTML, like Gecko) Chrome/118.0.0.0 Safari/537.36 Edg/118.0.2088.69","WebKit","Edge","118.0.2088.69","Windows","10.0","null","es,es-ES;q=0.9,en;q=0.8,en-GB;q=0.7,en-US;q=0.6","true","null","tones/880hz_short.mp3","null","","","tone_number_task","102.5","23","tones/880hz_short.mp3","252.5","100","0","30",""
"","","","","","html-keyboard-response","181","384048","0.0-209.0-0.0","5","1","2023-10-26 20:39:49","a725c3012b74bf33a1020a98cb69c237","186.158.228.113","Mozilla/5.0 (Windows NT 10.0; Win64; x64) AppleWebKit/537.36 (KHTML, like Gecko) Chrome/118.0.0.0 Safari/537.36 Edg/118.0.2088.69","WebKit","Edge","118.0.2088.69","Windows","10.0","null","es,es-ES;q=0.9,en;q=0.8,en-GB;q=0.7,en-US;q=0.6","true","212","tones/880hz_short.mp3","s","","","empty_block","","23","","","","0","30",""
"","","","","","html-keyboard-response","182","384414","0.0-209.0-1.0","5","1","2023-10-26 20:39:49","a725c3012b74bf33a1020a98cb69c237","186.158.228.113","Mozilla/5.0 (Windows NT 10.0; Win64; x64) AppleWebKit/537.36 (KHTML, like Gecko) Chrome/118.0.0.0 Safari/537.36 Edg/118.0.2088.69","WebKit","Edge","118.0.2088.69","Windows","10.0","null","es,es-ES;q=0.9,en;q=0.8,en-GB;q=0.7,en-US;q=0.6","true","358","tones/880hz_short.mp3","j","","","empty_block","","23","","","","0","30",""
"","","","","","html-keyboard-response","183","387048","0.0-211.0","5","1","2023-10-26 20:39:49","a725c3012b74bf33a1020a98cb69c237","186.158.228.113","Mozilla/5.0 (Windows NT 10.0; Win64; x64) AppleWebKit/537.36 (KHTML, like Gecko) Chrome/118.0.0.0 Safari/537.36 Edg/118.0.2088.69","WebKit","Edge","118.0.2088.69","Windows","10.0","null","es,es-ES;q=0.9,en;q=0.8,en-GB;q=0.7,en-US;q=0.6","true","null","<div style=""font-size:100px;"">X</div>","null","","","fixation","","","","","","","",""
"","","","","","audio-keyboard-response","184","387860","0.0-212.0","5","1","2023-10-26 20:39:49","a725c3012b74bf33a1020a98cb69c237","186.158.228.113","Mozilla/5.0 (Windows NT 10.0; Win64; x64) AppleWebKit/537.36 (KHTML, like Gecko) Chrome/118.0.0.0 Safari/537.36 Edg/118.0.2088.69","WebKit","Edge","118.0.2088.69","Windows","10.0","null","es,es-ES;q=0.9,en;q=0.8,en-GB;q=0.7,en-US;q=0.6","true","808","tones/440hz_short.mp3","a","","","tone_number_task","1025","56","tones/440hz_short.mp3","1175","100","0","31",""
"","","","","","html-keyboard-response","185","388088","0.0-213.0-0.0","5","1","2023-10-26 20:39:49","a725c3012b74bf33a1020a98cb69c237","186.158.228.113","Mozilla/5.0 (Windows NT 10.0; Win64; x64) AppleWebKit/537.36 (KHTML, like Gecko) Chrome/118.0.0.0 Safari/537.36 Edg/118.0.2088.69","WebKit","Edge","118.0.2088.69","Windows","10.0","null","es,es-ES;q=0.9,en;q=0.8,en-GB;q=0.7,en-US;q=0.6","true","null","","null","","","delay_block","","","","","","0","31",""
"","","","","","html-keyboard-response","186","388258","0.0-213.0-1.0","5","1","2023-10-26 20:39:49","a725c3012b74bf33a1020a98cb69c237","186.158.228.113","Mozilla/5.0 (Windows NT 10.0; Win64; x64) AppleWebKit/537.36 (KHTML, like Gecko) Chrome/118.0.0.0 Safari/537.36 Edg/118.0.2088.69","WebKit","Edge","118.0.2088.69","Windows","10.0","null","es,es-ES;q=0.9,en;q=0.8,en-GB;q=0.7,en-US;q=0.6","true","null","<p id=""stimulus"" style=""font-size:100px;"">56</p>","null","","","tone_number_task_remaining_before_delay","","56","","367","100","0","31",""
"","","","","","html-keyboard-response","187","388477","0.0-216.0-0.0","5","1","2023-10-26 20:39:49","a725c3012b74bf33a1020a98cb69c237","186.158.228.113","Mozilla/5.0 (Windows NT 10.0; Win64; x64) AppleWebKit/537.36 (KHTML, like Gecko) Chrome/118.0.0.0 Safari/537.36 Edg/118.0.2088.69","WebKit","Edge","118.0.2088.69","Windows","10.0","null","es,es-ES;q=0.9,en;q=0.8,en-GB;q=0.7,en-US;q=0.6","true","212","<p id=""stimulus"" style=""font-size:100px;"">56</p>","k","","","empty_block","","56","","","","0","31",""
"","","","","","html-keyboard-response","188","391118","0.0-217.0","5","1","2023-10-26 20:39:49","a725c3012b74bf33a1020a98cb69c237","186.158.228.113","Mozilla/5.0 (Windows NT 10.0; Win64; x64) AppleWebKit/537.36 (KHTML, like Gecko) Chrome/118.0.0.0 Safari/537.36 Edg/118.0.2088.69","WebKit","Edge","118.0.2088.69","Windows","10.0","null","es,es-ES;q=0.9,en;q=0.8,en-GB;q=0.7,en-US;q=0.6","true","null","<div style=""font-size:100px;"">X</div>","null","","","fixation","","","","","","","",""
"","","","","","audio-keyboard-response","189","391278","0.0-218.0","5","1","2023-10-26 20:39:49","a725c3012b74bf33a1020a98cb69c237","186.158.228.113","Mozilla/5.0 (Windows NT 10.0; Win64; x64) AppleWebKit/537.36 (KHTML, like Gecko) Chrome/118.0.0.0 Safari/537.36 Edg/118.0.2088.69","WebKit","Edge","118.0.2088.69","Windows","10.0","null","es,es-ES;q=0.9,en;q=0.8,en-GB;q=0.7,en-US;q=0.6","true","null","tones/440hz_short.mp3","null","","","tone_number_task","0","44","tones/440hz_short.mp3","150","100","0","32",""
"","","","","","html-keyboard-response","190","391606","0.0-221.0-0.0","5","1","2023-10-26 20:39:49","a725c3012b74bf33a1020a98cb69c237","186.158.228.113","Mozilla/5.0 (Windows NT 10.0; Win64; x64) AppleWebKit/537.36 (KHTML, like Gecko) Chrome/118.0.0.0 Safari/537.36 Edg/118.0.2088.69","WebKit","Edge","118.0.2088.69","Windows","10.0","null","es,es-ES;q=0.9,en;q=0.8,en-GB;q=0.7,en-US;q=0.6","true","320","tones/440hz_short.mp3","a","","","empty_block","","44","","","","0","32",""
"","","","","","html-keyboard-response","191","392021","0.0-221.0-1.0","5","1","2023-10-26 20:39:49","a725c3012b74bf33a1020a98cb69c237","186.158.228.113","Mozilla/5.0 (Windows NT 10.0; Win64; x64) AppleWebKit/537.36 (KHTML, like Gecko) Chrome/118.0.0.0 Safari/537.36 Edg/118.0.2088.69","WebKit","Edge","118.0.2088.69","Windows","10.0","null","es,es-ES;q=0.9,en;q=0.8,en-GB;q=0.7,en-US;q=0.6","true","406","tones/440hz_short.mp3","j","","","empty_block","","44","","","","0","32",""
"","","","","","html-keyboard-response","192","394659","0.0-223.0","5","1","2023-10-26 20:39:49","a725c3012b74bf33a1020a98cb69c237","186.158.228.113","Mozilla/5.0 (Windows NT 10.0; Win64; x64) AppleWebKit/537.36 (KHTML, like Gecko) Chrome/118.0.0.0 Safari/537.36 Edg/118.0.2088.69","WebKit","Edge","118.0.2088.69","Windows","10.0","null","es,es-ES;q=0.9,en;q=0.8,en-GB;q=0.7,en-US;q=0.6","true","null","<div style=""font-size:100px;"">X</div>","null","","","fixation","","","","","","","",""
"","","","","","audio-keyboard-response","193","394920","0.0-224.0","5","1","2023-10-26 20:39:49","a725c3012b74bf33a1020a98cb69c237","186.158.228.113","Mozilla/5.0 (Windows NT 10.0; Win64; x64) AppleWebKit/537.36 (KHTML, like Gecko) Chrome/118.0.0.0 Safari/537.36 Edg/118.0.2088.69","WebKit","Edge","118.0.2088.69","Windows","10.0","null","es,es-ES;q=0.9,en;q=0.8,en-GB;q=0.7,en-US;q=0.6","true","null","tones/440hz_short.mp3","null","","","tone_number_task","102.5","69","tones/440hz_short.mp3","252.5","100","0","33",""
"","","","","","html-keyboard-response","194","395362","0.0-227.0-0.0","5","1","2023-10-26 20:39:49","a725c3012b74bf33a1020a98cb69c237","186.158.228.113","Mozilla/5.0 (Windows NT 10.0; Win64; x64) AppleWebKit/537.36 (KHTML, like Gecko) Chrome/118.0.0.0 Safari/537.36 Edg/118.0.2088.69","WebKit","Edge","118.0.2088.69","Windows","10.0","null","es,es-ES;q=0.9,en;q=0.8,en-GB;q=0.7,en-US;q=0.6","true","433","tones/440hz_short.mp3","a","","","empty_block","","69","","","","0","33",""
"","","","","","html-keyboard-response","195","395640","0.0-227.0-1.0","5","1","2023-10-26 20:39:49","a725c3012b74bf33a1020a98cb69c237","186.158.228.113","Mozilla/5.0 (Windows NT 10.0; Win64; x64) AppleWebKit/537.36 (KHTML, like Gecko) Chrome/118.0.0.0 Safari/537.36 Edg/118.0.2088.69","WebKit","Edge","118.0.2088.69","Windows","10.0","null","es,es-ES;q=0.9,en;q=0.8,en-GB;q=0.7,en-US;q=0.6","true","271","tones/440hz_short.mp3","k","","","empty_block","","69","","","","0","33",""
"","","","","","html-keyboard-response","196","398279","0.0-229.0","5","1","2023-10-26 20:39:49","a725c3012b74bf33a1020a98cb69c237","186.158.228.113","Mozilla/5.0 (Windows NT 10.0; Win64; x64) AppleWebKit/537.36 (KHTML, like Gecko) Chrome/118.0.0.0 Safari/537.36 Edg/118.0.2088.69","WebKit","Edge","118.0.2088.69","Windows","10.0","null","es,es-ES;q=0.9,en;q=0.8,en-GB;q=0.7,en-US;q=0.6","true","null","<div style=""font-size:100px;"">X</div>","null","","","fixation","","","","","","","",""
