"success","timeout","failed_images","failed_audio","failed_video","trial_type","trial_index","time_elapsed","internal_node_id","run_id","condition","recorded_at","source_code_version","ip","user_agent","device","browser","browser_version","platform","platform_version","referer","accept_language","check","rt","stimulus","response","question_order","url","task","delay","number","audioFile","trial_duration","font_size","block","round","value"
"true","false","[]","[]","[]","preload","0","731","0.0-0.0","18","1","2023-10-31 19:10:55","a725c3012b74bf33a1020a98cb69c237","45.71.5.119","Mozilla/5.0 (Windows NT 10.0; Win64; x64) AppleWebKit/537.36 (KHTML, like Gecko) Chrome/118.0.0.0 Safari/537.36","WebKit","Chrome","118.0.0.0","Windows","10.0","null","es-ES,es;q=0.9,en;q=0.8,pt;q=0.7,it;q=0.6","true","","","","","","","","","","","","","",""
"true","","","","","fullscreen","1","7387","0.0-1.0","18","1","2023-10-31 19:10:55","a725c3012b74bf33a1020a98cb69c237","45.71.5.119","Mozilla/5.0 (Windows NT 10.0; Win64; x64) AppleWebKit/537.36 (KHTML, like Gecko) Chrome/118.0.0.0 Safari/537.36","WebKit","Chrome","118.0.0.0","Windows","10.0","null","es-ES,es;q=0.9,en;q=0.8,pt;q=0.7,it;q=0.6","true","","","","","","","","","","","","","",""
"","","","","","html-button-response","2","9381","0.0-2.0","18","1","2023-10-31 19:10:55","a725c3012b74bf33a1020a98cb69c237","45.71.5.119","Mozilla/5.0 (Windows NT 10.0; Win64; x64) AppleWebKit/537.36 (KHTML, like Gecko) Chrome/118.0.0.0 Safari/537.36","WebKit","Chrome","118.0.0.0","Windows","10.0","null","es-ES,es;q=0.9,en;q=0.8,pt;q=0.7,it;q=0.6","true","1991","<p style=""font-size:24px; color:red;"">Cosas importantes a tener en cuenta antes de comenzar el experimento:</p>","0","","","","","","","","","","",""
"","","","","","html-button-response","3","14965","0.0-3.0","18","1","2023-10-31 19:10:55","a725c3012b74bf33a1020a98cb69c237","45.71.5.119","Mozilla/5.0 (Windows NT 10.0; Win64; x64) AppleWebKit/537.36 (KHTML, like Gecko) Chrome/118.0.0.0 Safari/537.36","WebKit","Chrome","118.0.0.0","Windows","10.0","null","es-ES,es;q=0.9,en;q=0.8,pt;q=0.7,it;q=0.6","true","5583","<p style=""font-size:24px;"">El experimento dura aproximadamente 15 minutos.</p><p style=""font-size:24px;"">Por favor, no cierres la ventana del navegador durante el experimento.</p><p style=""font-size:24px;"">Si se completa de forma parcial, no se guardará ningún resultado.</p>","0","","","","","","","","","","",""
"","","","","","html-button-response","4","17549","0.0-4.0","18","1","2023-10-31 19:10:55","a725c3012b74bf33a1020a98cb69c237","45.71.5.119","Mozilla/5.0 (Windows NT 10.0; Win64; x64) AppleWebKit/537.36 (KHTML, like Gecko) Chrome/118.0.0.0 Safari/537.36","WebKit","Chrome","118.0.0.0","Windows","10.0","null","es-ES,es;q=0.9,en;q=0.8,pt;q=0.7,it;q=0.6","true","2583","<p style=""font-size:24px;"">El experimento contiene estímulos sonoros.</p>","0","","","","","","","","","","",""
"","","","","","audio-button-response","5","21549","0.0-5.0-0.0","18","1","2023-10-31 19:10:55","a725c3012b74bf33a1020a98cb69c237","45.71.5.119","Mozilla/5.0 (Windows NT 10.0; Win64; x64) AppleWebKit/537.36 (KHTML, like Gecko) Chrome/118.0.0.0 Safari/537.36","WebKit","Chrome","118.0.0.0","Windows","10.0","null","es-ES,es;q=0.9,en;q=0.8,pt;q=0.7,it;q=0.6","true","3949","tones/440hz_short.mp3","1","","","","","","","","","","",""
"","","","","","audio-button-response","6","22941","0.0-6.0-0.0","18","1","2023-10-31 19:10:55","a725c3012b74bf33a1020a98cb69c237","45.71.5.119","Mozilla/5.0 (Windows NT 10.0; Win64; x64) AppleWebKit/537.36 (KHTML, like Gecko) Chrome/118.0.0.0 Safari/537.36","WebKit","Chrome","118.0.0.0","Windows","10.0","null","es-ES,es;q=0.9,en;q=0.8,pt;q=0.7,it;q=0.6","true","1389","tones/880hz_short.mp3","1","","","","","","","","","","",""
"","","","","","survey-html-form","7","26837","0.0-7.0","18","1","2023-10-31 19:10:55","a725c3012b74bf33a1020a98cb69c237","45.71.5.119","Mozilla/5.0 (Windows NT 10.0; Win64; x64) AppleWebKit/537.36 (KHTML, like Gecko) Chrome/118.0.0.0 Safari/537.36","WebKit","Chrome","118.0.0.0","Windows","10.0","null","es-ES,es;q=0.9,en;q=0.8,pt;q=0.7,it;q=0.6","true","3892","","{""response"":""33""}","","","","","","","","","","",""
"","","","","","survey-multi-choice","8","32164","0.0-8.0","18","1","2023-10-31 19:10:55","a725c3012b74bf33a1020a98cb69c237","45.71.5.119","Mozilla/5.0 (Windows NT 10.0; Win64; x64) AppleWebKit/537.36 (KHTML, like Gecko) Chrome/118.0.0.0 Safari/537.36","WebKit","Chrome","118.0.0.0","Windows","10.0","null","es-ES,es;q=0.9,en;q=0.8,pt;q=0.7,it;q=0.6","true","5326","","{""gender"":""Mujer"",""hand"":""Derecha""}","[0,1]","","","","","","","","","",""
"","","","","","external-html","9","93683","0.0-9.0","18","1","2023-10-31 19:10:55","a725c3012b74bf33a1020a98cb69c237","45.71.5.119","Mozilla/5.0 (Windows NT 10.0; Win64; x64) AppleWebKit/537.36 (KHTML, like Gecko) Chrome/118.0.0.0 Safari/537.36","WebKit","Chrome","118.0.0.0","Windows","10.0","null","es-ES,es;q=0.9,en;q=0.8,pt;q=0.7,it;q=0.6","true","61223","","","","instructions/instructions.html","","","","","","","","",""
"","","","","","external-html","10","141586","0.0-10.0","18","1","2023-10-31 19:10:55","a725c3012b74bf33a1020a98cb69c237","45.71.5.119","Mozilla/5.0 (Windows NT 10.0; Win64; x64) AppleWebKit/537.36 (KHTML, like Gecko) Chrome/118.0.0.0 Safari/537.36","WebKit","Chrome","118.0.0.0","Windows","10.0","null","es-ES,es;q=0.9,en;q=0.8,pt;q=0.7,it;q=0.6","true","47594","","","","instructions/animation.html","","","","","","","","",""
"","","","","","html-keyboard-response","11","144205","0.0-11.0-0.0","18","1","2023-10-31 19:10:55","a725c3012b74bf33a1020a98cb69c237","45.71.5.119","Mozilla/5.0 (Windows NT 10.0; Win64; x64) AppleWebKit/537.36 (KHTML, like Gecko) Chrome/118.0.0.0 Safari/537.36","WebKit","Chrome","118.0.0.0","Windows","10.0","null","es-ES,es;q=0.9,en;q=0.8,pt;q=0.7,it;q=0.6","true","null","<div style=""font-size:100px;"">X</div>","null","","","fixation","","","","","","","",""
"","","","","","audio-keyboard-response","12","144928","0.0-11.0-1.0","18","1","2023-10-31 19:10:55","a725c3012b74bf33a1020a98cb69c237","45.71.5.119","Mozilla/5.0 (Windows NT 10.0; Win64; x64) AppleWebKit/537.36 (KHTML, like Gecko) Chrome/118.0.0.0 Safari/537.36","WebKit","Chrome","118.0.0.0","Windows","10.0","null","es-ES,es;q=0.9,en;q=0.8,pt;q=0.7,it;q=0.6","true","688","tones/440hz_short.mp3","a","","","tone_number_task","1000","56","tones/440hz_short.mp3","1150","100","null","null",""
"","","","","","html-keyboard-response","13","145249","0.0-11.0-2.0-0.0","18","1","2023-10-31 19:10:55","a725c3012b74bf33a1020a98cb69c237","45.71.5.119","Mozilla/5.0 (Windows NT 10.0; Win64; x64) AppleWebKit/537.36 (KHTML, like Gecko) Chrome/118.0.0.0 Safari/537.36","WebKit","Chrome","118.0.0.0","Windows","10.0","null","es-ES,es;q=0.9,en;q=0.8,pt;q=0.7,it;q=0.6","true","null","","null","","","delay_block","","","","","","null","null",""
"","","","","","html-keyboard-response","14","145402","0.0-11.0-2.0-1.0","18","1","2023-10-31 19:10:55","a725c3012b74bf33a1020a98cb69c237","45.71.5.119","Mozilla/5.0 (Windows NT 10.0; Win64; x64) AppleWebKit/537.36 (KHTML, like Gecko) Chrome/118.0.0.0 Safari/537.36","WebKit","Chrome","118.0.0.0","Windows","10.0","null","es-ES,es;q=0.9,en;q=0.8,pt;q=0.7,it;q=0.6","true","null","<p id=""stimulus"" style=""font-size:100px;"">56</p>","null","","","tone_number_task_remaining_before_delay","","56","","462","100","null","null",""
"","","","","","html-keyboard-response","15","146097","0.0-11.0-5.0-0.0","18","1","2023-10-31 19:10:55","a725c3012b74bf33a1020a98cb69c237","45.71.5.119","Mozilla/5.0 (Windows NT 10.0; Win64; x64) AppleWebKit/537.36 (KHTML, like Gecko) Chrome/118.0.0.0 Safari/537.36","WebKit","Chrome","118.0.0.0","Windows","10.0","null","es-ES,es;q=0.9,en;q=0.8,pt;q=0.7,it;q=0.6","true","691","<p id=""stimulus"" style=""font-size:100px;"">56</p>","k","","","empty_block","","56","","","","null","null",""
"","","","","","html-keyboard-response","16","148714","0.0-13.0-0.0","18","1","2023-10-31 19:10:55","a725c3012b74bf33a1020a98cb69c237","45.71.5.119","Mozilla/5.0 (Windows NT 10.0; Win64; x64) AppleWebKit/537.36 (KHTML, like Gecko) Chrome/118.0.0.0 Safari/537.36","WebKit","Chrome","118.0.0.0","Windows","10.0","null","es-ES,es;q=0.9,en;q=0.8,pt;q=0.7,it;q=0.6","true","null","<div style=""font-size:100px;"">X</div>","null","","","fixation","","","","","","","",""
"","","","","","audio-keyboard-response","17","149278","0.0-13.0-1.0","18","1","2023-10-31 19:10:55","a725c3012b74bf33a1020a98cb69c237","45.71.5.119","Mozilla/5.0 (Windows NT 10.0; Win64; x64) AppleWebKit/537.36 (KHTML, like Gecko) Chrome/118.0.0.0 Safari/537.36","WebKit","Chrome","118.0.0.0","Windows","10.0","null","es-ES,es;q=0.9,en;q=0.8,pt;q=0.7,it;q=0.6","true","560","tones/440hz_short.mp3","a","","","tone_number_task","500","39","tones/440hz_short.mp3","650","100","null","null",""
"","","","","","html-keyboard-response","18","149372","0.0-13.0-3.0-0.0","18","1","2023-10-31 19:10:55","a725c3012b74bf33a1020a98cb69c237","45.71.5.119","Mozilla/5.0 (Windows NT 10.0; Win64; x64) AppleWebKit/537.36 (KHTML, like Gecko) Chrome/118.0.0.0 Safari/537.36","WebKit","Chrome","118.0.0.0","Windows","10.0","null","es-ES,es;q=0.9,en;q=0.8,pt;q=0.7,it;q=0.6","true","null","<p id=""stimulus"" style=""font-size:100px;"">39</p>","null","","","tone_number_task_remaining_after_delay","","39","","","100","null","null",""
"","","","","","html-keyboard-response","19","149861","0.0-13.0-5.0-0.0","18","1","2023-10-31 19:10:55","a725c3012b74bf33a1020a98cb69c237","45.71.5.119","Mozilla/5.0 (Windows NT 10.0; Win64; x64) AppleWebKit/537.36 (KHTML, like Gecko) Chrome/118.0.0.0 Safari/537.36","WebKit","Chrome","118.0.0.0","Windows","10.0","null","es-ES,es;q=0.9,en;q=0.8,pt;q=0.7,it;q=0.6","true","487","<p id=""stimulus"" style=""font-size:100px;"">39</p>","j","","","empty_block","","39","","","","null","null",""
"","","","","","html-keyboard-response","20","152479","0.0-15.0-0.0","18","1","2023-10-31 19:10:55","a725c3012b74bf33a1020a98cb69c237","45.71.5.119","Mozilla/5.0 (Windows NT 10.0; Win64; x64) AppleWebKit/537.36 (KHTML, like Gecko) Chrome/118.0.0.0 Safari/537.36","WebKit","Chrome","118.0.0.0","Windows","10.0","null","es-ES,es;q=0.9,en;q=0.8,pt;q=0.7,it;q=0.6","true","null","<div style=""font-size:100px;"">X</div>","null","","","fixation","","","","","","","",""
"","","","","","audio-keyboard-response","21","152782","0.0-15.0-1.0","18","1","2023-10-31 19:10:55","a725c3012b74bf33a1020a98cb69c237","45.71.5.119","Mozilla/5.0 (Windows NT 10.0; Win64; x64) AppleWebKit/537.36 (KHTML, like Gecko) Chrome/118.0.0.0 Safari/537.36","WebKit","Chrome","118.0.0.0","Windows","10.0","null","es-ES,es;q=0.9,en;q=0.8,pt;q=0.7,it;q=0.6","true","null","tones/440hz_short.mp3","null","","","tone_number_task","150","51","tones/440hz_short.mp3","300","100","null","null",""
"","","","","","html-keyboard-response","22","153294","0.0-15.0-4.0-0.0","18","1","2023-10-31 19:10:55","a725c3012b74bf33a1020a98cb69c237","45.71.5.119","Mozilla/5.0 (Windows NT 10.0; Win64; x64) AppleWebKit/537.36 (KHTML, like Gecko) Chrome/118.0.0.0 Safari/537.36","WebKit","Chrome","118.0.0.0","Windows","10.0","null","es-ES,es;q=0.9,en;q=0.8,pt;q=0.7,it;q=0.6","true","511","tones/440hz_short.mp3","a","","","empty_block","","51","","","","null","null",""
"","","","","","html-keyboard-response","23","154019","0.0-15.0-4.0-1.0","18","1","2023-10-31 19:10:55","a725c3012b74bf33a1020a98cb69c237","45.71.5.119","Mozilla/5.0 (Windows NT 10.0; Win64; x64) AppleWebKit/537.36 (KHTML, like Gecko) Chrome/118.0.0.0 Safari/537.36","WebKit","Chrome","118.0.0.0","Windows","10.0","null","es-ES,es;q=0.9,en;q=0.8,pt;q=0.7,it;q=0.6","true","724","tones/440hz_short.mp3","k","","","empty_block","","51","","","","null","null",""
"","","","","","html-keyboard-response","24","156637","0.0-17.0-0.0","18","1","2023-10-31 19:10:55","a725c3012b74bf33a1020a98cb69c237","45.71.5.119","Mozilla/5.0 (Windows NT 10.0; Win64; x64) AppleWebKit/537.36 (KHTML, like Gecko) Chrome/118.0.0.0 Safari/537.36","WebKit","Chrome","118.0.0.0","Windows","10.0","null","es-ES,es;q=0.9,en;q=0.8,pt;q=0.7,it;q=0.6","true","null","<div style=""font-size:100px;"">X</div>","null","","","fixation","","","","","","","",""
"","","","","","audio-keyboard-response","25","156840","0.0-17.0-1.0","18","1","2023-10-31 19:10:55","a725c3012b74bf33a1020a98cb69c237","45.71.5.119","Mozilla/5.0 (Windows NT 10.0; Win64; x64) AppleWebKit/537.36 (KHTML, like Gecko) Chrome/118.0.0.0 Safari/537.36","WebKit","Chrome","118.0.0.0","Windows","10.0","null","es-ES,es;q=0.9,en;q=0.8,pt;q=0.7,it;q=0.6","true","null","tones/440hz_short.mp3","null","","","tone_number_task","50","63","tones/440hz_short.mp3","200","100","null","null",""
"","","","","","html-keyboard-response","26","157405","0.0-17.0-4.0-0.0","18","1","2023-10-31 19:10:55","a725c3012b74bf33a1020a98cb69c237","45.71.5.119","Mozilla/5.0 (Windows NT 10.0; Win64; x64) AppleWebKit/537.36 (KHTML, like Gecko) Chrome/118.0.0.0 Safari/537.36","WebKit","Chrome","118.0.0.0","Windows","10.0","null","es-ES,es;q=0.9,en;q=0.8,pt;q=0.7,it;q=0.6","true","562","tones/440hz_short.mp3","k","","","empty_block","","63","","","","null","null",""
"","","","","","html-keyboard-response","27","163607","0.0-17.0-4.0-1.0","18","1","2023-10-31 19:10:55","a725c3012b74bf33a1020a98cb69c237","45.71.5.119","Mozilla/5.0 (Windows NT 10.0; Win64; x64) AppleWebKit/537.36 (KHTML, like Gecko) Chrome/118.0.0.0 Safari/537.36","WebKit","Chrome","118.0.0.0","Windows","10.0","null","es-ES,es;q=0.9,en;q=0.8,pt;q=0.7,it;q=0.6","true","6200","tones/440hz_short.mp3","s","","","empty_block","","63","","","","null","null",""
"","","","","","html-button-response","28","167137","0.0-17.0-6.0-0.0","18","1","2023-10-31 19:10:55","a725c3012b74bf33a1020a98cb69c237","45.71.5.119","Mozilla/5.0 (Windows NT 10.0; Win64; x64) AppleWebKit/537.36 (KHTML, like Gecko) Chrome/118.0.0.0 Safari/537.36","WebKit","Chrome","118.0.0.0","Windows","10.0","null","es-ES,es;q=0.9,en;q=0.8,pt;q=0.7,it;q=0.6","true","3528","
  '<p style=""font-size:24px; color:red;"">Incorrecto</p><p> Respondiste alguno de los estímulos de manera incorrecta.</p><p>Por favor, repasá las instrucciones y seguimos desde donde nos quedamos. </p>
  ","0","","","","","","","","","","",""
"","","","","","external-html","29","174745","0.0-17.0-6.0-1.0","18","1","2023-10-31 19:10:55","a725c3012b74bf33a1020a98cb69c237","45.71.5.119","Mozilla/5.0 (Windows NT 10.0; Win64; x64) AppleWebKit/537.36 (KHTML, like Gecko) Chrome/118.0.0.0 Safari/537.36","WebKit","Chrome","118.0.0.0","Windows","10.0","null","es-ES,es;q=0.9,en;q=0.8,pt;q=0.7,it;q=0.6","true","7298","","","","instructions/instructions_B.html","","","","","","","","",""
"","","","","","html-keyboard-response","30","177365","0.0-17.1-0.1","18","1","2023-10-31 19:10:55","a725c3012b74bf33a1020a98cb69c237","45.71.5.119","Mozilla/5.0 (Windows NT 10.0; Win64; x64) AppleWebKit/537.36 (KHTML, like Gecko) Chrome/118.0.0.0 Safari/537.36","WebKit","Chrome","118.0.0.0","Windows","10.0","null","es-ES,es;q=0.9,en;q=0.8,pt;q=0.7,it;q=0.6","true","null","<div style=""font-size:100px;"">X</div>","null","","","fixation","","","","","","","",""
"","","","","","audio-keyboard-response","31","177570","0.0-17.1-1.1","18","1","2023-10-31 19:10:55","a725c3012b74bf33a1020a98cb69c237","45.71.5.119","Mozilla/5.0 (Windows NT 10.0; Win64; x64) AppleWebKit/537.36 (KHTML, like Gecko) Chrome/118.0.0.0 Safari/537.36","WebKit","Chrome","118.0.0.0","Windows","10.0","null","es-ES,es;q=0.9,en;q=0.8,pt;q=0.7,it;q=0.6","true","null","tones/440hz_short.mp3","null","","","tone_number_task","50","63","tones/440hz_short.mp3","200","100","null","null",""
"","","","","","html-keyboard-response","32","177946","0.0-17.1-4.1-0.1","18","1","2023-10-31 19:10:55","a725c3012b74bf33a1020a98cb69c237","45.71.5.119","Mozilla/5.0 (Windows NT 10.0; Win64; x64) AppleWebKit/537.36 (KHTML, like Gecko) Chrome/118.0.0.0 Safari/537.36","WebKit","Chrome","118.0.0.0","Windows","10.0","null","es-ES,es;q=0.9,en;q=0.8,pt;q=0.7,it;q=0.6","true","373","tones/440hz_short.mp3","a","","","empty_block","","63","","","","null","null",""
"","","","","","html-keyboard-response","33","178391","0.0-17.1-4.1-1.1","18","1","2023-10-31 19:10:55","a725c3012b74bf33a1020a98cb69c237","45.71.5.119","Mozilla/5.0 (Windows NT 10.0; Win64; x64) AppleWebKit/537.36 (KHTML, like Gecko) Chrome/118.0.0.0 Safari/537.36","WebKit","Chrome","118.0.0.0","Windows","10.0","null","es-ES,es;q=0.9,en;q=0.8,pt;q=0.7,it;q=0.6","true","442","tones/440hz_short.mp3","k","","","empty_block","","63","","","","null","null",""
"","","","","","html-button-response","34","190937","0.0-19.0","18","1","2023-10-31 19:10:55","a725c3012b74bf33a1020a98cb69c237","45.71.5.119","Mozilla/5.0 (Windows NT 10.0; Win64; x64) AppleWebKit/537.36 (KHTML, like Gecko) Chrome/118.0.0.0 Safari/537.36","WebKit","Chrome","118.0.0.0","Windows","10.0","null","es-ES,es;q=0.9,en;q=0.8,pt;q=0.7,it;q=0.6","true","12544","
  <h1> Muy bien </h1>
  <p> Ahora, en vez de ser presentados en dígitos, los números vendrán escritos en palabras. </p>
  <p> Por ejemplo, en vez de 44 te aparecerá ""cuarenta y cuatro"". </p>
  ","0","","","","","","","","","","",""
"","","","","","html-keyboard-response","35","193554","0.0-20.0-0.0","18","1","2023-10-31 19:10:55","a725c3012b74bf33a1020a98cb69c237","45.71.5.119","Mozilla/5.0 (Windows NT 10.0; Win64; x64) AppleWebKit/537.36 (KHTML, like Gecko) Chrome/118.0.0.0 Safari/537.36","WebKit","Chrome","118.0.0.0","Windows","10.0","null","es-ES,es;q=0.9,en;q=0.8,pt;q=0.7,it;q=0.6","true","null","<div style=""font-size:100px;"">X</div>","null","","","fixation","","","","","","","",""
"","","","","","audio-keyboard-response","36","194012","0.0-20.0-1.0","18","1","2023-10-31 19:10:55","a725c3012b74bf33a1020a98cb69c237","45.71.5.119","Mozilla/5.0 (Windows NT 10.0; Win64; x64) AppleWebKit/537.36 (KHTML, like Gecko) Chrome/118.0.0.0 Safari/537.36","WebKit","Chrome","118.0.0.0","Windows","10.0","null","es-ES,es;q=0.9,en;q=0.8,pt;q=0.7,it;q=0.6","true","459","tones/440hz_short.mp3","a","","","tone_number_task","1000","sesenta y nueve","tones/440hz_short.mp3","1150","60","null","null",""
"","","","","","html-keyboard-response","37","194557","0.0-20.0-2.0-0.0","18","1","2023-10-31 19:10:55","a725c3012b74bf33a1020a98cb69c237","45.71.5.119","Mozilla/5.0 (Windows NT 10.0; Win64; x64) AppleWebKit/537.36 (KHTML, like Gecko) Chrome/118.0.0.0 Safari/537.36","WebKit","Chrome","118.0.0.0","Windows","10.0","null","es-ES,es;q=0.9,en;q=0.8,pt;q=0.7,it;q=0.6","true","null","","null","","","delay_block","","","","","","null","null",""
"","","","","","html-keyboard-response","38","194712","0.0-20.0-2.0-1.0","18","1","2023-10-31 19:10:55","a725c3012b74bf33a1020a98cb69c237","45.71.5.119","Mozilla/5.0 (Windows NT 10.0; Win64; x64) AppleWebKit/537.36 (KHTML, like Gecko) Chrome/118.0.0.0 Safari/537.36","WebKit","Chrome","118.0.0.0","Windows","10.0","null","es-ES,es;q=0.9,en;q=0.8,pt;q=0.7,it;q=0.6","true","null","<p id=""stimulus"" style=""font-size:60px;"">sesenta y nueve</p>","null","","","tone_number_task_remaining_before_delay","","sesenta y nueve","","691","60","null","null",""
"","","","","","html-keyboard-response","39","195306","0.0-20.0-5.0-0.0","18","1","2023-10-31 19:10:55","a725c3012b74bf33a1020a98cb69c237","45.71.5.119","Mozilla/5.0 (Windows NT 10.0; Win64; x64) AppleWebKit/537.36 (KHTML, like Gecko) Chrome/118.0.0.0 Safari/537.36","WebKit","Chrome","118.0.0.0","Windows","10.0","null","es-ES,es;q=0.9,en;q=0.8,pt;q=0.7,it;q=0.6","true","592","<p id=""stimulus"" style=""font-size:60px;"">sesenta y nueve</p>","k","","","empty_block","","sesenta y nueve","","","","null","null",""
"","","","","","html-button-response","40","204865","0.0-22.0","18","1","2023-10-31 19:10:55","a725c3012b74bf33a1020a98cb69c237","45.71.5.119","Mozilla/5.0 (Windows NT 10.0; Win64; x64) AppleWebKit/537.36 (KHTML, like Gecko) Chrome/118.0.0.0 Safari/537.36","WebKit","Chrome","118.0.0.0","Windows","10.0","null","es-ES,es;q=0.9,en;q=0.8,pt;q=0.7,it;q=0.6","true","9556","
  <h1> Fin del Entrenamiento </h1>
  <p> ¡Felicitaciones, terminaste el entrenamiento! Ahora vamos a comenzar con el experimento. </p>
  <p> Es importante tener en cuenta que consta de cuatro bloques.</p>
  <p> Podés aprovechar los momentos entre bloques para tomar un breve descanso o tomar agua entre cada uno</p>
  <p> Recordá que tenés que responder lo más rápido que puedas, pero sin equivocarte. </p>
  ","0","","","","","","","","","","",""
"","","","","","external-html","41","225904","0.0-23.0","18","1","2023-10-31 19:10:55","a725c3012b74bf33a1020a98cb69c237","45.71.5.119","Mozilla/5.0 (Windows NT 10.0; Win64; x64) AppleWebKit/537.36 (KHTML, like Gecko) Chrome/118.0.0.0 Safari/537.36","WebKit","Chrome","118.0.0.0","Windows","10.0","null","es-ES,es;q=0.9,en;q=0.8,pt;q=0.7,it;q=0.6","true","20745","","","","instructions/instructions_words_first.html","","","","","","","","",""
"","","","","","call-function","42","225908","0.0-24.0","18","1","2023-10-31 19:10:55","a725c3012b74bf33a1020a98cb69c237","45.71.5.119","Mozilla/5.0 (Windows NT 10.0; Win64; x64) AppleWebKit/537.36 (KHTML, like Gecko) Chrome/118.0.0.0 Safari/537.36","WebKit","Chrome","118.0.0.0","Windows","10.0","null","es-ES,es;q=0.9,en;q=0.8,pt;q=0.7,it;q=0.6","true","","","","","","","","","","","","","",""
"","","","","","html-keyboard-response","43","228536","0.0-25.0","18","1","2023-10-31 19:10:55","a725c3012b74bf33a1020a98cb69c237","45.71.5.119","Mozilla/5.0 (Windows NT 10.0; Win64; x64) AppleWebKit/537.36 (KHTML, like Gecko) Chrome/118.0.0.0 Safari/537.36","WebKit","Chrome","118.0.0.0","Windows","10.0","null","es-ES,es;q=0.9,en;q=0.8,pt;q=0.7,it;q=0.6","true","null","<div style=""font-size:100px;"">X</div>","null","","","fixation","","","","","","","",""
"","","","","","audio-keyboard-response","44","228792","0.0-26.0","18","1","2023-10-31 19:10:55","a725c3012b74bf33a1020a98cb69c237","45.71.5.119","Mozilla/5.0 (Windows NT 10.0; Win64; x64) AppleWebKit/537.36 (KHTML, like Gecko) Chrome/118.0.0.0 Safari/537.36","WebKit","Chrome","118.0.0.0","Windows","10.0","null","es-ES,es;q=0.9,en;q=0.8,pt;q=0.7,it;q=0.6","true","null","tones/880hz_short.mp3","null","","","tone_number_task","102.5","cuarenta y ocho","tones/880hz_short.mp3","252.5","60","2","0",""
"","","","","","html-keyboard-response","45","229096","0.0-29.0-0.0","18","1","2023-10-31 19:10:55","a725c3012b74bf33a1020a98cb69c237","45.71.5.119","Mozilla/5.0 (Windows NT 10.0; Win64; x64) AppleWebKit/537.36 (KHTML, like Gecko) Chrome/118.0.0.0 Safari/537.36","WebKit","Chrome","118.0.0.0","Windows","10.0","null","es-ES,es;q=0.9,en;q=0.8,pt;q=0.7,it;q=0.6","true","301","tones/880hz_short.mp3","s","","","empty_block","","cuarenta y ocho","","","","2","0",""
"","","","","","html-keyboard-response","46","229548","0.0-29.0-1.0","18","1","2023-10-31 19:10:55","a725c3012b74bf33a1020a98cb69c237","45.71.5.119","Mozilla/5.0 (Windows NT 10.0; Win64; x64) AppleWebKit/537.36 (KHTML, like Gecko) Chrome/118.0.0.0 Safari/537.36","WebKit","Chrome","118.0.0.0","Windows","10.0","null","es-ES,es;q=0.9,en;q=0.8,pt;q=0.7,it;q=0.6","true","450","tones/880hz_short.mp3","j","","","empty_block","","cuarenta y ocho","","","","2","0",""
"","","","","","html-keyboard-response","47","232166","0.0-31.0","18","1","2023-10-31 19:10:55","a725c3012b74bf33a1020a98cb69c237","45.71.5.119","Mozilla/5.0 (Windows NT 10.0; Win64; x64) AppleWebKit/537.36 (KHTML, like Gecko) Chrome/118.0.0.0 Safari/537.36","WebKit","Chrome","118.0.0.0","Windows","10.0","null","es-ES,es;q=0.9,en;q=0.8,pt;q=0.7,it;q=0.6","true","null","<div style=""font-size:100px;"">X</div>","null","","","fixation","","","","","","","",""
"","","","","","audio-keyboard-response","48","232421","0.0-32.0","18","1","2023-10-31 19:10:55","a725c3012b74bf33a1020a98cb69c237","45.71.5.119","Mozilla/5.0 (Windows NT 10.0; Win64; x64) AppleWebKit/537.36 (KHTML, like Gecko) Chrome/118.0.0.0 Safari/537.36","WebKit","Chrome","118.0.0.0","Windows","10.0","null","es-ES,es;q=0.9,en;q=0.8,pt;q=0.7,it;q=0.6","true","null","tones/440hz_short.mp3","null","","","tone_number_task","102.5","sesenta y siete","tones/440hz_short.mp3","252.5","60","2","1",""
"","","","","","html-keyboard-response","49","232861","0.0-35.0-0.0","18","1","2023-10-31 19:10:55","a725c3012b74bf33a1020a98cb69c237","45.71.5.119","Mozilla/5.0 (Windows NT 10.0; Win64; x64) AppleWebKit/537.36 (KHTML, like Gecko) Chrome/118.0.0.0 Safari/537.36","WebKit","Chrome","118.0.0.0","Windows","10.0","null","es-ES,es;q=0.9,en;q=0.8,pt;q=0.7,it;q=0.6","true","438","tones/440hz_short.mp3","a","","","empty_block","","sesenta y siete","","","","2","1",""
"","","","","","html-keyboard-response","50","233287","0.0-35.0-1.0","18","1","2023-10-31 19:10:55","a725c3012b74bf33a1020a98cb69c237","45.71.5.119","Mozilla/5.0 (Windows NT 10.0; Win64; x64) AppleWebKit/537.36 (KHTML, like Gecko) Chrome/118.0.0.0 Safari/537.36","WebKit","Chrome","118.0.0.0","Windows","10.0","null","es-ES,es;q=0.9,en;q=0.8,pt;q=0.7,it;q=0.6","true","424","tones/440hz_short.mp3","k","","","empty_block","","sesenta y siete","","","","2","1",""
"","","","","","html-keyboard-response","51","235905","0.0-37.0","18","1","2023-10-31 19:10:55","a725c3012b74bf33a1020a98cb69c237","45.71.5.119","Mozilla/5.0 (Windows NT 10.0; Win64; x64) AppleWebKit/537.36 (KHTML, like Gecko) Chrome/118.0.0.0 Safari/537.36","WebKit","Chrome","118.0.0.0","Windows","10.0","null","es-ES,es;q=0.9,en;q=0.8,pt;q=0.7,it;q=0.6","true","null","<div style=""font-size:100px;"">X</div>","null","","","fixation","","","","","","","",""
"","","","","","audio-keyboard-response","52","236060","0.0-38.0","18","1","2023-10-31 19:10:55","a725c3012b74bf33a1020a98cb69c237","45.71.5.119","Mozilla/5.0 (Windows NT 10.0; Win64; x64) AppleWebKit/537.36 (KHTML, like Gecko) Chrome/118.0.0.0 Safari/537.36","WebKit","Chrome","118.0.0.0","Windows","10.0","null","es-ES,es;q=0.9,en;q=0.8,pt;q=0.7,it;q=0.6","true","null","tones/880hz_short.mp3","null","","","tone_number_task","0","veintiocho","tones/880hz_short.mp3","150","60","2","2",""
"","","","","","html-keyboard-response","53","236542","0.0-41.0-0.0","18","1","2023-10-31 19:10:55","a725c3012b74bf33a1020a98cb69c237","45.71.5.119","Mozilla/5.0 (Windows NT 10.0; Win64; x64) AppleWebKit/537.36 (KHTML, like Gecko) Chrome/118.0.0.0 Safari/537.36","WebKit","Chrome","118.0.0.0","Windows","10.0","null","es-ES,es;q=0.9,en;q=0.8,pt;q=0.7,it;q=0.6","true","479","tones/880hz_short.mp3","s","","","empty_block","","veintiocho","","","","2","2",""
"","","","","","html-keyboard-response","54","236877","0.0-41.0-1.0","18","1","2023-10-31 19:10:55","a725c3012b74bf33a1020a98cb69c237","45.71.5.119","Mozilla/5.0 (Windows NT 10.0; Win64; x64) AppleWebKit/537.36 (KHTML, like Gecko) Chrome/118.0.0.0 Safari/537.36","WebKit","Chrome","118.0.0.0","Windows","10.0","null","es-ES,es;q=0.9,en;q=0.8,pt;q=0.7,it;q=0.6","true","332","tones/880hz_short.mp3","j","","","empty_block","","veintiocho","","","","2","2",""
"","","","","","html-keyboard-response","55","239497","0.0-43.0","18","1","2023-10-31 19:10:55","a725c3012b74bf33a1020a98cb69c237","45.71.5.119","Mozilla/5.0 (Windows NT 10.0; Win64; x64) AppleWebKit/537.36 (KHTML, like Gecko) Chrome/118.0.0.0 Safari/537.36","WebKit","Chrome","118.0.0.0","Windows","10.0","null","es-ES,es;q=0.9,en;q=0.8,pt;q=0.7,it;q=0.6","true","null","<div style=""font-size:100px;"">X</div>","null","","","fixation","","","","","","","",""
"","","","","","audio-keyboard-response","56","240190","0.0-44.0","18","1","2023-10-31 19:10:55","a725c3012b74bf33a1020a98cb69c237","45.71.5.119","Mozilla/5.0 (Windows NT 10.0; Win64; x64) AppleWebKit/537.36 (KHTML, like Gecko) Chrome/118.0.0.0 Safari/537.36","WebKit","Chrome","118.0.0.0","Windows","10.0","null","es-ES,es;q=0.9,en;q=0.8,pt;q=0.7,it;q=0.6","true","688","tones/880hz_short.mp3","s","","","tone_number_task","992.5","treinta y uno","tones/880hz_short.mp3","1142.5","60","2","3",""
"","","","","","html-keyboard-response","57","240498","0.0-45.0-0.0","18","1","2023-10-31 19:10:55","a725c3012b74bf33a1020a98cb69c237","45.71.5.119","Mozilla/5.0 (Windows NT 10.0; Win64; x64) AppleWebKit/537.36 (KHTML, like Gecko) Chrome/118.0.0.0 Safari/537.36","WebKit","Chrome","118.0.0.0","Windows","10.0","null","es-ES,es;q=0.9,en;q=0.8,pt;q=0.7,it;q=0.6","true","null","","null","","","delay_block","","","","","","2","3",""
"","","","","","html-keyboard-response","58","240652","0.0-45.0-1.0","18","1","2023-10-31 19:10:55","a725c3012b74bf33a1020a98cb69c237","45.71.5.119","Mozilla/5.0 (Windows NT 10.0; Win64; x64) AppleWebKit/537.36 (KHTML, like Gecko) Chrome/118.0.0.0 Safari/537.36","WebKit","Chrome","118.0.0.0","Windows","10.0","null","es-ES,es;q=0.9,en;q=0.8,pt;q=0.7,it;q=0.6","true","null","<p id=""stimulus"" style=""font-size:60px;"">treinta y uno</p>","null","","","tone_number_task_remaining_before_delay","","treinta y uno","","454.5","60","2","3",""
"","","","","","html-keyboard-response","59","241273","0.0-48.0-0.0","18","1","2023-10-31 19:10:55","a725c3012b74bf33a1020a98cb69c237","45.71.5.119","Mozilla/5.0 (Windows NT 10.0; Win64; x64) AppleWebKit/537.36 (KHTML, like Gecko) Chrome/118.0.0.0 Safari/537.36","WebKit","Chrome","118.0.0.0","Windows","10.0","null","es-ES,es;q=0.9,en;q=0.8,pt;q=0.7,it;q=0.6","true","617","<p id=""stimulus"" style=""font-size:60px;"">treinta y uno</p>","j","","","empty_block","","treinta y uno","","","","2","3",""
"","","","","","html-keyboard-response","60","243892","0.0-49.0","18","1","2023-10-31 19:10:55","a725c3012b74bf33a1020a98cb69c237","45.71.5.119","Mozilla/5.0 (Windows NT 10.0; Win64; x64) AppleWebKit/537.36 (KHTML, like Gecko) Chrome/118.0.0.0 Safari/537.36","WebKit","Chrome","118.0.0.0","Windows","10.0","null","es-ES,es;q=0.9,en;q=0.8,pt;q=0.7,it;q=0.6","true","null","<div style=""font-size:100px;"">X</div>","null","","","fixation","","","","","","","",""
"","","","","","audio-keyboard-response","61","244488","0.0-50.0","18","1","2023-10-31 19:10:55","a725c3012b74bf33a1020a98cb69c237","45.71.5.119","Mozilla/5.0 (Windows NT 10.0; Win64; x64) AppleWebKit/537.36 (KHTML, like Gecko) Chrome/118.0.0.0 Safari/537.36","WebKit","Chrome","118.0.0.0","Windows","10.0","null","es-ES,es;q=0.9,en;q=0.8,pt;q=0.7,it;q=0.6","true","589","tones/440hz_short.mp3","a","","","tone_number_task","992.5","veintiuno","tones/440hz_short.mp3","1142.5","60","2","4",""
"","","","","","html-keyboard-response","62","244903","0.0-51.0-0.0","18","1","2023-10-31 19:10:55","a725c3012b74bf33a1020a98cb69c237","45.71.5.119","Mozilla/5.0 (Windows NT 10.0; Win64; x64) AppleWebKit/537.36 (KHTML, like Gecko) Chrome/118.0.0.0 Safari/537.36","WebKit","Chrome","118.0.0.0","Windows","10.0","null","es-ES,es;q=0.9,en;q=0.8,pt;q=0.7,it;q=0.6","true","null","","null","","","delay_block","","","","","","2","4",""
"","","","","","html-keyboard-response","63","245057","0.0-51.0-1.0","18","1","2023-10-31 19:10:55","a725c3012b74bf33a1020a98cb69c237","45.71.5.119","Mozilla/5.0 (Windows NT 10.0; Win64; x64) AppleWebKit/537.36 (KHTML, like Gecko) Chrome/118.0.0.0 Safari/537.36","WebKit","Chrome","118.0.0.0","Windows","10.0","null","es-ES,es;q=0.9,en;q=0.8,pt;q=0.7,it;q=0.6","true","null","<p id=""stimulus"" style=""font-size:60px;"">veintiuno</p>","null","","","tone_number_task_remaining_before_delay","","veintiuno","","553.5","60","2","4",""
"","","","","","html-keyboard-response","64","245632","0.0-54.0-0.0","18","1","2023-10-31 19:10:55","a725c3012b74bf33a1020a98cb69c237","45.71.5.119","Mozilla/5.0 (Windows NT 10.0; Win64; x64) AppleWebKit/537.36 (KHTML, like Gecko) Chrome/118.0.0.0 Safari/537.36","WebKit","Chrome","118.0.0.0","Windows","10.0","null","es-ES,es;q=0.9,en;q=0.8,pt;q=0.7,it;q=0.6","true","571","<p id=""stimulus"" style=""font-size:60px;"">veintiuno</p>","j","","","empty_block","","veintiuno","","","","2","4",""
"","","","","","html-keyboard-response","65","248250","0.0-55.0","18","1","2023-10-31 19:10:55","a725c3012b74bf33a1020a98cb69c237","45.71.5.119","Mozilla/5.0 (Windows NT 10.0; Win64; x64) AppleWebKit/537.36 (KHTML, like Gecko) Chrome/118.0.0.0 Safari/537.36","WebKit","Chrome","118.0.0.0","Windows","10.0","null","es-ES,es;q=0.9,en;q=0.8,pt;q=0.7,it;q=0.6","true","null","<div style=""font-size:100px;"">X</div>","null","","","fixation","","","","","","","",""
"","","","","","audio-keyboard-response","66","248916","0.0-56.0","18","1","2023-10-31 19:10:55","a725c3012b74bf33a1020a98cb69c237","45.71.5.119","Mozilla/5.0 (Windows NT 10.0; Win64; x64) AppleWebKit/537.36 (KHTML, like Gecko) Chrome/118.0.0.0 Safari/537.36","WebKit","Chrome","118.0.0.0","Windows","10.0","null","es-ES,es;q=0.9,en;q=0.8,pt;q=0.7,it;q=0.6","true","659","tones/440hz_short.mp3","a","","","tone_number_task","1025","sesenta y cinco","tones/440hz_short.mp3","1175","60","2","5",""
"","","","","","html-keyboard-response","67","249285","0.0-57.0-0.0","18","1","2023-10-31 19:10:55","a725c3012b74bf33a1020a98cb69c237","45.71.5.119","Mozilla/5.0 (Windows NT 10.0; Win64; x64) AppleWebKit/537.36 (KHTML, like Gecko) Chrome/118.0.0.0 Safari/537.36","WebKit","Chrome","118.0.0.0","Windows","10.0","null","es-ES,es;q=0.9,en;q=0.8,pt;q=0.7,it;q=0.6","true","null","","null","","","delay_block","","","","","","2","5",""
"","","","","","html-keyboard-response","68","249440","0.0-57.0-1.0","18","1","2023-10-31 19:10:55","a725c3012b74bf33a1020a98cb69c237","45.71.5.119","Mozilla/5.0 (Windows NT 10.0; Win64; x64) AppleWebKit/537.36 (KHTML, like Gecko) Chrome/118.0.0.0 Safari/537.36","WebKit","Chrome","118.0.0.0","Windows","10.0","null","es-ES,es;q=0.9,en;q=0.8,pt;q=0.7,it;q=0.6","true","null","<p id=""stimulus"" style=""font-size:60px;"">sesenta y cinco</p>","null","","","tone_number_task_remaining_before_delay","","sesenta y cinco","","516","60","2","5",""
"","","","","","html-keyboard-response","69","249863","0.0-60.0-0.0","18","1","2023-10-31 19:10:55","a725c3012b74bf33a1020a98cb69c237","45.71.5.119","Mozilla/5.0 (Windows NT 10.0; Win64; x64) AppleWebKit/537.36 (KHTML, like Gecko) Chrome/118.0.0.0 Safari/537.36","WebKit","Chrome","118.0.0.0","Windows","10.0","null","es-ES,es;q=0.9,en;q=0.8,pt;q=0.7,it;q=0.6","true","420","<p id=""stimulus"" style=""font-size:60px;"">sesenta y cinco</p>","k","","","empty_block","","sesenta y cinco","","","","2","5",""
"","","","","","html-keyboard-response","70","252481","0.0-61.0","18","1","2023-10-31 19:10:55","a725c3012b74bf33a1020a98cb69c237","45.71.5.119","Mozilla/5.0 (Windows NT 10.0; Win64; x64) AppleWebKit/537.36 (KHTML, like Gecko) Chrome/118.0.0.0 Safari/537.36","WebKit","Chrome","118.0.0.0","Windows","10.0","null","es-ES,es;q=0.9,en;q=0.8,pt;q=0.7,it;q=0.6","true","null","<div style=""font-size:100px;"">X</div>","null","","","fixation","","","","","","","",""
"","","","","","audio-keyboard-response","71","252950","0.0-62.0","18","1","2023-10-31 19:10:55","a725c3012b74bf33a1020a98cb69c237","45.71.5.119","Mozilla/5.0 (Windows NT 10.0; Win64; x64) AppleWebKit/537.36 (KHTML, like Gecko) Chrome/118.0.0.0 Safari/537.36","WebKit","Chrome","118.0.0.0","Windows","10.0","null","es-ES,es;q=0.9,en;q=0.8,pt;q=0.7,it;q=0.6","true","469","tones/440hz_short.mp3","a","","","tone_number_task","992.5","cincuenta y siete","tones/440hz_short.mp3","1142.5","60","2","6",""
"","","","","","html-keyboard-response","72","253478","0.0-63.0-0.0","18","1","2023-10-31 19:10:55","a725c3012b74bf33a1020a98cb69c237","45.71.5.119","Mozilla/5.0 (Windows NT 10.0; Win64; x64) AppleWebKit/537.36 (KHTML, like Gecko) Chrome/118.0.0.0 Safari/537.36","WebKit","Chrome","118.0.0.0","Windows","10.0","null","es-ES,es;q=0.9,en;q=0.8,pt;q=0.7,it;q=0.6","true","null","","null","","","delay_block","","","","","","2","6",""
"","","","","","html-keyboard-response","73","253633","0.0-63.0-1.0","18","1","2023-10-31 19:10:55","a725c3012b74bf33a1020a98cb69c237","45.71.5.119","Mozilla/5.0 (Windows NT 10.0; Win64; x64) AppleWebKit/537.36 (KHTML, like Gecko) Chrome/118.0.0.0 Safari/537.36","WebKit","Chrome","118.0.0.0","Windows","10.0","null","es-ES,es;q=0.9,en;q=0.8,pt;q=0.7,it;q=0.6","true","null","<p id=""stimulus"" style=""font-size:60px;"">cincuenta y siete</p>","null","","","tone_number_task_remaining_before_delay","","cincuenta y siete","","673.5","60","2","6",""
"","","","","","html-keyboard-response","74","254429","0.0-66.0-0.0","18","1","2023-10-31 19:10:55","a725c3012b74bf33a1020a98cb69c237","45.71.5.119","Mozilla/5.0 (Windows NT 10.0; Win64; x64) AppleWebKit/537.36 (KHTML, like Gecko) Chrome/118.0.0.0 Safari/537.36","WebKit","Chrome","118.0.0.0","Windows","10.0","null","es-ES,es;q=0.9,en;q=0.8,pt;q=0.7,it;q=0.6","true","793","<p id=""stimulus"" style=""font-size:60px;"">cincuenta y siete</p>","k","","","empty_block","","cincuenta y siete","","","","2","6",""
"","","","","","html-keyboard-response","75","257048","0.0-67.0","18","1","2023-10-31 19:10:55","a725c3012b74bf33a1020a98cb69c237","45.71.5.119","Mozilla/5.0 (Windows NT 10.0; Win64; x64) AppleWebKit/537.36 (KHTML, like Gecko) Chrome/118.0.0.0 Safari/537.36","WebKit","Chrome","118.0.0.0","Windows","10.0","null","es-ES,es;q=0.9,en;q=0.8,pt;q=0.7,it;q=0.6","true","null","<div style=""font-size:100px;"">X</div>","null","","","fixation","","","","","","","",""
"","","","","","audio-keyboard-response","76","257203","0.0-68.0","18","1","2023-10-31 19:10:55","a725c3012b74bf33a1020a98cb69c237","45.71.5.119","Mozilla/5.0 (Windows NT 10.0; Win64; x64) AppleWebKit/537.36 (KHTML, like Gecko) Chrome/118.0.0.0 Safari/537.36","WebKit","Chrome","118.0.0.0","Windows","10.0","null","es-ES,es;q=0.9,en;q=0.8,pt;q=0.7,it;q=0.6","true","null","tones/880hz_short.mp3","null","","","tone_number_task","0","sesenta y dos","tones/880hz_short.mp3","150","60","2","7",""
"","","","","","html-keyboard-response","77","258407","0.0-71.0-0.0","18","1","2023-10-31 19:10:55","a725c3012b74bf33a1020a98cb69c237","45.71.5.119","Mozilla/5.0 (Windows NT 10.0; Win64; x64) AppleWebKit/537.36 (KHTML, like Gecko) Chrome/118.0.0.0 Safari/537.36","WebKit","Chrome","118.0.0.0","Windows","10.0","null","es-ES,es;q=0.9,en;q=0.8,pt;q=0.7,it;q=0.6","true","null","tones/880hz_short.mp3","null","","","empty_block","","sesenta y dos","","","","2","7",""
"","","","","","html-keyboard-response","78","258558","0.0-71.0-1.0","18","1","2023-10-31 19:10:55","a725c3012b74bf33a1020a98cb69c237","45.71.5.119","Mozilla/5.0 (Windows NT 10.0; Win64; x64) AppleWebKit/537.36 (KHTML, like Gecko) Chrome/118.0.0.0 Safari/537.36","WebKit","Chrome","118.0.0.0","Windows","10.0","null","es-ES,es;q=0.9,en;q=0.8,pt;q=0.7,it;q=0.6","true","147","tones/880hz_short.mp3","s","","","empty_block","","sesenta y dos","","","","2","7",""
"","","","","","html-keyboard-response","79","261178","0.0-73.0","18","1","2023-10-31 19:10:55","a725c3012b74bf33a1020a98cb69c237","45.71.5.119","Mozilla/5.0 (Windows NT 10.0; Win64; x64) AppleWebKit/537.36 (KHTML, like Gecko) Chrome/118.0.0.0 Safari/537.36","WebKit","Chrome","118.0.0.0","Windows","10.0","null","es-ES,es;q=0.9,en;q=0.8,pt;q=0.7,it;q=0.6","true","null","<div style=""font-size:100px;"">X</div>","null","","","fixation","","","","","","","",""
"","","","","","audio-keyboard-response","80","261435","0.0-74.0","18","1","2023-10-31 19:10:55","a725c3012b74bf33a1020a98cb69c237","45.71.5.119","Mozilla/5.0 (Windows NT 10.0; Win64; x64) AppleWebKit/537.36 (KHTML, like Gecko) Chrome/118.0.0.0 Safari/537.36","WebKit","Chrome","118.0.0.0","Windows","10.0","null","es-ES,es;q=0.9,en;q=0.8,pt;q=0.7,it;q=0.6","true","null","tones/880hz_short.mp3","null","","","tone_number_task","102.5","treinta y seis","tones/880hz_short.mp3","252.5","60","2","8",""
"","","","","","html-keyboard-response","81","262535","0.0-77.0-0.0","18","1","2023-10-31 19:10:55","a725c3012b74bf33a1020a98cb69c237","45.71.5.119","Mozilla/5.0 (Windows NT 10.0; Win64; x64) AppleWebKit/537.36 (KHTML, like Gecko) Chrome/118.0.0.0 Safari/537.36","WebKit","Chrome","118.0.0.0","Windows","10.0","null","es-ES,es;q=0.9,en;q=0.8,pt;q=0.7,it;q=0.6","true","1095","tones/880hz_short.mp3","s","","","empty_block","","treinta y seis","","","","2","8",""
"","","","","","html-keyboard-response","82","262975","0.0-77.0-1.0","18","1","2023-10-31 19:10:55","a725c3012b74bf33a1020a98cb69c237","45.71.5.119","Mozilla/5.0 (Windows NT 10.0; Win64; x64) AppleWebKit/537.36 (KHTML, like Gecko) Chrome/118.0.0.0 Safari/537.36","WebKit","Chrome","118.0.0.0","Windows","10.0","null","es-ES,es;q=0.9,en;q=0.8,pt;q=0.7,it;q=0.6","true","437","tones/880hz_short.mp3","j","","","empty_block","","treinta y seis","","","","2","8",""
"","","","","","html-keyboard-response","83","265595","0.0-79.0","18","1","2023-10-31 19:10:55","a725c3012b74bf33a1020a98cb69c237","45.71.5.119","Mozilla/5.0 (Windows NT 10.0; Win64; x64) AppleWebKit/537.36 (KHTML, like Gecko) Chrome/118.0.0.0 Safari/537.36","WebKit","Chrome","118.0.0.0","Windows","10.0","null","es-ES,es;q=0.9,en;q=0.8,pt;q=0.7,it;q=0.6","true","null","<div style=""font-size:100px;"">X</div>","null","","","fixation","","","","","","","",""
"","","","","","audio-keyboard-response","84","266171","0.0-80.0","18","1","2023-10-31 19:10:55","a725c3012b74bf33a1020a98cb69c237","45.71.5.119","Mozilla/5.0 (Windows NT 10.0; Win64; x64) AppleWebKit/537.36 (KHTML, like Gecko) Chrome/118.0.0.0 Safari/537.36","WebKit","Chrome","118.0.0.0","Windows","10.0","null","es-ES,es;q=0.9,en;q=0.8,pt;q=0.7,it;q=0.6","true","571","tones/440hz_short.mp3","a","","","tone_number_task","1025","cincuenta y uno","tones/440hz_short.mp3","1175","60","2","9",""
"","","","","","html-keyboard-response","85","266631","0.0-81.0-0.0","18","1","2023-10-31 19:10:55","a725c3012b74bf33a1020a98cb69c237","45.71.5.119","Mozilla/5.0 (Windows NT 10.0; Win64; x64) AppleWebKit/537.36 (KHTML, like Gecko) Chrome/118.0.0.0 Safari/537.36","WebKit","Chrome","118.0.0.0","Windows","10.0","null","es-ES,es;q=0.9,en;q=0.8,pt;q=0.7,it;q=0.6","true","null","","null","","","delay_block","","","","","","2","9",""
"","","","","","html-keyboard-response","86","266786","0.0-81.0-1.0","18","1","2023-10-31 19:10:55","a725c3012b74bf33a1020a98cb69c237","45.71.5.119","Mozilla/5.0 (Windows NT 10.0; Win64; x64) AppleWebKit/537.36 (KHTML, like Gecko) Chrome/118.0.0.0 Safari/537.36","WebKit","Chrome","118.0.0.0","Windows","10.0","null","es-ES,es;q=0.9,en;q=0.8,pt;q=0.7,it;q=0.6","true","null","<p id=""stimulus"" style=""font-size:60px;"">cincuenta y uno</p>","null","","","tone_number_task_remaining_before_delay","","cincuenta y uno","","604","60","2","9",""
"","","","","","html-keyboard-response","87","267695","0.0-84.0-0.0","18","1","2023-10-31 19:10:55","a725c3012b74bf33a1020a98cb69c237","45.71.5.119","Mozilla/5.0 (Windows NT 10.0; Win64; x64) AppleWebKit/537.36 (KHTML, like Gecko) Chrome/118.0.0.0 Safari/537.36","WebKit","Chrome","118.0.0.0","Windows","10.0","null","es-ES,es;q=0.9,en;q=0.8,pt;q=0.7,it;q=0.6","true","904","<p id=""stimulus"" style=""font-size:60px;"">cincuenta y uno</p>","k","","","empty_block","","cincuenta y uno","","","","2","9",""
"","","","","","html-keyboard-response","88","270315","0.0-85.0","18","1","2023-10-31 19:10:55","a725c3012b74bf33a1020a98cb69c237","45.71.5.119","Mozilla/5.0 (Windows NT 10.0; Win64; x64) AppleWebKit/537.36 (KHTML, like Gecko) Chrome/118.0.0.0 Safari/537.36","WebKit","Chrome","118.0.0.0","Windows","10.0","null","es-ES,es;q=0.9,en;q=0.8,pt;q=0.7,it;q=0.6","true","null","<div style=""font-size:100px;"">X</div>","null","","","fixation","","","","","","","",""
"","","","","","audio-keyboard-response","89","270470","0.0-86.0","18","1","2023-10-31 19:10:55","a725c3012b74bf33a1020a98cb69c237","45.71.5.119","Mozilla/5.0 (Windows NT 10.0; Win64; x64) AppleWebKit/537.36 (KHTML, like Gecko) Chrome/118.0.0.0 Safari/537.36","WebKit","Chrome","118.0.0.0","Windows","10.0","null","es-ES,es;q=0.9,en;q=0.8,pt;q=0.7,it;q=0.6","true","null","tones/440hz_short.mp3","null","","","tone_number_task","0","veintiocho","tones/440hz_short.mp3","150","60","2","10",""
"","","","","","html-keyboard-response","90","271545","0.0-89.0-0.0","18","1","2023-10-31 19:10:55","a725c3012b74bf33a1020a98cb69c237","45.71.5.119","Mozilla/5.0 (Windows NT 10.0; Win64; x64) AppleWebKit/537.36 (KHTML, like Gecko) Chrome/118.0.0.0 Safari/537.36","WebKit","Chrome","118.0.0.0","Windows","10.0","null","es-ES,es;q=0.9,en;q=0.8,pt;q=0.7,it;q=0.6","true","1072","tones/440hz_short.mp3","a","","","empty_block","","veintiocho","","","","2","10",""
"","","","","","html-keyboard-response","91","271855","0.0-89.0-1.0","18","1","2023-10-31 19:10:55","a725c3012b74bf33a1020a98cb69c237","45.71.5.119","Mozilla/5.0 (Windows NT 10.0; Win64; x64) AppleWebKit/537.36 (KHTML, like Gecko) Chrome/118.0.0.0 Safari/537.36","WebKit","Chrome","118.0.0.0","Windows","10.0","null","es-ES,es;q=0.9,en;q=0.8,pt;q=0.7,it;q=0.6","true","306","tones/440hz_short.mp3","j","","","empty_block","","veintiocho","","","","2","10",""
"","","","","","html-keyboard-response","92","274475","0.0-91.0","18","1","2023-10-31 19:10:55","a725c3012b74bf33a1020a98cb69c237","45.71.5.119","Mozilla/5.0 (Windows NT 10.0; Win64; x64) AppleWebKit/537.36 (KHTML, like Gecko) Chrome/118.0.0.0 Safari/537.36","WebKit","Chrome","118.0.0.0","Windows","10.0","null","es-ES,es;q=0.9,en;q=0.8,pt;q=0.7,it;q=0.6","true","null","<div style=""font-size:100px;"">X</div>","null","","","fixation","","","","","","","",""
"","","","","","audio-keyboard-response","93","274733","0.0-92.0","18","1","2023-10-31 19:10:55","a725c3012b74bf33a1020a98cb69c237","45.71.5.119","Mozilla/5.0 (Windows NT 10.0; Win64; x64) AppleWebKit/537.36 (KHTML, like Gecko) Chrome/118.0.0.0 Safari/537.36","WebKit","Chrome","118.0.0.0","Windows","10.0","null","es-ES,es;q=0.9,en;q=0.8,pt;q=0.7,it;q=0.6","true","null","tones/880hz_short.mp3","null","","","tone_number_task","102.5","treinta y ocho","tones/880hz_short.mp3","252.5","60","2","11",""
"","","","","","html-keyboard-response","94","275113","0.0-95.0-0.0","18","1","2023-10-31 19:10:55","a725c3012b74bf33a1020a98cb69c237","45.71.5.119","Mozilla/5.0 (Windows NT 10.0; Win64; x64) AppleWebKit/537.36 (KHTML, like Gecko) Chrome/118.0.0.0 Safari/537.36","WebKit","Chrome","118.0.0.0","Windows","10.0","null","es-ES,es;q=0.9,en;q=0.8,pt;q=0.7,it;q=0.6","true","376","tones/880hz_short.mp3","s","","","empty_block","","treinta y ocho","","","","2","11",""
"","","","","","html-keyboard-response","95","275725","0.0-95.0-1.0","18","1","2023-10-31 19:10:55","a725c3012b74bf33a1020a98cb69c237","45.71.5.119","Mozilla/5.0 (Windows NT 10.0; Win64; x64) AppleWebKit/537.36 (KHTML, like Gecko) Chrome/118.0.0.0 Safari/537.36","WebKit","Chrome","118.0.0.0","Windows","10.0","null","es-ES,es;q=0.9,en;q=0.8,pt;q=0.7,it;q=0.6","true","608","tones/880hz_short.mp3","k","","","empty_block","","treinta y ocho","","","","2","11",""
"","","","","","html-keyboard-response","96","278347","0.0-97.0","18","1","2023-10-31 19:10:55","a725c3012b74bf33a1020a98cb69c237","45.71.5.119","Mozilla/5.0 (Windows NT 10.0; Win64; x64) AppleWebKit/537.36 (KHTML, like Gecko) Chrome/118.0.0.0 Safari/537.36","WebKit","Chrome","118.0.0.0","Windows","10.0","null","es-ES,es;q=0.9,en;q=0.8,pt;q=0.7,it;q=0.6","true","null","<div style=""font-size:100px;"">X</div>","null","","","fixation","","","","","","","",""
"","","","","","audio-keyboard-response","97","278503","0.0-98.0","18","1","2023-10-31 19:10:55","a725c3012b74bf33a1020a98cb69c237","45.71.5.119","Mozilla/5.0 (Windows NT 10.0; Win64; x64) AppleWebKit/537.36 (KHTML, like Gecko) Chrome/118.0.0.0 Safari/537.36","WebKit","Chrome","118.0.0.0","Windows","10.0","null","es-ES,es;q=0.9,en;q=0.8,pt;q=0.7,it;q=0.6","true","null","tones/440hz_short.mp3","null","","","tone_number_task","0","treinta y uno","tones/440hz_short.mp3","150","60","2","12",""
"","","","","","html-keyboard-response","98","279300","0.0-101.0-0.0","18","1","2023-10-31 19:10:55","a725c3012b74bf33a1020a98cb69c237","45.71.5.119","Mozilla/5.0 (Windows NT 10.0; Win64; x64) AppleWebKit/537.36 (KHTML, like Gecko) Chrome/118.0.0.0 Safari/537.36","WebKit","Chrome","118.0.0.0","Windows","10.0","null","es-ES,es;q=0.9,en;q=0.8,pt;q=0.7,it;q=0.6","true","792","tones/440hz_short.mp3","a","","","empty_block","","treinta y uno","","","","2","12",""
"","","","","","html-keyboard-response","99","279606","0.0-101.0-1.0","18","1","2023-10-31 19:10:55","a725c3012b74bf33a1020a98cb69c237","45.71.5.119","Mozilla/5.0 (Windows NT 10.0; Win64; x64) AppleWebKit/537.36 (KHTML, like Gecko) Chrome/118.0.0.0 Safari/537.36","WebKit","Chrome","118.0.0.0","Windows","10.0","null","es-ES,es;q=0.9,en;q=0.8,pt;q=0.7,it;q=0.6","true","302","tones/440hz_short.mp3","j","","","empty_block","","treinta y uno","","","","2","12",""
"","","","","","html-keyboard-response","100","282227","0.0-103.0","18","1","2023-10-31 19:10:55","a725c3012b74bf33a1020a98cb69c237","45.71.5.119","Mozilla/5.0 (Windows NT 10.0; Win64; x64) AppleWebKit/537.36 (KHTML, like Gecko) Chrome/118.0.0.0 Safari/537.36","WebKit","Chrome","118.0.0.0","Windows","10.0","null","es-ES,es;q=0.9,en;q=0.8,pt;q=0.7,it;q=0.6","true","null","<div style=""font-size:100px;"">X</div>","null","","","fixation","","","","","","","",""
"","","","","","audio-keyboard-response","101","282484","0.0-104.0","18","1","2023-10-31 19:10:55","a725c3012b74bf33a1020a98cb69c237","45.71.5.119","Mozilla/5.0 (Windows NT 10.0; Win64; x64) AppleWebKit/537.36 (KHTML, like Gecko) Chrome/118.0.0.0 Safari/537.36","WebKit","Chrome","118.0.0.0","Windows","10.0","null","es-ES,es;q=0.9,en;q=0.8,pt;q=0.7,it;q=0.6","true","null","tones/440hz_short.mp3","null","","","tone_number_task","102.5","cuarenta y seis","tones/440hz_short.mp3","252.5","60","2","13",""
"","","","","","html-keyboard-response","102","282752","0.0-107.0-0.0","18","1","2023-10-31 19:10:55","a725c3012b74bf33a1020a98cb69c237","45.71.5.119","Mozilla/5.0 (Windows NT 10.0; Win64; x64) AppleWebKit/537.36 (KHTML, like Gecko) Chrome/118.0.0.0 Safari/537.36","WebKit","Chrome","118.0.0.0","Windows","10.0","null","es-ES,es;q=0.9,en;q=0.8,pt;q=0.7,it;q=0.6","true","263","tones/440hz_short.mp3","a","","","empty_block","","cuarenta y seis","","","","2","13",""
"","","","","","html-keyboard-response","103","283947","0.0-107.0-1.0","18","1","2023-10-31 19:10:55","a725c3012b74bf33a1020a98cb69c237","45.71.5.119","Mozilla/5.0 (Windows NT 10.0; Win64; x64) AppleWebKit/537.36 (KHTML, like Gecko) Chrome/118.0.0.0 Safari/537.36","WebKit","Chrome","118.0.0.0","Windows","10.0","null","es-ES,es;q=0.9,en;q=0.8,pt;q=0.7,it;q=0.6","true","1190","tones/440hz_short.mp3","j","","","empty_block","","cuarenta y seis","","","","2","13",""
"","","","","","html-keyboard-response","104","286567","0.0-109.0","18","1","2023-10-31 19:10:55","a725c3012b74bf33a1020a98cb69c237","45.71.5.119","Mozilla/5.0 (Windows NT 10.0; Win64; x64) AppleWebKit/537.36 (KHTML, like Gecko) Chrome/118.0.0.0 Safari/537.36","WebKit","Chrome","118.0.0.0","Windows","10.0","null","es-ES,es;q=0.9,en;q=0.8,pt;q=0.7,it;q=0.6","true","null","<div style=""font-size:100px;"">X</div>","null","","","fixation","","","","","","","",""
"","","","","","audio-keyboard-response","105","287128","0.0-110.0","18","1","2023-10-31 19:10:55","a725c3012b74bf33a1020a98cb69c237","45.71.5.119","Mozilla/5.0 (Windows NT 10.0; Win64; x64) AppleWebKit/537.36 (KHTML, like Gecko) Chrome/118.0.0.0 Safari/537.36","WebKit","Chrome","118.0.0.0","Windows","10.0","null","es-ES,es;q=0.9,en;q=0.8,pt;q=0.7,it;q=0.6","true","560","tones/440hz_short.mp3","a","","","tone_number_task","1025","cuarenta y tres","tones/440hz_short.mp3","1175","60","2","14",""
"","","","","","html-keyboard-response","106","287599","0.0-111.0-0.0","18","1","2023-10-31 19:10:55","a725c3012b74bf33a1020a98cb69c237","45.71.5.119","Mozilla/5.0 (Windows NT 10.0; Win64; x64) AppleWebKit/537.36 (KHTML, like Gecko) Chrome/118.0.0.0 Safari/537.36","WebKit","Chrome","118.0.0.0","Windows","10.0","null","es-ES,es;q=0.9,en;q=0.8,pt;q=0.7,it;q=0.6","true","null","","null","","","delay_block","","","","","","2","14",""
"","","","","","html-keyboard-response","107","287755","0.0-111.0-1.0","18","1","2023-10-31 19:10:55","a725c3012b74bf33a1020a98cb69c237","45.71.5.119","Mozilla/5.0 (Windows NT 10.0; Win64; x64) AppleWebKit/537.36 (KHTML, like Gecko) Chrome/118.0.0.0 Safari/537.36","WebKit","Chrome","118.0.0.0","Windows","10.0","null","es-ES,es;q=0.9,en;q=0.8,pt;q=0.7,it;q=0.6","true","null","<p id=""stimulus"" style=""font-size:60px;"">cuarenta y tres</p>","null","","","tone_number_task_remaining_before_delay","","cuarenta y tres","","615","60","2","14",""
"","","","","","html-keyboard-response","108","288633","0.0-114.0-0.0","18","1","2023-10-31 19:10:55","a725c3012b74bf33a1020a98cb69c237","45.71.5.119","Mozilla/5.0 (Windows NT 10.0; Win64; x64) AppleWebKit/537.36 (KHTML, like Gecko) Chrome/118.0.0.0 Safari/537.36","WebKit","Chrome","118.0.0.0","Windows","10.0","null","es-ES,es;q=0.9,en;q=0.8,pt;q=0.7,it;q=0.6","true","873","<p id=""stimulus"" style=""font-size:60px;"">cuarenta y tres</p>","j","","","empty_block","","cuarenta y tres","","","","2","14",""
"","","","","","html-keyboard-response","109","291254","0.0-115.0","18","1","2023-10-31 19:10:55","a725c3012b74bf33a1020a98cb69c237","45.71.5.119","Mozilla/5.0 (Windows NT 10.0; Win64; x64) AppleWebKit/537.36 (KHTML, like Gecko) Chrome/118.0.0.0 Safari/537.36","WebKit","Chrome","118.0.0.0","Windows","10.0","null","es-ES,es;q=0.9,en;q=0.8,pt;q=0.7,it;q=0.6","true","null","<div style=""font-size:100px;"">X</div>","null","","","fixation","","","","","","","",""
"","","","","","audio-keyboard-response","110","291410","0.0-116.0","18","1","2023-10-31 19:10:55","a725c3012b74bf33a1020a98cb69c237","45.71.5.119","Mozilla/5.0 (Windows NT 10.0; Win64; x64) AppleWebKit/537.36 (KHTML, like Gecko) Chrome/118.0.0.0 Safari/537.36","WebKit","Chrome","118.0.0.0","Windows","10.0","null","es-ES,es;q=0.9,en;q=0.8,pt;q=0.7,it;q=0.6","true","null","tones/440hz_short.mp3","null","","","tone_number_task","0","cincuenta y seis","tones/440hz_short.mp3","150","60","2","15",""
"","","","","","html-keyboard-response","111","292386","0.0-119.0-0.0","18","1","2023-10-31 19:10:55","a725c3012b74bf33a1020a98cb69c237","45.71.5.119","Mozilla/5.0 (Windows NT 10.0; Win64; x64) AppleWebKit/537.36 (KHTML, like Gecko) Chrome/118.0.0.0 Safari/537.36","WebKit","Chrome","118.0.0.0","Windows","10.0","null","es-ES,es;q=0.9,en;q=0.8,pt;q=0.7,it;q=0.6","true","972","tones/440hz_short.mp3","a","","","empty_block","","cincuenta y seis","","","","2","15",""
"","","","","","html-keyboard-response","112","292645","0.0-119.0-1.0","18","1","2023-10-31 19:10:55","a725c3012b74bf33a1020a98cb69c237","45.71.5.119","Mozilla/5.0 (Windows NT 10.0; Win64; x64) AppleWebKit/537.36 (KHTML, like Gecko) Chrome/118.0.0.0 Safari/537.36","WebKit","Chrome","118.0.0.0","Windows","10.0","null","es-ES,es;q=0.9,en;q=0.8,pt;q=0.7,it;q=0.6","true","254","tones/440hz_short.mp3","k","","","empty_block","","cincuenta y seis","","","","2","15",""
"","","","","","html-keyboard-response","113","295266","0.0-121.0","18","1","2023-10-31 19:10:55","a725c3012b74bf33a1020a98cb69c237","45.71.5.119","Mozilla/5.0 (Windows NT 10.0; Win64; x64) AppleWebKit/537.36 (KHTML, like Gecko) Chrome/118.0.0.0 Safari/537.36","WebKit","Chrome","118.0.0.0","Windows","10.0","null","es-ES,es;q=0.9,en;q=0.8,pt;q=0.7,it;q=0.6","true","null","<div style=""font-size:100px;"">X</div>","null","","","fixation","","","","","","","",""
"","","","","","audio-keyboard-response","114","295696","0.0-122.0","18","1","2023-10-31 19:10:55","a725c3012b74bf33a1020a98cb69c237","45.71.5.119","Mozilla/5.0 (Windows NT 10.0; Win64; x64) AppleWebKit/537.36 (KHTML, like Gecko) Chrome/118.0.0.0 Safari/537.36","WebKit","Chrome","118.0.0.0","Windows","10.0","null","es-ES,es;q=0.9,en;q=0.8,pt;q=0.7,it;q=0.6","true","432","tones/440hz_short.mp3","a","","","tone_number_task","992.5","treinta y tres","tones/440hz_short.mp3","1142.5","60","2","16",""
"","","","","","html-keyboard-response","115","296264","0.0-123.0-0.0","18","1","2023-10-31 19:10:55","a725c3012b74bf33a1020a98cb69c237","45.71.5.119","Mozilla/5.0 (Windows NT 10.0; Win64; x64) AppleWebKit/537.36 (KHTML, like Gecko) Chrome/118.0.0.0 Safari/537.36","WebKit","Chrome","118.0.0.0","Windows","10.0","null","es-ES,es;q=0.9,en;q=0.8,pt;q=0.7,it;q=0.6","true","null","","null","","","delay_block","","","","","","2","16",""
"","","","","","html-keyboard-response","116","296420","0.0-123.0-1.0","18","1","2023-10-31 19:10:55","a725c3012b74bf33a1020a98cb69c237","45.71.5.119","Mozilla/5.0 (Windows NT 10.0; Win64; x64) AppleWebKit/537.36 (KHTML, like Gecko) Chrome/118.0.0.0 Safari/537.36","WebKit","Chrome","118.0.0.0","Windows","10.0","null","es-ES,es;q=0.9,en;q=0.8,pt;q=0.7,it;q=0.6","true","null","<p id=""stimulus"" style=""font-size:60px;"">treinta y tres</p>","null","","","tone_number_task_remaining_before_delay","","treinta y tres","","710.5","60","2","16",""
"","","","","","html-keyboard-response","117","297029","0.0-126.0-0.0","18","1","2023-10-31 19:10:55","a725c3012b74bf33a1020a98cb69c237","45.71.5.119","Mozilla/5.0 (Windows NT 10.0; Win64; x64) AppleWebKit/537.36 (KHTML, like Gecko) Chrome/118.0.0.0 Safari/537.36","WebKit","Chrome","118.0.0.0","Windows","10.0","null","es-ES,es;q=0.9,en;q=0.8,pt;q=0.7,it;q=0.6","true","604","<p id=""stimulus"" style=""font-size:60px;"">treinta y tres</p>","j","","","empty_block","","treinta y tres","","","","2","16",""
"","","","","","html-keyboard-response","118","299647","0.0-127.0","18","1","2023-10-31 19:10:55","a725c3012b74bf33a1020a98cb69c237","45.71.5.119","Mozilla/5.0 (Windows NT 10.0; Win64; x64) AppleWebKit/537.36 (KHTML, like Gecko) Chrome/118.0.0.0 Safari/537.36","WebKit","Chrome","118.0.0.0","Windows","10.0","null","es-ES,es;q=0.9,en;q=0.8,pt;q=0.7,it;q=0.6","true","null","<div style=""font-size:100px;"">X</div>","null","","","fixation","","","","","","","",""
"","","","","","audio-keyboard-response","119","300153","0.0-128.0","18","1","2023-10-31 19:10:55","a725c3012b74bf33a1020a98cb69c237","45.71.5.119","Mozilla/5.0 (Windows NT 10.0; Win64; x64) AppleWebKit/537.36 (KHTML, like Gecko) Chrome/118.0.0.0 Safari/537.36","WebKit","Chrome","118.0.0.0","Windows","10.0","null","es-ES,es;q=0.9,en;q=0.8,pt;q=0.7,it;q=0.6","true","499","tones/880hz_short.mp3","s","","","tone_number_task","992.5","cincuenta y seis","tones/880hz_short.mp3","1142.5","60","2","17",""
"","","","","","html-keyboard-response","120","300651","0.0-129.0-0.0","18","1","2023-10-31 19:10:55","a725c3012b74bf33a1020a98cb69c237","45.71.5.119","Mozilla/5.0 (Windows NT 10.0; Win64; x64) AppleWebKit/537.36 (KHTML, like Gecko) Chrome/118.0.0.0 Safari/537.36","WebKit","Chrome","118.0.0.0","Windows","10.0","null","es-ES,es;q=0.9,en;q=0.8,pt;q=0.7,it;q=0.6","true","null","","null","","","delay_block","","","","","","2","17",""
"","","","","","html-keyboard-response","121","300808","0.0-129.0-1.0","18","1","2023-10-31 19:10:55","a725c3012b74bf33a1020a98cb69c237","45.71.5.119","Mozilla/5.0 (Windows NT 10.0; Win64; x64) AppleWebKit/537.36 (KHTML, like Gecko) Chrome/118.0.0.0 Safari/537.36","WebKit","Chrome","118.0.0.0","Windows","10.0","null","es-ES,es;q=0.9,en;q=0.8,pt;q=0.7,it;q=0.6","true","null","<p id=""stimulus"" style=""font-size:60px;"">cincuenta y seis</p>","null","","","tone_number_task_remaining_before_delay","","cincuenta y seis","","643.5","60","2","17",""
"","","","","","html-keyboard-response","122","301311","0.0-132.0-0.0","18","1","2023-10-31 19:10:55","a725c3012b74bf33a1020a98cb69c237","45.71.5.119","Mozilla/5.0 (Windows NT 10.0; Win64; x64) AppleWebKit/537.36 (KHTML, like Gecko) Chrome/118.0.0.0 Safari/537.36","WebKit","Chrome","118.0.0.0","Windows","10.0","null","es-ES,es;q=0.9,en;q=0.8,pt;q=0.7,it;q=0.6","true","498","<p id=""stimulus"" style=""font-size:60px;"">cincuenta y seis</p>","k","","","empty_block","","cincuenta y seis","","","","2","17",""
"","","","","","html-keyboard-response","123","303932","0.0-133.0","18","1","2023-10-31 19:10:55","a725c3012b74bf33a1020a98cb69c237","45.71.5.119","Mozilla/5.0 (Windows NT 10.0; Win64; x64) AppleWebKit/537.36 (KHTML, like Gecko) Chrome/118.0.0.0 Safari/537.36","WebKit","Chrome","118.0.0.0","Windows","10.0","null","es-ES,es;q=0.9,en;q=0.8,pt;q=0.7,it;q=0.6","true","null","<div style=""font-size:100px;"">X</div>","null","","","fixation","","","","","","","",""
"","","","","","audio-keyboard-response","124","304190","0.0-134.0","18","1","2023-10-31 19:10:55","a725c3012b74bf33a1020a98cb69c237","45.71.5.119","Mozilla/5.0 (Windows NT 10.0; Win64; x64) AppleWebKit/537.36 (KHTML, like Gecko) Chrome/118.0.0.0 Safari/537.36","WebKit","Chrome","118.0.0.0","Windows","10.0","null","es-ES,es;q=0.9,en;q=0.8,pt;q=0.7,it;q=0.6","true","null","tones/440hz_short.mp3","null","","","tone_number_task","102.5","cuarenta y tres","tones/440hz_short.mp3","252.5","60","2","18",""
"","","","","","html-keyboard-response","125","304861","0.0-137.0-0.0","18","1","2023-10-31 19:10:55","a725c3012b74bf33a1020a98cb69c237","45.71.5.119","Mozilla/5.0 (Windows NT 10.0; Win64; x64) AppleWebKit/537.36 (KHTML, like Gecko) Chrome/118.0.0.0 Safari/537.36","WebKit","Chrome","118.0.0.0","Windows","10.0","null","es-ES,es;q=0.9,en;q=0.8,pt;q=0.7,it;q=0.6","true","666","tones/440hz_short.mp3","a","","","empty_block","","cuarenta y tres","","","","2","18",""
"","","","","","html-keyboard-response","126","305524","0.0-137.0-1.0","18","1","2023-10-31 19:10:55","a725c3012b74bf33a1020a98cb69c237","45.71.5.119","Mozilla/5.0 (Windows NT 10.0; Win64; x64) AppleWebKit/537.36 (KHTML, like Gecko) Chrome/118.0.0.0 Safari/537.36","WebKit","Chrome","118.0.0.0","Windows","10.0","null","es-ES,es;q=0.9,en;q=0.8,pt;q=0.7,it;q=0.6","true","658","tones/440hz_short.mp3","j","","","empty_block","","cuarenta y tres","","","","2","18",""
"","","","","","html-keyboard-response","127","308147","0.0-139.0","18","1","2023-10-31 19:10:55","a725c3012b74bf33a1020a98cb69c237","45.71.5.119","Mozilla/5.0 (Windows NT 10.0; Win64; x64) AppleWebKit/537.36 (KHTML, like Gecko) Chrome/118.0.0.0 Safari/537.36","WebKit","Chrome","118.0.0.0","Windows","10.0","null","es-ES,es;q=0.9,en;q=0.8,pt;q=0.7,it;q=0.6","true","null","<div style=""font-size:100px;"">X</div>","null","","","fixation","","","","","","","",""
"","","","","","audio-keyboard-response","128","308405","0.0-140.0","18","1","2023-10-31 19:10:55","a725c3012b74bf33a1020a98cb69c237","45.71.5.119","Mozilla/5.0 (Windows NT 10.0; Win64; x64) AppleWebKit/537.36 (KHTML, like Gecko) Chrome/118.0.0.0 Safari/537.36","WebKit","Chrome","118.0.0.0","Windows","10.0","null","es-ES,es;q=0.9,en;q=0.8,pt;q=0.7,it;q=0.6","true","null","tones/440hz_short.mp3","null","","","tone_number_task","102.5","cuarenta y dos","tones/440hz_short.mp3","252.5","60","2","19",""
"","","","","","html-keyboard-response","129","309503","0.0-143.0-0.0","18","1","2023-10-31 19:10:55","a725c3012b74bf33a1020a98cb69c237","45.71.5.119","Mozilla/5.0 (Windows NT 10.0; Win64; x64) AppleWebKit/537.36 (KHTML, like Gecko) Chrome/118.0.0.0 Safari/537.36","WebKit","Chrome","118.0.0.0","Windows","10.0","null","es-ES,es;q=0.9,en;q=0.8,pt;q=0.7,it;q=0.6","true","1093","tones/440hz_short.mp3","a","","","empty_block","","cuarenta y dos","","","","2","19",""
"","","","","","html-keyboard-response","130","309737","0.0-143.0-1.0","18","1","2023-10-31 19:10:55","a725c3012b74bf33a1020a98cb69c237","45.71.5.119","Mozilla/5.0 (Windows NT 10.0; Win64; x64) AppleWebKit/537.36 (KHTML, like Gecko) Chrome/118.0.0.0 Safari/537.36","WebKit","Chrome","118.0.0.0","Windows","10.0","null","es-ES,es;q=0.9,en;q=0.8,pt;q=0.7,it;q=0.6","true","227","tones/440hz_short.mp3","j","","","empty_block","","cuarenta y dos","","","","2","19",""
"","","","","","html-keyboard-response","131","312358","0.0-145.0","18","1","2023-10-31 19:10:55","a725c3012b74bf33a1020a98cb69c237","45.71.5.119","Mozilla/5.0 (Windows NT 10.0; Win64; x64) AppleWebKit/537.36 (KHTML, like Gecko) Chrome/118.0.0.0 Safari/537.36","WebKit","Chrome","118.0.0.0","Windows","10.0","null","es-ES,es;q=0.9,en;q=0.8,pt;q=0.7,it;q=0.6","true","null","<div style=""font-size:100px;"">X</div>","null","","","fixation","","","","","","","",""
"","","","","","audio-keyboard-response","132","312515","0.0-146.0","18","1","2023-10-31 19:10:55","a725c3012b74bf33a1020a98cb69c237","45.71.5.119","Mozilla/5.0 (Windows NT 10.0; Win64; x64) AppleWebKit/537.36 (KHTML, like Gecko) Chrome/118.0.0.0 Safari/537.36","WebKit","Chrome","118.0.0.0","Windows","10.0","null","es-ES,es;q=0.9,en;q=0.8,pt;q=0.7,it;q=0.6","true","null","tones/880hz_short.mp3","null","","","tone_number_task","0","treinta y tres","tones/880hz_short.mp3","150","60","2","20",""
"","","","","","html-keyboard-response","133","313035","0.0-149.0-0.0","18","1","2023-10-31 19:10:55","a725c3012b74bf33a1020a98cb69c237","45.71.5.119","Mozilla/5.0 (Windows NT 10.0; Win64; x64) AppleWebKit/537.36 (KHTML, like Gecko) Chrome/118.0.0.0 Safari/537.36","WebKit","Chrome","118.0.0.0","Windows","10.0","null","es-ES,es;q=0.9,en;q=0.8,pt;q=0.7,it;q=0.6","true","515","tones/880hz_short.mp3","s","","","empty_block","","treinta y tres","","","","2","20",""
"","","","","","html-keyboard-response","134","313443","0.0-149.0-1.0","18","1","2023-10-31 19:10:55","a725c3012b74bf33a1020a98cb69c237","45.71.5.119","Mozilla/5.0 (Windows NT 10.0; Win64; x64) AppleWebKit/537.36 (KHTML, like Gecko) Chrome/118.0.0.0 Safari/537.36","WebKit","Chrome","118.0.0.0","Windows","10.0","null","es-ES,es;q=0.9,en;q=0.8,pt;q=0.7,it;q=0.6","true","403","tones/880hz_short.mp3","j","","","empty_block","","treinta y tres","","","","2","20",""
"","","","","","html-keyboard-response","135","316065","0.0-151.0","18","1","2023-10-31 19:10:55","a725c3012b74bf33a1020a98cb69c237","45.71.5.119","Mozilla/5.0 (Windows NT 10.0; Win64; x64) AppleWebKit/537.36 (KHTML, like Gecko) Chrome/118.0.0.0 Safari/537.36","WebKit","Chrome","118.0.0.0","Windows","10.0","null","es-ES,es;q=0.9,en;q=0.8,pt;q=0.7,it;q=0.6","true","null","<div style=""font-size:100px;"">X</div>","null","","","fixation","","","","","","","",""
"","","","","","audio-keyboard-response","136","316497","0.0-152.0","18","1","2023-10-31 19:10:55","a725c3012b74bf33a1020a98cb69c237","45.71.5.119","Mozilla/5.0 (Windows NT 10.0; Win64; x64) AppleWebKit/537.36 (KHTML, like Gecko) Chrome/118.0.0.0 Safari/537.36","WebKit","Chrome","118.0.0.0","Windows","10.0","null","es-ES,es;q=0.9,en;q=0.8,pt;q=0.7,it;q=0.6","true","432","tones/440hz_short.mp3","a","","","tone_number_task","1025","cuarenta","tones/440hz_short.mp3","1175","60","2","21",""
"","","","","","html-keyboard-response","137","317097","0.0-153.0-0.0","18","1","2023-10-31 19:10:55","a725c3012b74bf33a1020a98cb69c237","45.71.5.119","Mozilla/5.0 (Windows NT 10.0; Win64; x64) AppleWebKit/537.36 (KHTML, like Gecko) Chrome/118.0.0.0 Safari/537.36","WebKit","Chrome","118.0.0.0","Windows","10.0","null","es-ES,es;q=0.9,en;q=0.8,pt;q=0.7,it;q=0.6","true","null","","null","","","delay_block","","","","","","2","21",""
"","","","","","html-keyboard-response","138","317254","0.0-153.0-1.0","18","1","2023-10-31 19:10:55","a725c3012b74bf33a1020a98cb69c237","45.71.5.119","Mozilla/5.0 (Windows NT 10.0; Win64; x64) AppleWebKit/537.36 (KHTML, like Gecko) Chrome/118.0.0.0 Safari/537.36","WebKit","Chrome","118.0.0.0","Windows","10.0","null","es-ES,es;q=0.9,en;q=0.8,pt;q=0.7,it;q=0.6","true","null","<p id=""stimulus"" style=""font-size:60px;"">cuarenta</p>","null","","","tone_number_task_remaining_before_delay","","cuarenta","","743","60","2","21",""
"","","","","","html-keyboard-response","139","317875","0.0-156.0-0.0","18","1","2023-10-31 19:10:55","a725c3012b74bf33a1020a98cb69c237","45.71.5.119","Mozilla/5.0 (Windows NT 10.0; Win64; x64) AppleWebKit/537.36 (KHTML, like Gecko) Chrome/118.0.0.0 Safari/537.36","WebKit","Chrome","118.0.0.0","Windows","10.0","null","es-ES,es;q=0.9,en;q=0.8,pt;q=0.7,it;q=0.6","true","615","<p id=""stimulus"" style=""font-size:60px;"">cuarenta</p>","j","","","empty_block","","cuarenta","","","","2","21",""
"","","","","","html-keyboard-response","140","320498","0.0-157.0","18","1","2023-10-31 19:10:55","a725c3012b74bf33a1020a98cb69c237","45.71.5.119","Mozilla/5.0 (Windows NT 10.0; Win64; x64) AppleWebKit/537.36 (KHTML, like Gecko) Chrome/118.0.0.0 Safari/537.36","WebKit","Chrome","118.0.0.0","Windows","10.0","null","es-ES,es;q=0.9,en;q=0.8,pt;q=0.7,it;q=0.6","true","null","<div style=""font-size:100px;"">X</div>","null","","","fixation","","","","","","","",""
"","","","","","audio-keyboard-response","141","320655","0.0-158.0","18","1","2023-10-31 19:10:55","a725c3012b74bf33a1020a98cb69c237","45.71.5.119","Mozilla/5.0 (Windows NT 10.0; Win64; x64) AppleWebKit/537.36 (KHTML, like Gecko) Chrome/118.0.0.0 Safari/537.36","WebKit","Chrome","118.0.0.0","Windows","10.0","null","es-ES,es;q=0.9,en;q=0.8,pt;q=0.7,it;q=0.6","true","null","tones/880hz_short.mp3","null","","","tone_number_task","0","cuarenta y cuatro","tones/880hz_short.mp3","150","60","2","22",""
"","","","","","html-keyboard-response","142","321148","0.0-161.0-0.0","18","1","2023-10-31 19:10:55","a725c3012b74bf33a1020a98cb69c237","45.71.5.119","Mozilla/5.0 (Windows NT 10.0; Win64; x64) AppleWebKit/537.36 (KHTML, like Gecko) Chrome/118.0.0.0 Safari/537.36","WebKit","Chrome","118.0.0.0","Windows","10.0","null","es-ES,es;q=0.9,en;q=0.8,pt;q=0.7,it;q=0.6","true","487","tones/880hz_short.mp3","s","","","empty_block","","cuarenta y cuatro","","","","2","22",""
"","","","","","html-keyboard-response","143","322355","0.0-161.0-1.0","18","1","2023-10-31 19:10:55","a725c3012b74bf33a1020a98cb69c237","45.71.5.119","Mozilla/5.0 (Windows NT 10.0; Win64; x64) AppleWebKit/537.36 (KHTML, like Gecko) Chrome/118.0.0.0 Safari/537.36","WebKit","Chrome","118.0.0.0","Windows","10.0","null","es-ES,es;q=0.9,en;q=0.8,pt;q=0.7,it;q=0.6","true","null","tones/880hz_short.mp3","null","","","empty_block","","cuarenta y cuatro","","","","2","22",""
"","","","","","html-keyboard-response","144","324977","0.0-163.0","18","1","2023-10-31 19:10:55","a725c3012b74bf33a1020a98cb69c237","45.71.5.119","Mozilla/5.0 (Windows NT 10.0; Win64; x64) AppleWebKit/537.36 (KHTML, like Gecko) Chrome/118.0.0.0 Safari/537.36","WebKit","Chrome","118.0.0.0","Windows","10.0","null","es-ES,es;q=0.9,en;q=0.8,pt;q=0.7,it;q=0.6","true","null","<div style=""font-size:100px;"">X</div>","null","","","fixation","","","","","","","",""
"","","","","","audio-keyboard-response","145","325871","0.0-164.0","18","1","2023-10-31 19:10:55","a725c3012b74bf33a1020a98cb69c237","45.71.5.119","Mozilla/5.0 (Windows NT 10.0; Win64; x64) AppleWebKit/537.36 (KHTML, like Gecko) Chrome/118.0.0.0 Safari/537.36","WebKit","Chrome","118.0.0.0","Windows","10.0","null","es-ES,es;q=0.9,en;q=0.8,pt;q=0.7,it;q=0.6","true","888","tones/440hz_short.mp3","a","","","tone_number_task","1025","cincuenta y nueve","tones/440hz_short.mp3","1175","60","2","23",""
"","","","","","html-keyboard-response","146","326016","0.0-165.0-0.0","18","1","2023-10-31 19:10:55","a725c3012b74bf33a1020a98cb69c237","45.71.5.119","Mozilla/5.0 (Windows NT 10.0; Win64; x64) AppleWebKit/537.36 (KHTML, like Gecko) Chrome/118.0.0.0 Safari/537.36","WebKit","Chrome","118.0.0.0","Windows","10.0","null","es-ES,es;q=0.9,en;q=0.8,pt;q=0.7,it;q=0.6","true","null","","null","","","delay_block","","","","","","2","23",""
"","","","","","html-keyboard-response","147","326173","0.0-165.0-1.0","18","1","2023-10-31 19:10:55","a725c3012b74bf33a1020a98cb69c237","45.71.5.119","Mozilla/5.0 (Windows NT 10.0; Win64; x64) AppleWebKit/537.36 (KHTML, like Gecko) Chrome/118.0.0.0 Safari/537.36","WebKit","Chrome","118.0.0.0","Windows","10.0","null","es-ES,es;q=0.9,en;q=0.8,pt;q=0.7,it;q=0.6","true","null","<p id=""stimulus"" style=""font-size:60px;"">cincuenta y nueve</p>","null","","","tone_number_task_remaining_before_delay","","cincuenta y nueve","","287","60","2","23",""
"","","","","","html-keyboard-response","148","326742","0.0-168.0-0.0","18","1","2023-10-31 19:10:55","a725c3012b74bf33a1020a98cb69c237","45.71.5.119","Mozilla/5.0 (Windows NT 10.0; Win64; x64) AppleWebKit/537.36 (KHTML, like Gecko) Chrome/118.0.0.0 Safari/537.36","WebKit","Chrome","118.0.0.0","Windows","10.0","null","es-ES,es;q=0.9,en;q=0.8,pt;q=0.7,it;q=0.6","true","563","<p id=""stimulus"" style=""font-size:60px;"">cincuenta y nueve</p>","k","","","empty_block","","cincuenta y nueve","","","","2","23",""
"","","","","","html-keyboard-response","149","329365","0.0-169.0","18","1","2023-10-31 19:10:55","a725c3012b74bf33a1020a98cb69c237","45.71.5.119","Mozilla/5.0 (Windows NT 10.0; Win64; x64) AppleWebKit/537.36 (KHTML, like Gecko) Chrome/118.0.0.0 Safari/537.36","WebKit","Chrome","118.0.0.0","Windows","10.0","null","es-ES,es;q=0.9,en;q=0.8,pt;q=0.7,it;q=0.6","true","null","<div style=""font-size:100px;"">X</div>","null","","","fixation","","","","","","","",""
"","","","","","audio-keyboard-response","150","329876","0.0-170.0","18","1","2023-10-31 19:10:55","a725c3012b74bf33a1020a98cb69c237","45.71.5.119","Mozilla/5.0 (Windows NT 10.0; Win64; x64) AppleWebKit/537.36 (KHTML, like Gecko) Chrome/118.0.0.0 Safari/537.36","WebKit","Chrome","118.0.0.0","Windows","10.0","null","es-ES,es;q=0.9,en;q=0.8,pt;q=0.7,it;q=0.6","true","509","tones/440hz_short.mp3","a","","","tone_number_task","1025","cincuenta y tres","tones/440hz_short.mp3","1175","60","2","24",""
"","","","","","html-keyboard-response","151","330400","0.0-171.0-0.0","18","1","2023-10-31 19:10:55","a725c3012b74bf33a1020a98cb69c237","45.71.5.119","Mozilla/5.0 (Windows NT 10.0; Win64; x64) AppleWebKit/537.36 (KHTML, like Gecko) Chrome/118.0.0.0 Safari/537.36","WebKit","Chrome","118.0.0.0","Windows","10.0","null","es-ES,es;q=0.9,en;q=0.8,pt;q=0.7,it;q=0.6","true","null","","null","","","delay_block","","","","","","2","24",""
"","","","","","html-keyboard-response","152","330558","0.0-171.0-1.0","18","1","2023-10-31 19:10:55","a725c3012b74bf33a1020a98cb69c237","45.71.5.119","Mozilla/5.0 (Windows NT 10.0; Win64; x64) AppleWebKit/537.36 (KHTML, like Gecko) Chrome/118.0.0.0 Safari/537.36","WebKit","Chrome","118.0.0.0","Windows","10.0","null","es-ES,es;q=0.9,en;q=0.8,pt;q=0.7,it;q=0.6","true","null","<p id=""stimulus"" style=""font-size:60px;"">cincuenta y tres</p>","null","","","tone_number_task_remaining_before_delay","","cincuenta y tres","","666","60","2","24",""
"","","","","","html-keyboard-response","153","331400","0.0-174.0-0.0","18","1","2023-10-31 19:10:55","a725c3012b74bf33a1020a98cb69c237","45.71.5.119","Mozilla/5.0 (Windows NT 10.0; Win64; x64) AppleWebKit/537.36 (KHTML, like Gecko) Chrome/118.0.0.0 Safari/537.36","WebKit","Chrome","118.0.0.0","Windows","10.0","null","es-ES,es;q=0.9,en;q=0.8,pt;q=0.7,it;q=0.6","true","835","<p id=""stimulus"" style=""font-size:60px;"">cincuenta y tres</p>","k","","","empty_block","","cincuenta y tres","","","","2","24",""
"","","","","","html-keyboard-response","154","334022","0.0-175.0","18","1","2023-10-31 19:10:55","a725c3012b74bf33a1020a98cb69c237","45.71.5.119","Mozilla/5.0 (Windows NT 10.0; Win64; x64) AppleWebKit/537.36 (KHTML, like Gecko) Chrome/118.0.0.0 Safari/537.36","WebKit","Chrome","118.0.0.0","Windows","10.0","null","es-ES,es;q=0.9,en;q=0.8,pt;q=0.7,it;q=0.6","true","null","<div style=""font-size:100px;"">X</div>","null","","","fixation","","","","","","","",""
"","","","","","audio-keyboard-response","155","334450","0.0-176.0","18","1","2023-10-31 19:10:55","a725c3012b74bf33a1020a98cb69c237","45.71.5.119","Mozilla/5.0 (Windows NT 10.0; Win64; x64) AppleWebKit/537.36 (KHTML, like Gecko) Chrome/118.0.0.0 Safari/537.36","WebKit","Chrome","118.0.0.0","Windows","10.0","null","es-ES,es;q=0.9,en;q=0.8,pt;q=0.7,it;q=0.6","true","421","tones/880hz_short.mp3","s","","","tone_number_task","992.5","cincuenta y tres","tones/880hz_short.mp3","1142.5","60","2","25",""
"","","","","","html-keyboard-response","156","335029","0.0-177.0-0.0","18","1","2023-10-31 19:10:55","a725c3012b74bf33a1020a98cb69c237","45.71.5.119","Mozilla/5.0 (Windows NT 10.0; Win64; x64) AppleWebKit/537.36 (KHTML, like Gecko) Chrome/118.0.0.0 Safari/537.36","WebKit","Chrome","118.0.0.0","Windows","10.0","null","es-ES,es;q=0.9,en;q=0.8,pt;q=0.7,it;q=0.6","true","null","","null","","","delay_block","","","","","","2","25",""
"","","","","","html-keyboard-response","157","335186","0.0-177.0-1.0","18","1","2023-10-31 19:10:55","a725c3012b74bf33a1020a98cb69c237","45.71.5.119","Mozilla/5.0 (Windows NT 10.0; Win64; x64) AppleWebKit/537.36 (KHTML, like Gecko) Chrome/118.0.0.0 Safari/537.36","WebKit","Chrome","118.0.0.0","Windows","10.0","null","es-ES,es;q=0.9,en;q=0.8,pt;q=0.7,it;q=0.6","true","null","<p id=""stimulus"" style=""font-size:60px;"">cincuenta y tres</p>","null","","","tone_number_task_remaining_before_delay","","cincuenta y tres","","721.5","60","2","25",""
"","","","","","html-keyboard-response","158","335777","0.0-180.0-0.0","18","1","2023-10-31 19:10:55","a725c3012b74bf33a1020a98cb69c237","45.71.5.119","Mozilla/5.0 (Windows NT 10.0; Win64; x64) AppleWebKit/537.36 (KHTML, like Gecko) Chrome/118.0.0.0 Safari/537.36","WebKit","Chrome","118.0.0.0","Windows","10.0","null","es-ES,es;q=0.9,en;q=0.8,pt;q=0.7,it;q=0.6","true","584","<p id=""stimulus"" style=""font-size:60px;"">cincuenta y tres</p>","k","","","empty_block","","cincuenta y tres","","","","2","25",""
"","","","","","html-keyboard-response","159","338399","0.0-181.0","18","1","2023-10-31 19:10:55","a725c3012b74bf33a1020a98cb69c237","45.71.5.119","Mozilla/5.0 (Windows NT 10.0; Win64; x64) AppleWebKit/537.36 (KHTML, like Gecko) Chrome/118.0.0.0 Safari/537.36","WebKit","Chrome","118.0.0.0","Windows","10.0","null","es-ES,es;q=0.9,en;q=0.8,pt;q=0.7,it;q=0.6","true","null","<div style=""font-size:100px;"">X</div>","null","","","fixation","","","","","","","",""
"","","","","","audio-keyboard-response","160","339297","0.0-182.0","18","1","2023-10-31 19:10:55","a725c3012b74bf33a1020a98cb69c237","45.71.5.119","Mozilla/5.0 (Windows NT 10.0; Win64; x64) AppleWebKit/537.36 (KHTML, like Gecko) Chrome/118.0.0.0 Safari/537.36","WebKit","Chrome","118.0.0.0","Windows","10.0","null","es-ES,es;q=0.9,en;q=0.8,pt;q=0.7,it;q=0.6","true","891","tones/880hz_short.mp3","s","","","tone_number_task","992.5","treinta y tres","tones/880hz_short.mp3","1142.5","60","2","26",""
"","","","","","html-keyboard-response","161","339406","0.0-183.0-0.0","18","1","2023-10-31 19:10:55","a725c3012b74bf33a1020a98cb69c237","45.71.5.119","Mozilla/5.0 (Windows NT 10.0; Win64; x64) AppleWebKit/537.36 (KHTML, like Gecko) Chrome/118.0.0.0 Safari/537.36","WebKit","Chrome","118.0.0.0","Windows","10.0","null","es-ES,es;q=0.9,en;q=0.8,pt;q=0.7,it;q=0.6","true","null","","null","","","delay_block","","","","","","2","26",""
"","","","","","html-keyboard-response","162","339563","0.0-183.0-1.0","18","1","2023-10-31 19:10:55","a725c3012b74bf33a1020a98cb69c237","45.71.5.119","Mozilla/5.0 (Windows NT 10.0; Win64; x64) AppleWebKit/537.36 (KHTML, like Gecko) Chrome/118.0.0.0 Safari/537.36","WebKit","Chrome","118.0.0.0","Windows","10.0","null","es-ES,es;q=0.9,en;q=0.8,pt;q=0.7,it;q=0.6","true","null","<p id=""stimulus"" style=""font-size:60px;"">treinta y tres</p>","null","","","tone_number_task_remaining_before_delay","","treinta y tres","","251.5","60","2","26",""
"","","","","","html-keyboard-response","163","340099","0.0-186.0-0.0","18","1","2023-10-31 19:10:55","a725c3012b74bf33a1020a98cb69c237","45.71.5.119","Mozilla/5.0 (Windows NT 10.0; Win64; x64) AppleWebKit/537.36 (KHTML, like Gecko) Chrome/118.0.0.0 Safari/537.36","WebKit","Chrome","118.0.0.0","Windows","10.0","null","es-ES,es;q=0.9,en;q=0.8,pt;q=0.7,it;q=0.6","true","528","<p id=""stimulus"" style=""font-size:60px;"">treinta y tres</p>","j","","","empty_block","","treinta y tres","","","","2","26",""
"","","","","","html-keyboard-response","164","342722","0.0-187.0","18","1","2023-10-31 19:10:55","a725c3012b74bf33a1020a98cb69c237","45.71.5.119","Mozilla/5.0 (Windows NT 10.0; Win64; x64) AppleWebKit/537.36 (KHTML, like Gecko) Chrome/118.0.0.0 Safari/537.36","WebKit","Chrome","118.0.0.0","Windows","10.0","null","es-ES,es;q=0.9,en;q=0.8,pt;q=0.7,it;q=0.6","true","null","<div style=""font-size:100px;"">X</div>","null","","","fixation","","","","","","","",""
"","","","","","audio-keyboard-response","165","343175","0.0-188.0","18","1","2023-10-31 19:10:55","a725c3012b74bf33a1020a98cb69c237","45.71.5.119","Mozilla/5.0 (Windows NT 10.0; Win64; x64) AppleWebKit/537.36 (KHTML, like Gecko) Chrome/118.0.0.0 Safari/537.36","WebKit","Chrome","118.0.0.0","Windows","10.0","null","es-ES,es;q=0.9,en;q=0.8,pt;q=0.7,it;q=0.6","true","440","tones/880hz_short.mp3","s","","","tone_number_task","992.5","treinta y cinco","tones/880hz_short.mp3","1142.5","60","2","27",""
"","","","","","html-keyboard-response","166","343734","0.0-189.0-0.0","18","1","2023-10-31 19:10:55","a725c3012b74bf33a1020a98cb69c237","45.71.5.119","Mozilla/5.0 (Windows NT 10.0; Win64; x64) AppleWebKit/537.36 (KHTML, like Gecko) Chrome/118.0.0.0 Safari/537.36","WebKit","Chrome","118.0.0.0","Windows","10.0","null","es-ES,es;q=0.9,en;q=0.8,pt;q=0.7,it;q=0.6","true","null","","null","","","delay_block","","","","","","2","27",""
"","","","","","html-keyboard-response","167","343893","0.0-189.0-1.0","18","1","2023-10-31 19:10:55","a725c3012b74bf33a1020a98cb69c237","45.71.5.119","Mozilla/5.0 (Windows NT 10.0; Win64; x64) AppleWebKit/537.36 (KHTML, like Gecko) Chrome/118.0.0.0 Safari/537.36","WebKit","Chrome","118.0.0.0","Windows","10.0","null","es-ES,es;q=0.9,en;q=0.8,pt;q=0.7,it;q=0.6","true","null","<p id=""stimulus"" style=""font-size:60px;"">treinta y cinco</p>","null","","","tone_number_task_remaining_before_delay","","treinta y cinco","","702.5","60","2","27",""
"","","","","","html-keyboard-response","168","344316","0.0-192.0-0.0","18","1","2023-10-31 19:10:55","a725c3012b74bf33a1020a98cb69c237","45.71.5.119","Mozilla/5.0 (Windows NT 10.0; Win64; x64) AppleWebKit/537.36 (KHTML, like Gecko) Chrome/118.0.0.0 Safari/537.36","WebKit","Chrome","118.0.0.0","Windows","10.0","null","es-ES,es;q=0.9,en;q=0.8,pt;q=0.7,it;q=0.6","true","416","<p id=""stimulus"" style=""font-size:60px;"">treinta y cinco</p>","j","","","empty_block","","treinta y cinco","","","","2","27",""
"","","","","","html-keyboard-response","169","346938","0.0-193.0","18","1","2023-10-31 19:10:55","a725c3012b74bf33a1020a98cb69c237","45.71.5.119","Mozilla/5.0 (Windows NT 10.0; Win64; x64) AppleWebKit/537.36 (KHTML, like Gecko) Chrome/118.0.0.0 Safari/537.36","WebKit","Chrome","118.0.0.0","Windows","10.0","null","es-ES,es;q=0.9,en;q=0.8,pt;q=0.7,it;q=0.6","true","null","<div style=""font-size:100px;"">X</div>","null","","","fixation","","","","","","","",""
"","","","","","audio-keyboard-response","170","347197","0.0-194.0","18","1","2023-10-31 19:10:55","a725c3012b74bf33a1020a98cb69c237","45.71.5.119","Mozilla/5.0 (Windows NT 10.0; Win64; x64) AppleWebKit/537.36 (KHTML, like Gecko) Chrome/118.0.0.0 Safari/537.36","WebKit","Chrome","118.0.0.0","Windows","10.0","null","es-ES,es;q=0.9,en;q=0.8,pt;q=0.7,it;q=0.6","true","null","tones/440hz_short.mp3","null","","","tone_number_task","102.5","cincuenta","tones/440hz_short.mp3","252.5","60","2","28",""
"","","","","","html-keyboard-response","171","347493","0.0-197.0-0.0","18","1","2023-10-31 19:10:55","a725c3012b74bf33a1020a98cb69c237","45.71.5.119","Mozilla/5.0 (Windows NT 10.0; Win64; x64) AppleWebKit/537.36 (KHTML, like Gecko) Chrome/118.0.0.0 Safari/537.36","WebKit","Chrome","118.0.0.0","Windows","10.0","null","es-ES,es;q=0.9,en;q=0.8,pt;q=0.7,it;q=0.6","true","289","tones/440hz_short.mp3","a","","","empty_block","","cincuenta","","","","2","28",""
"","","","","","html-keyboard-response","172","348463","0.0-197.0-1.0","18","1","2023-10-31 19:10:55","a725c3012b74bf33a1020a98cb69c237","45.71.5.119","Mozilla/5.0 (Windows NT 10.0; Win64; x64) AppleWebKit/537.36 (KHTML, like Gecko) Chrome/118.0.0.0 Safari/537.36","WebKit","Chrome","118.0.0.0","Windows","10.0","null","es-ES,es;q=0.9,en;q=0.8,pt;q=0.7,it;q=0.6","true","962","tones/440hz_short.mp3","k","","","empty_block","","cincuenta","","","","2","28",""
"","","","","","html-keyboard-response","173","351086","0.0-199.0","18","1","2023-10-31 19:10:55","a725c3012b74bf33a1020a98cb69c237","45.71.5.119","Mozilla/5.0 (Windows NT 10.0; Win64; x64) AppleWebKit/537.36 (KHTML, like Gecko) Chrome/118.0.0.0 Safari/537.36","WebKit","Chrome","118.0.0.0","Windows","10.0","null","es-ES,es;q=0.9,en;q=0.8,pt;q=0.7,it;q=0.6","true","null","<div style=""font-size:100px;"">X</div>","null","","","fixation","","","","","","","",""
"","","","","","audio-keyboard-response","174","351243","0.0-200.0","18","1","2023-10-31 19:10:55","a725c3012b74bf33a1020a98cb69c237","45.71.5.119","Mozilla/5.0 (Windows NT 10.0; Win64; x64) AppleWebKit/537.36 (KHTML, like Gecko) Chrome/118.0.0.0 Safari/537.36","WebKit","Chrome","118.0.0.0","Windows","10.0","null","es-ES,es;q=0.9,en;q=0.8,pt;q=0.7,it;q=0.6","true","null","tones/880hz_short.mp3","null","","","tone_number_task","0","cuarenta y seis","tones/880hz_short.mp3","150","60","2","29",""
"","","","","","html-keyboard-response","175","351892","0.0-203.0-0.0","18","1","2023-10-31 19:10:55","a725c3012b74bf33a1020a98cb69c237","45.71.5.119","Mozilla/5.0 (Windows NT 10.0; Win64; x64) AppleWebKit/537.36 (KHTML, like Gecko) Chrome/118.0.0.0 Safari/537.36","WebKit","Chrome","118.0.0.0","Windows","10.0","null","es-ES,es;q=0.9,en;q=0.8,pt;q=0.7,it;q=0.6","true","641","tones/880hz_short.mp3","s","","","empty_block","","cuarenta y seis","","","","2","29",""
"","","","","","html-keyboard-response","176","352873","0.0-203.0-1.0","18","1","2023-10-31 19:10:55","a725c3012b74bf33a1020a98cb69c237","45.71.5.119","Mozilla/5.0 (Windows NT 10.0; Win64; x64) AppleWebKit/537.36 (KHTML, like Gecko) Chrome/118.0.0.0 Safari/537.36","WebKit","Chrome","118.0.0.0","Windows","10.0","null","es-ES,es;q=0.9,en;q=0.8,pt;q=0.7,it;q=0.6","true","973","tones/880hz_short.mp3","k","","","empty_block","","cuarenta y seis","","","","2","29",""
"","","","","","html-keyboard-response","177","355495","0.0-205.0","18","1","2023-10-31 19:10:55","a725c3012b74bf33a1020a98cb69c237","45.71.5.119","Mozilla/5.0 (Windows NT 10.0; Win64; x64) AppleWebKit/537.36 (KHTML, like Gecko) Chrome/118.0.0.0 Safari/537.36","WebKit","Chrome","118.0.0.0","Windows","10.0","null","es-ES,es;q=0.9,en;q=0.8,pt;q=0.7,it;q=0.6","true","null","<div style=""font-size:100px;"">X</div>","null","","","fixation","","","","","","","",""
"","","","","","audio-keyboard-response","178","356131","0.0-206.0","18","1","2023-10-31 19:10:55","a725c3012b74bf33a1020a98cb69c237","45.71.5.119","Mozilla/5.0 (Windows NT 10.0; Win64; x64) AppleWebKit/537.36 (KHTML, like Gecko) Chrome/118.0.0.0 Safari/537.36","WebKit","Chrome","118.0.0.0","Windows","10.0","null","es-ES,es;q=0.9,en;q=0.8,pt;q=0.7,it;q=0.6","true","629","tones/440hz_short.mp3","a","","","tone_number_task","1025","cincuenta y uno","tones/440hz_short.mp3","1175","60","2","30",""
"","","","","","html-keyboard-response","179","356534","0.0-207.0-0.0","18","1","2023-10-31 19:10:55","a725c3012b74bf33a1020a98cb69c237","45.71.5.119","Mozilla/5.0 (Windows NT 10.0; Win64; x64) AppleWebKit/537.36 (KHTML, like Gecko) Chrome/118.0.0.0 Safari/537.36","WebKit","Chrome","118.0.0.0","Windows","10.0","null","es-ES,es;q=0.9,en;q=0.8,pt;q=0.7,it;q=0.6","true","null","","null","","","delay_block","","","","","","2","30",""
"","","","","","html-keyboard-response","180","356693","0.0-207.0-1.0","18","1","2023-10-31 19:10:55","a725c3012b74bf33a1020a98cb69c237","45.71.5.119","Mozilla/5.0 (Windows NT 10.0; Win64; x64) AppleWebKit/537.36 (KHTML, like Gecko) Chrome/118.0.0.0 Safari/537.36","WebKit","Chrome","118.0.0.0","Windows","10.0","null","es-ES,es;q=0.9,en;q=0.8,pt;q=0.7,it;q=0.6","true","null","<p id=""stimulus"" style=""font-size:60px;"">cincuenta y uno</p>","null","","","tone_number_task_remaining_before_delay","","cincuenta y uno","","546","60","2","30",""
"","","","","","html-keyboard-response","181","357553","0.0-210.0-0.0","18","1","2023-10-31 19:10:55","a725c3012b74bf33a1020a98cb69c237","45.71.5.119","Mozilla/5.0 (Windows NT 10.0; Win64; x64) AppleWebKit/537.36 (KHTML, like Gecko) Chrome/118.0.0.0 Safari/537.36","WebKit","Chrome","118.0.0.0","Windows","10.0","null","es-ES,es;q=0.9,en;q=0.8,pt;q=0.7,it;q=0.6","true","852","<p id=""stimulus"" style=""font-size:60px;"">cincuenta y uno</p>","k","","","empty_block","","cincuenta y uno","","","","2","30",""
"","","","","","html-keyboard-response","182","360176","0.0-211.0","18","1","2023-10-31 19:10:55","a725c3012b74bf33a1020a98cb69c237","45.71.5.119","Mozilla/5.0 (Windows NT 10.0; Win64; x64) AppleWebKit/537.36 (KHTML, like Gecko) Chrome/118.0.0.0 Safari/537.36","WebKit","Chrome","118.0.0.0","Windows","10.0","null","es-ES,es;q=0.9,en;q=0.8,pt;q=0.7,it;q=0.6","true","null","<div style=""font-size:100px;"">X</div>","null","","","fixation","","","","","","","",""
"","","","","","audio-keyboard-response","183","360333","0.0-212.0","18","1","2023-10-31 19:10:55","a725c3012b74bf33a1020a98cb69c237","45.71.5.119","Mozilla/5.0 (Windows NT 10.0; Win64; x64) AppleWebKit/537.36 (KHTML, like Gecko) Chrome/118.0.0.0 Safari/537.36","WebKit","Chrome","118.0.0.0","Windows","10.0","null","es-ES,es;q=0.9,en;q=0.8,pt;q=0.7,it;q=0.6","true","null","tones/880hz_short.mp3","null","","","tone_number_task","0","cincuenta y dos","tones/880hz_short.mp3","150","60","2","31",""
"","","","","","html-keyboard-response","184","360963","0.0-215.0-0.0","18","1","2023-10-31 19:10:55","a725c3012b74bf33a1020a98cb69c237","45.71.5.119","Mozilla/5.0 (Windows NT 10.0; Win64; x64) AppleWebKit/537.36 (KHTML, like Gecko) Chrome/118.0.0.0 Safari/537.36","WebKit","Chrome","118.0.0.0","Windows","10.0","null","es-ES,es;q=0.9,en;q=0.8,pt;q=0.7,it;q=0.6","true","623","tones/880hz_short.mp3","s","","","empty_block","","cincuenta y dos","","","","2","31",""
"","","","","","html-keyboard-response","185","361288","0.0-215.0-1.0","18","1","2023-10-31 19:10:55","a725c3012b74bf33a1020a98cb69c237","45.71.5.119","Mozilla/5.0 (Windows NT 10.0; Win64; x64) AppleWebKit/537.36 (KHTML, like Gecko) Chrome/118.0.0.0 Safari/537.36","WebKit","Chrome","118.0.0.0","Windows","10.0","null","es-ES,es;q=0.9,en;q=0.8,pt;q=0.7,it;q=0.6","true","317","tones/880hz_short.mp3","k","","","empty_block","","cincuenta y dos","","","","2","31",""
"","","","","","html-keyboard-response","186","363911","0.0-217.0","18","1","2023-10-31 19:10:55","a725c3012b74bf33a1020a98cb69c237","45.71.5.119","Mozilla/5.0 (Windows NT 10.0; Win64; x64) AppleWebKit/537.36 (KHTML, like Gecko) Chrome/118.0.0.0 Safari/537.36","WebKit","Chrome","118.0.0.0","Windows","10.0","null","es-ES,es;q=0.9,en;q=0.8,pt;q=0.7,it;q=0.6","true","null","<div style=""font-size:100px;"">X</div>","null","","","fixation","","","","","","","",""
"","","","","","audio-keyboard-response","187","365063","0.0-218.0","18","1","2023-10-31 19:10:55","a725c3012b74bf33a1020a98cb69c237","45.71.5.119","Mozilla/5.0 (Windows NT 10.0; Win64; x64) AppleWebKit/537.36 (KHTML, like Gecko) Chrome/118.0.0.0 Safari/537.36","WebKit","Chrome","118.0.0.0","Windows","10.0","null","es-ES,es;q=0.9,en;q=0.8,pt;q=0.7,it;q=0.6","true","null","tones/880hz_short.mp3","null","","","tone_number_task","992.5","treinta y ocho","tones/880hz_short.mp3","1142.5","60","2","32",""
"","","","","","html-keyboard-response","188","365165","0.0-221.0-0.0","18","1","2023-10-31 19:10:55","a725c3012b74bf33a1020a98cb69c237","45.71.5.119","Mozilla/5.0 (Windows NT 10.0; Win64; x64) AppleWebKit/537.36 (KHTML, like Gecko) Chrome/118.0.0.0 Safari/537.36","WebKit","Chrome","118.0.0.0","Windows","10.0","null","es-ES,es;q=0.9,en;q=0.8,pt;q=0.7,it;q=0.6","true","95","tones/880hz_short.mp3","s","","","empty_block","","treinta y ocho","","","","2","32",""
"","","","","","html-keyboard-response","189","365719","0.0-221.0-1.0","18","1","2023-10-31 19:10:55","a725c3012b74bf33a1020a98cb69c237","45.71.5.119","Mozilla/5.0 (Windows NT 10.0; Win64; x64) AppleWebKit/537.36 (KHTML, like Gecko) Chrome/118.0.0.0 Safari/537.36","WebKit","Chrome","118.0.0.0","Windows","10.0","null","es-ES,es;q=0.9,en;q=0.8,pt;q=0.7,it;q=0.6","true","547","tones/880hz_short.mp3","j","","","empty_block","","treinta y ocho","","","","2","32",""
"","","","","","html-keyboard-response","190","368342","0.0-223.0","18","1","2023-10-31 19:10:55","a725c3012b74bf33a1020a98cb69c237","45.71.5.119","Mozilla/5.0 (Windows NT 10.0; Win64; x64) AppleWebKit/537.36 (KHTML, like Gecko) Chrome/118.0.0.0 Safari/537.36","WebKit","Chrome","118.0.0.0","Windows","10.0","null","es-ES,es;q=0.9,en;q=0.8,pt;q=0.7,it;q=0.6","true","null","<div style=""font-size:100px;"">X</div>","null","","","fixation","","","","","","","",""
"","","","","","audio-keyboard-response","191","368828","0.0-224.0","18","1","2023-10-31 19:10:55","a725c3012b74bf33a1020a98cb69c237","45.71.5.119","Mozilla/5.0 (Windows NT 10.0; Win64; x64) AppleWebKit/537.36 (KHTML, like Gecko) Chrome/118.0.0.0 Safari/537.36","WebKit","Chrome","118.0.0.0","Windows","10.0","null","es-ES,es;q=0.9,en;q=0.8,pt;q=0.7,it;q=0.6","true","480","tones/440hz_short.mp3","a","","","tone_number_task","1025","veintitres","tones/440hz_short.mp3","1175","60","2","33",""
"","","","","","html-keyboard-response","192","369382","0.0-225.0-0.0","18","1","2023-10-31 19:10:55","a725c3012b74bf33a1020a98cb69c237","45.71.5.119","Mozilla/5.0 (Windows NT 10.0; Win64; x64) AppleWebKit/537.36 (KHTML, like Gecko) Chrome/118.0.0.0 Safari/537.36","WebKit","Chrome","118.0.0.0","Windows","10.0","null","es-ES,es;q=0.9,en;q=0.8,pt;q=0.7,it;q=0.6","true","null","","null","","","delay_block","","","","","","2","33",""
"","","","","","html-keyboard-response","193","369541","0.0-225.0-1.0","18","1","2023-10-31 19:10:55","a725c3012b74bf33a1020a98cb69c237","45.71.5.119","Mozilla/5.0 (Windows NT 10.0; Win64; x64) AppleWebKit/537.36 (KHTML, like Gecko) Chrome/118.0.0.0 Safari/537.36","WebKit","Chrome","118.0.0.0","Windows","10.0","null","es-ES,es;q=0.9,en;q=0.8,pt;q=0.7,it;q=0.6","true","null","<p id=""stimulus"" style=""font-size:60px;"">veintitres</p>","null","","","tone_number_task_remaining_before_delay","","veintitres","","695","60","2","33",""
"","","","","","html-keyboard-response","194","369929","0.0-228.0-0.0","18","1","2023-10-31 19:10:55","a725c3012b74bf33a1020a98cb69c237","45.71.5.119","Mozilla/5.0 (Windows NT 10.0; Win64; x64) AppleWebKit/537.36 (KHTML, like Gecko) Chrome/118.0.0.0 Safari/537.36","WebKit","Chrome","118.0.0.0","Windows","10.0","null","es-ES,es;q=0.9,en;q=0.8,pt;q=0.7,it;q=0.6","true","380","<p id=""stimulus"" style=""font-size:60px;"">veintitres</p>","j","","","empty_block","","veintitres","","","","2","33",""
"","","","","","html-keyboard-response","195","372551","0.0-229.0","18","1","2023-10-31 19:10:55","a725c3012b74bf33a1020a98cb69c237","45.71.5.119","Mozilla/5.0 (Windows NT 10.0; Win64; x64) AppleWebKit/537.36 (KHTML, like Gecko) Chrome/118.0.0.0 Safari/537.36","WebKit","Chrome","118.0.0.0","Windows","10.0","null","es-ES,es;q=0.9,en;q=0.8,pt;q=0.7,it;q=0.6","true","null","<div style=""font-size:100px;"">X</div>","null","","","fixation","","","","","","","",""
"","","","","","audio-keyboard-response","196","372811","0.0-230.0","18","1","2023-10-31 19:10:55","a725c3012b74bf33a1020a98cb69c237","45.71.5.119","Mozilla/5.0 (Windows NT 10.0; Win64; x64) AppleWebKit/537.36 (KHTML, like Gecko) Chrome/118.0.0.0 Safari/537.36","WebKit","Chrome","118.0.0.0","Windows","10.0","null","es-ES,es;q=0.9,en;q=0.8,pt;q=0.7,it;q=0.6","true","null","tones/880hz_short.mp3","null","","","tone_number_task","102.5","cuarenta y nueve","tones/880hz_short.mp3","252.5","60","2","34",""
"","","","","","html-keyboard-response","197","373267","0.0-233.0-0.0","18","1","2023-10-31 19:10:55","a725c3012b74bf33a1020a98cb69c237","45.71.5.119","Mozilla/5.0 (Windows NT 10.0; Win64; x64) AppleWebKit/537.36 (KHTML, like Gecko) Chrome/118.0.0.0 Safari/537.36","WebKit","Chrome","118.0.0.0","Windows","10.0","null","es-ES,es;q=0.9,en;q=0.8,pt;q=0.7,it;q=0.6","true","447","tones/880hz_short.mp3","s","","","empty_block","","cuarenta y nueve","","","","2","34",""
"","","","","","html-keyboard-response","198","373897","0.0-233.0-1.0","18","1","2023-10-31 19:10:55","a725c3012b74bf33a1020a98cb69c237","45.71.5.119","Mozilla/5.0 (Windows NT 10.0; Win64; x64) AppleWebKit/537.36 (KHTML, like Gecko) Chrome/118.0.0.0 Safari/537.36","WebKit","Chrome","118.0.0.0","Windows","10.0","null","es-ES,es;q=0.9,en;q=0.8,pt;q=0.7,it;q=0.6","true","623","tones/880hz_short.mp3","k","","","empty_block","","cuarenta y nueve","","","","2","34",""
"","","","","","html-keyboard-response","199","376520","0.0-235.0","18","1","2023-10-31 19:10:55","a725c3012b74bf33a1020a98cb69c237","45.71.5.119","Mozilla/5.0 (Windows NT 10.0; Win64; x64) AppleWebKit/537.36 (KHTML, like Gecko) Chrome/118.0.0.0 Safari/537.36","WebKit","Chrome","118.0.0.0","Windows","10.0","null","es-ES,es;q=0.9,en;q=0.8,pt;q=0.7,it;q=0.6","true","null","<div style=""font-size:100px;"">X</div>","null","","","fixation","","","","","","","",""
"","","","","","audio-keyboard-response","200","376679","0.0-236.0","18","1","2023-10-31 19:10:55","a725c3012b74bf33a1020a98cb69c237","45.71.5.119","Mozilla/5.0 (Windows NT 10.0; Win64; x64) AppleWebKit/537.36 (KHTML, like Gecko) Chrome/118.0.0.0 Safari/537.36","WebKit","Chrome","118.0.0.0","Windows","10.0","null","es-ES,es;q=0.9,en;q=0.8,pt;q=0.7,it;q=0.6","true","null","tones/440hz_short.mp3","null","","","tone_number_task","0","treinta y ocho","tones/440hz_short.mp3","150","60","2","35",""
"","","","","","html-keyboard-response","201","377858","0.0-239.0-0.0","18","1","2023-10-31 19:10:55","a725c3012b74bf33a1020a98cb69c237","45.71.5.119","Mozilla/5.0 (Windows NT 10.0; Win64; x64) AppleWebKit/537.36 (KHTML, like Gecko) Chrome/118.0.0.0 Safari/537.36","WebKit","Chrome","118.0.0.0","Windows","10.0","null","es-ES,es;q=0.9,en;q=0.8,pt;q=0.7,it;q=0.6","true","1175","tones/440hz_short.mp3","a","","","empty_block","","treinta y ocho","","","","2","35",""
"","","","","","html-keyboard-response","202","378085","0.0-239.0-1.0","18","1","2023-10-31 19:10:55","a725c3012b74bf33a1020a98cb69c237","45.71.5.119","Mozilla/5.0 (Windows NT 10.0; Win64; x64) AppleWebKit/537.36 (KHTML, like Gecko) Chrome/118.0.0.0 Safari/537.36","WebKit","Chrome","118.0.0.0","Windows","10.0","null","es-ES,es;q=0.9,en;q=0.8,pt;q=0.7,it;q=0.6","true","219","tones/440hz_short.mp3","j","","","empty_block","","treinta y ocho","","","","2","35",""
"","","","","","html-keyboard-response","203","380709","0.0-241.0","18","1","2023-10-31 19:10:55","a725c3012b74bf33a1020a98cb69c237","45.71.5.119","Mozilla/5.0 (Windows NT 10.0; Win64; x64) AppleWebKit/537.36 (KHTML, like Gecko) Chrome/118.0.0.0 Safari/537.36","WebKit","Chrome","118.0.0.0","Windows","10.0","null","es-ES,es;q=0.9,en;q=0.8,pt;q=0.7,it;q=0.6","true","null","<div style=""font-size:100px;"">X</div>","null","","","fixation","","","","","","","",""
"","","","","","audio-keyboard-response","204","381401","0.0-242.0","18","1","2023-10-31 19:10:55","a725c3012b74bf33a1020a98cb69c237","45.71.5.119","Mozilla/5.0 (Windows NT 10.0; Win64; x64) AppleWebKit/537.36 (KHTML, like Gecko) Chrome/118.0.0.0 Safari/537.36","WebKit","Chrome","118.0.0.0","Windows","10.0","null","es-ES,es;q=0.9,en;q=0.8,pt;q=0.7,it;q=0.6","true","680","tones/880hz_short.mp3","s","","","tone_number_task","1025","sesenta y siete","tones/880hz_short.mp3","1175","60","2","36",""
"","","","","","html-keyboard-response","205","381757","0.0-243.0-0.0","18","1","2023-10-31 19:10:55","a725c3012b74bf33a1020a98cb69c237","45.71.5.119","Mozilla/5.0 (Windows NT 10.0; Win64; x64) AppleWebKit/537.36 (KHTML, like Gecko) Chrome/118.0.0.0 Safari/537.36","WebKit","Chrome","118.0.0.0","Windows","10.0","null","es-ES,es;q=0.9,en;q=0.8,pt;q=0.7,it;q=0.6","true","null","","null","","","delay_block","","","","","","2","36",""
