"success","timeout","failed_images","failed_audio","failed_video","trial_type","trial_index","time_elapsed","internal_node_id","run_id","condition","recorded_at","source_code_version","ip","user_agent","device","browser","browser_version","platform","platform_version","referer","accept_language","check","rt","stimulus","response","question_order","url","task","delay","number","audioFile","trial_duration","font_size","block","round","value"
"true","false","[]","[]","[]","preload","0","803","0.0-0.0","55","1","2023-11-01 12:36:17","a725c3012b74bf33a1020a98cb69c237","146.112.49.175","Mozilla/5.0 (Windows NT 10.0; Win64; x64) AppleWebKit/537.36 (KHTML, like Gecko) Chrome/118.0.0.0 Safari/537.36","WebKit","Chrome","118.0.0.0","Windows","10.0","null","es-US,es-419;q=0.9,es;q=0.8","true","","","","","","","","","","","","","",""
"true","","","","","fullscreen","1","6020","0.0-1.0","55","1","2023-11-01 12:36:17","a725c3012b74bf33a1020a98cb69c237","146.112.49.175","Mozilla/5.0 (Windows NT 10.0; Win64; x64) AppleWebKit/537.36 (KHTML, like Gecko) Chrome/118.0.0.0 Safari/537.36","WebKit","Chrome","118.0.0.0","Windows","10.0","null","es-US,es-419;q=0.9,es;q=0.8","true","","","","","","","","","","","","","",""
"","","","","","html-button-response","2","8360","0.0-2.0","55","1","2023-11-01 12:36:17","a725c3012b74bf33a1020a98cb69c237","146.112.49.175","Mozilla/5.0 (Windows NT 10.0; Win64; x64) AppleWebKit/537.36 (KHTML, like Gecko) Chrome/118.0.0.0 Safari/537.36","WebKit","Chrome","118.0.0.0","Windows","10.0","null","es-US,es-419;q=0.9,es;q=0.8","true","2337","<p style=""font-size:24px; color:red;"">Cosas importantes a tener en cuenta antes de comenzar el experimento:</p>","0","","","","","","","","","","",""
"","","","","","html-button-response","3","14504","0.0-3.0","55","1","2023-11-01 12:36:17","a725c3012b74bf33a1020a98cb69c237","146.112.49.175","Mozilla/5.0 (Windows NT 10.0; Win64; x64) AppleWebKit/537.36 (KHTML, like Gecko) Chrome/118.0.0.0 Safari/537.36","WebKit","Chrome","118.0.0.0","Windows","10.0","null","es-US,es-419;q=0.9,es;q=0.8","true","6143","<p style=""font-size:24px;"">El experimento dura aproximadamente 15 minutos.</p><p style=""font-size:24px;"">Por favor, no cierres la ventana del navegador durante el experimento.</p><p style=""font-size:24px;"">Si se completa de forma parcial, no se guardará ningún resultado.</p>","0","","","","","","","","","","",""
"","","","","","html-button-response","4","28563","0.0-4.0","55","1","2023-11-01 12:36:17","a725c3012b74bf33a1020a98cb69c237","146.112.49.175","Mozilla/5.0 (Windows NT 10.0; Win64; x64) AppleWebKit/537.36 (KHTML, like Gecko) Chrome/118.0.0.0 Safari/537.36","WebKit","Chrome","118.0.0.0","Windows","10.0","null","es-US,es-419;q=0.9,es;q=0.8","true","14058","<p style=""font-size:24px;"">El experimento contiene estímulos sonoros.</p>","0","","","","","","","","","","",""
"","","","","","audio-button-response","5","33081","0.0-5.0-0.0","55","1","2023-11-01 12:36:17","a725c3012b74bf33a1020a98cb69c237","146.112.49.175","Mozilla/5.0 (Windows NT 10.0; Win64; x64) AppleWebKit/537.36 (KHTML, like Gecko) Chrome/118.0.0.0 Safari/537.36","WebKit","Chrome","118.0.0.0","Windows","10.0","null","es-US,es-419;q=0.9,es;q=0.8","true","4069","tones/440hz_short.mp3","0","","","","","","","","","","",""
"","","","","","audio-button-response","6","39277","0.0-5.1-0.1","55","1","2023-11-01 12:36:17","a725c3012b74bf33a1020a98cb69c237","146.112.49.175","Mozilla/5.0 (Windows NT 10.0; Win64; x64) AppleWebKit/537.36 (KHTML, like Gecko) Chrome/118.0.0.0 Safari/537.36","WebKit","Chrome","118.0.0.0","Windows","10.0","null","es-US,es-419;q=0.9,es;q=0.8","true","5091","tones/440hz_short.mp3","0","","","","","","","","","","",""
"","","","","","audio-button-response","7","42473","0.0-5.2-0.2","55","1","2023-11-01 12:36:17","a725c3012b74bf33a1020a98cb69c237","146.112.49.175","Mozilla/5.0 (Windows NT 10.0; Win64; x64) AppleWebKit/537.36 (KHTML, like Gecko) Chrome/118.0.0.0 Safari/537.36","WebKit","Chrome","118.0.0.0","Windows","10.0","null","es-US,es-419;q=0.9,es;q=0.8","true","2571","tones/440hz_short.mp3","0","","","","","","","","","","",""
"","","","","","audio-button-response","8","47242","0.0-5.3-0.3","55","1","2023-11-01 12:36:17","a725c3012b74bf33a1020a98cb69c237","146.112.49.175","Mozilla/5.0 (Windows NT 10.0; Win64; x64) AppleWebKit/537.36 (KHTML, like Gecko) Chrome/118.0.0.0 Safari/537.36","WebKit","Chrome","118.0.0.0","Windows","10.0","null","es-US,es-419;q=0.9,es;q=0.8","true","4379","tones/440hz_short.mp3","0","","","","","","","","","","",""
"","","","","","audio-button-response","9","49288","0.0-5.4-0.4","55","1","2023-11-01 12:36:17","a725c3012b74bf33a1020a98cb69c237","146.112.49.175","Mozilla/5.0 (Windows NT 10.0; Win64; x64) AppleWebKit/537.36 (KHTML, like Gecko) Chrome/118.0.0.0 Safari/537.36","WebKit","Chrome","118.0.0.0","Windows","10.0","null","es-US,es-419;q=0.9,es;q=0.8","true","2040","tones/440hz_short.mp3","0","","","","","","","","","","",""
"","","","","","audio-button-response","10","50312","0.0-5.5-0.5","55","1","2023-11-01 12:36:17","a725c3012b74bf33a1020a98cb69c237","146.112.49.175","Mozilla/5.0 (Windows NT 10.0; Win64; x64) AppleWebKit/537.36 (KHTML, like Gecko) Chrome/118.0.0.0 Safari/537.36","WebKit","Chrome","118.0.0.0","Windows","10.0","null","es-US,es-419;q=0.9,es;q=0.8","true","1029","tones/440hz_short.mp3","1","","","","","","","","","","",""
"","","","","","audio-button-response","11","52798","0.0-6.0-0.0","55","1","2023-11-01 12:36:17","a725c3012b74bf33a1020a98cb69c237","146.112.49.175","Mozilla/5.0 (Windows NT 10.0; Win64; x64) AppleWebKit/537.36 (KHTML, like Gecko) Chrome/118.0.0.0 Safari/537.36","WebKit","Chrome","118.0.0.0","Windows","10.0","null","es-US,es-419;q=0.9,es;q=0.8","true","2480","tones/880hz_short.mp3","1","","","","","","","","","","",""
"","","","","","survey-html-form","12","58550","0.0-7.0","55","1","2023-11-01 12:36:17","a725c3012b74bf33a1020a98cb69c237","146.112.49.175","Mozilla/5.0 (Windows NT 10.0; Win64; x64) AppleWebKit/537.36 (KHTML, like Gecko) Chrome/118.0.0.0 Safari/537.36","WebKit","Chrome","118.0.0.0","Windows","10.0","null","es-US,es-419;q=0.9,es;q=0.8","true","5747","","{""response"":""48""}","","","","","","","","","","",""
"","","","","","survey-multi-choice","13","64481","0.0-8.0","55","1","2023-11-01 12:36:17","a725c3012b74bf33a1020a98cb69c237","146.112.49.175","Mozilla/5.0 (Windows NT 10.0; Win64; x64) AppleWebKit/537.36 (KHTML, like Gecko) Chrome/118.0.0.0 Safari/537.36","WebKit","Chrome","118.0.0.0","Windows","10.0","null","es-US,es-419;q=0.9,es;q=0.8","true","5928","","{""gender"":""Hombre"",""hand"":""Derecha""}","[0,1]","","","","","","","","","",""
"","","","","","external-html","14","153126","0.0-9.0","55","1","2023-11-01 12:36:17","a725c3012b74bf33a1020a98cb69c237","146.112.49.175","Mozilla/5.0 (Windows NT 10.0; Win64; x64) AppleWebKit/537.36 (KHTML, like Gecko) Chrome/118.0.0.0 Safari/537.36","WebKit","Chrome","118.0.0.0","Windows","10.0","null","es-US,es-419;q=0.9,es;q=0.8","true","88328","","","","instructions/instructions.html","","","","","","","","",""
"","","","","","external-html","15","200777","0.0-10.0","55","1","2023-11-01 12:36:17","a725c3012b74bf33a1020a98cb69c237","146.112.49.175","Mozilla/5.0 (Windows NT 10.0; Win64; x64) AppleWebKit/537.36 (KHTML, like Gecko) Chrome/118.0.0.0 Safari/537.36","WebKit","Chrome","118.0.0.0","Windows","10.0","null","es-US,es-419;q=0.9,es;q=0.8","true","47346","","","","instructions/animation.html","","","","","","","","",""
"","","","","","html-keyboard-response","16","203717","0.0-11.0-0.0","55","1","2023-11-01 12:36:17","a725c3012b74bf33a1020a98cb69c237","146.112.49.175","Mozilla/5.0 (Windows NT 10.0; Win64; x64) AppleWebKit/537.36 (KHTML, like Gecko) Chrome/118.0.0.0 Safari/537.36","WebKit","Chrome","118.0.0.0","Windows","10.0","null","es-US,es-419;q=0.9,es;q=0.8","true","null","<div style=""font-size:100px;"">X</div>","null","","","fixation","","","","","","","",""
"","","","","","audio-keyboard-response","17","204872","0.0-11.0-1.0","55","1","2023-11-01 12:36:17","a725c3012b74bf33a1020a98cb69c237","146.112.49.175","Mozilla/5.0 (Windows NT 10.0; Win64; x64) AppleWebKit/537.36 (KHTML, like Gecko) Chrome/118.0.0.0 Safari/537.36","WebKit","Chrome","118.0.0.0","Windows","10.0","null","es-US,es-419;q=0.9,es;q=0.8","true","null","tones/440hz_short.mp3","null","","","tone_number_task","1000","22","tones/440hz_short.mp3","1150","100","null","null",""
"","","","","","html-keyboard-response","18","206158","0.0-11.0-4.0-0.0","55","1","2023-11-01 12:36:17","a725c3012b74bf33a1020a98cb69c237","146.112.49.175","Mozilla/5.0 (Windows NT 10.0; Win64; x64) AppleWebKit/537.36 (KHTML, like Gecko) Chrome/118.0.0.0 Safari/537.36","WebKit","Chrome","118.0.0.0","Windows","10.0","null","es-US,es-419;q=0.9,es;q=0.8","true","1284","tones/440hz_short.mp3","j","","","empty_block","","22","","","","null","null",""
"","","","","","html-keyboard-response","19","216161","0.0-11.0-4.0-1.0","55","1","2023-11-01 12:36:17","a725c3012b74bf33a1020a98cb69c237","146.112.49.175","Mozilla/5.0 (Windows NT 10.0; Win64; x64) AppleWebKit/537.36 (KHTML, like Gecko) Chrome/118.0.0.0 Safari/537.36","WebKit","Chrome","118.0.0.0","Windows","10.0","null","es-US,es-419;q=0.9,es;q=0.8","true","null","tones/440hz_short.mp3","null","","","empty_block","","22","","","","null","null",""
"","","","","","html-keyboard-response","20","219097","0.0-13.0-0.0","55","1","2023-11-01 12:36:17","a725c3012b74bf33a1020a98cb69c237","146.112.49.175","Mozilla/5.0 (Windows NT 10.0; Win64; x64) AppleWebKit/537.36 (KHTML, like Gecko) Chrome/118.0.0.0 Safari/537.36","WebKit","Chrome","118.0.0.0","Windows","10.0","null","es-US,es-419;q=0.9,es;q=0.8","true","null","<div style=""font-size:100px;"">X</div>","null","","","fixation","","","","","","","",""
"","","","","","audio-keyboard-response","21","219750","0.0-13.0-1.0","55","1","2023-11-01 12:36:17","a725c3012b74bf33a1020a98cb69c237","146.112.49.175","Mozilla/5.0 (Windows NT 10.0; Win64; x64) AppleWebKit/537.36 (KHTML, like Gecko) Chrome/118.0.0.0 Safari/537.36","WebKit","Chrome","118.0.0.0","Windows","10.0","null","es-US,es-419;q=0.9,es;q=0.8","true","null","tones/440hz_short.mp3","null","","","tone_number_task","500","33","tones/440hz_short.mp3","650","100","null","null",""
"","","","","","html-keyboard-response","22","229752","0.0-13.0-4.0-0.0","55","1","2023-11-01 12:36:17","a725c3012b74bf33a1020a98cb69c237","146.112.49.175","Mozilla/5.0 (Windows NT 10.0; Win64; x64) AppleWebKit/537.36 (KHTML, like Gecko) Chrome/118.0.0.0 Safari/537.36","WebKit","Chrome","118.0.0.0","Windows","10.0","null","es-US,es-419;q=0.9,es;q=0.8","true","null","tones/440hz_short.mp3","null","","","empty_block","","33","","","","null","null",""
"","","","","","html-keyboard-response","23","239756","0.0-13.0-4.0-1.0","55","1","2023-11-01 12:36:17","a725c3012b74bf33a1020a98cb69c237","146.112.49.175","Mozilla/5.0 (Windows NT 10.0; Win64; x64) AppleWebKit/537.36 (KHTML, like Gecko) Chrome/118.0.0.0 Safari/537.36","WebKit","Chrome","118.0.0.0","Windows","10.0","null","es-US,es-419;q=0.9,es;q=0.8","true","null","tones/440hz_short.mp3","null","","","empty_block","","33","","","","null","null",""
"","","","","","html-keyboard-response","24","242691","0.0-15.0-0.0","55","1","2023-11-01 12:36:17","a725c3012b74bf33a1020a98cb69c237","146.112.49.175","Mozilla/5.0 (Windows NT 10.0; Win64; x64) AppleWebKit/537.36 (KHTML, like Gecko) Chrome/118.0.0.0 Safari/537.36","WebKit","Chrome","118.0.0.0","Windows","10.0","null","es-US,es-419;q=0.9,es;q=0.8","true","null","<div style=""font-size:100px;"">X</div>","null","","","fixation","","","","","","","",""
"","","","","","audio-keyboard-response","25","242995","0.0-15.0-1.0","55","1","2023-11-01 12:36:17","a725c3012b74bf33a1020a98cb69c237","146.112.49.175","Mozilla/5.0 (Windows NT 10.0; Win64; x64) AppleWebKit/537.36 (KHTML, like Gecko) Chrome/118.0.0.0 Safari/537.36","WebKit","Chrome","118.0.0.0","Windows","10.0","null","es-US,es-419;q=0.9,es;q=0.8","true","null","tones/880hz_short.mp3","null","","","tone_number_task","150","57","tones/880hz_short.mp3","300","100","null","null",""
"","","","","","html-keyboard-response","26","252999","0.0-15.0-4.0-0.0","55","1","2023-11-01 12:36:17","a725c3012b74bf33a1020a98cb69c237","146.112.49.175","Mozilla/5.0 (Windows NT 10.0; Win64; x64) AppleWebKit/537.36 (KHTML, like Gecko) Chrome/118.0.0.0 Safari/537.36","WebKit","Chrome","118.0.0.0","Windows","10.0","null","es-US,es-419;q=0.9,es;q=0.8","true","null","tones/880hz_short.mp3","null","","","empty_block","","57","","","","null","null",""
"","","","","","html-keyboard-response","27","263001","0.0-15.0-4.0-1.0","55","1","2023-11-01 12:36:17","a725c3012b74bf33a1020a98cb69c237","146.112.49.175","Mozilla/5.0 (Windows NT 10.0; Win64; x64) AppleWebKit/537.36 (KHTML, like Gecko) Chrome/118.0.0.0 Safari/537.36","WebKit","Chrome","118.0.0.0","Windows","10.0","null","es-US,es-419;q=0.9,es;q=0.8","true","null","tones/880hz_short.mp3","null","","","empty_block","","57","","","","null","null",""
"","","","","","html-keyboard-response","28","265937","0.0-17.0-0.0","55","1","2023-11-01 12:36:17","a725c3012b74bf33a1020a98cb69c237","146.112.49.175","Mozilla/5.0 (Windows NT 10.0; Win64; x64) AppleWebKit/537.36 (KHTML, like Gecko) Chrome/118.0.0.0 Safari/537.36","WebKit","Chrome","118.0.0.0","Windows","10.0","null","es-US,es-419;q=0.9,es;q=0.8","true","null","<div style=""font-size:100px;"">X</div>","null","","","fixation","","","","","","","",""
"","","","","","audio-keyboard-response","29","266139","0.0-17.0-1.0","55","1","2023-11-01 12:36:17","a725c3012b74bf33a1020a98cb69c237","146.112.49.175","Mozilla/5.0 (Windows NT 10.0; Win64; x64) AppleWebKit/537.36 (KHTML, like Gecko) Chrome/118.0.0.0 Safari/537.36","WebKit","Chrome","118.0.0.0","Windows","10.0","null","es-US,es-419;q=0.9,es;q=0.8","true","null","tones/440hz_short.mp3","null","","","tone_number_task","50","44","tones/440hz_short.mp3","200","100","null","null",""
"","","","","","html-keyboard-response","30","276142","0.0-17.0-4.0-0.0","55","1","2023-11-01 12:36:17","a725c3012b74bf33a1020a98cb69c237","146.112.49.175","Mozilla/5.0 (Windows NT 10.0; Win64; x64) AppleWebKit/537.36 (KHTML, like Gecko) Chrome/118.0.0.0 Safari/537.36","WebKit","Chrome","118.0.0.0","Windows","10.0","null","es-US,es-419;q=0.9,es;q=0.8","true","null","tones/440hz_short.mp3","null","","","empty_block","","44","","","","null","null",""
"","","","","","html-keyboard-response","31","286145","0.0-17.0-4.0-1.0","55","1","2023-11-01 12:36:17","a725c3012b74bf33a1020a98cb69c237","146.112.49.175","Mozilla/5.0 (Windows NT 10.0; Win64; x64) AppleWebKit/537.36 (KHTML, like Gecko) Chrome/118.0.0.0 Safari/537.36","WebKit","Chrome","118.0.0.0","Windows","10.0","null","es-US,es-419;q=0.9,es;q=0.8","true","null","tones/440hz_short.mp3","null","","","empty_block","","44","","","","null","null",""
"","","","","","html-button-response","32","294695","0.0-19.0","55","1","2023-11-01 12:36:17","a725c3012b74bf33a1020a98cb69c237","146.112.49.175","Mozilla/5.0 (Windows NT 10.0; Win64; x64) AppleWebKit/537.36 (KHTML, like Gecko) Chrome/118.0.0.0 Safari/537.36","WebKit","Chrome","118.0.0.0","Windows","10.0","null","es-US,es-419;q=0.9,es;q=0.8","true","8548","
  <h1> Muy bien </h1>
  <p> Ahora, en vez de ser presentados en dígitos, los números vendrán escritos en palabras. </p>
  <p> Por ejemplo, en vez de 44 te aparecerá ""cuarenta y cuatro"". </p>
  ","0","","","","","","","","","","",""
"","","","","","html-keyboard-response","33","297631","0.0-20.0-0.0","55","1","2023-11-01 12:36:17","a725c3012b74bf33a1020a98cb69c237","146.112.49.175","Mozilla/5.0 (Windows NT 10.0; Win64; x64) AppleWebKit/537.36 (KHTML, like Gecko) Chrome/118.0.0.0 Safari/537.36","WebKit","Chrome","118.0.0.0","Windows","10.0","null","es-US,es-419;q=0.9,es;q=0.8","true","null","<div style=""font-size:100px;"">X</div>","null","","","fixation","","","","","","","",""
"","","","","","audio-keyboard-response","34","298784","0.0-20.0-1.0","55","1","2023-11-01 12:36:17","a725c3012b74bf33a1020a98cb69c237","146.112.49.175","Mozilla/5.0 (Windows NT 10.0; Win64; x64) AppleWebKit/537.36 (KHTML, like Gecko) Chrome/118.0.0.0 Safari/537.36","WebKit","Chrome","118.0.0.0","Windows","10.0","null","es-US,es-419;q=0.9,es;q=0.8","true","null","tones/880hz_short.mp3","null","","","tone_number_task","1000","cincuenta y ocho","tones/880hz_short.mp3","1150","60","null","null",""
"","","","","","html-keyboard-response","35","300673","0.0-20.0-4.0-0.0","55","1","2023-11-01 12:36:17","a725c3012b74bf33a1020a98cb69c237","146.112.49.175","Mozilla/5.0 (Windows NT 10.0; Win64; x64) AppleWebKit/537.36 (KHTML, like Gecko) Chrome/118.0.0.0 Safari/537.36","WebKit","Chrome","118.0.0.0","Windows","10.0","null","es-US,es-419;q=0.9,es;q=0.8","true","1888","tones/880hz_short.mp3","s","","","empty_block","","cincuenta y ocho","","","","null","null",""
"","","","","","html-keyboard-response","36","301515","0.0-20.0-4.0-1.0","55","1","2023-11-01 12:36:17","a725c3012b74bf33a1020a98cb69c237","146.112.49.175","Mozilla/5.0 (Windows NT 10.0; Win64; x64) AppleWebKit/537.36 (KHTML, like Gecko) Chrome/118.0.0.0 Safari/537.36","WebKit","Chrome","118.0.0.0","Windows","10.0","null","es-US,es-419;q=0.9,es;q=0.8","true","842","tones/880hz_short.mp3","k","","","empty_block","","cincuenta y ocho","","","","null","null",""
"","","","","","html-button-response","37","316671","0.0-22.0","55","1","2023-11-01 12:36:17","a725c3012b74bf33a1020a98cb69c237","146.112.49.175","Mozilla/5.0 (Windows NT 10.0; Win64; x64) AppleWebKit/537.36 (KHTML, like Gecko) Chrome/118.0.0.0 Safari/537.36","WebKit","Chrome","118.0.0.0","Windows","10.0","null","es-US,es-419;q=0.9,es;q=0.8","true","15154","
  <h1> Fin del Entrenamiento </h1>
  <p> ¡Felicitaciones, terminaste el entrenamiento! Ahora vamos a comenzar con el experimento. </p>
  <p> Es importante tener en cuenta que consta de cuatro bloques.</p>
  <p> Podés aprovechar los momentos entre bloques para tomar un breve descanso o tomar agua entre cada uno</p>
  <p> Recordá que tenés que responder lo más rápido que puedas, pero sin equivocarte. </p>
  ","0","","","","","","","","","","",""
"","","","","","external-html","38","351682","0.0-23.0","55","1","2023-11-01 12:36:17","a725c3012b74bf33a1020a98cb69c237","146.112.49.175","Mozilla/5.0 (Windows NT 10.0; Win64; x64) AppleWebKit/537.36 (KHTML, like Gecko) Chrome/118.0.0.0 Safari/537.36","WebKit","Chrome","118.0.0.0","Windows","10.0","null","es-US,es-419;q=0.9,es;q=0.8","true","34718","","","","instructions/instructions_words_first.html","","","","","","","","",""
"","","","","","call-function","39","351686","0.0-24.0","55","1","2023-11-01 12:36:17","a725c3012b74bf33a1020a98cb69c237","146.112.49.175","Mozilla/5.0 (Windows NT 10.0; Win64; x64) AppleWebKit/537.36 (KHTML, like Gecko) Chrome/118.0.0.0 Safari/537.36","WebKit","Chrome","118.0.0.0","Windows","10.0","null","es-US,es-419;q=0.9,es;q=0.8","true","","","","","","","","","","","","","",""
"","","","","","html-keyboard-response","40","354621","0.0-25.0","55","1","2023-11-01 12:36:17","a725c3012b74bf33a1020a98cb69c237","146.112.49.175","Mozilla/5.0 (Windows NT 10.0; Win64; x64) AppleWebKit/537.36 (KHTML, like Gecko) Chrome/118.0.0.0 Safari/537.36","WebKit","Chrome","118.0.0.0","Windows","10.0","null","es-US,es-419;q=0.9,es;q=0.8","true","null","<div style=""font-size:100px;"">X</div>","null","","","fixation","","","","","","","",""
"","","","","","audio-keyboard-response","41","355799","0.0-26.0","55","1","2023-11-01 12:36:17","a725c3012b74bf33a1020a98cb69c237","146.112.49.175","Mozilla/5.0 (Windows NT 10.0; Win64; x64) AppleWebKit/537.36 (KHTML, like Gecko) Chrome/118.0.0.0 Safari/537.36","WebKit","Chrome","118.0.0.0","Windows","10.0","null","es-US,es-419;q=0.9,es;q=0.8","true","null","tones/880hz_short.mp3","null","","","tone_number_task","1025","veinticinco","tones/880hz_short.mp3","1175","60","2","0",""
"","","","","","html-keyboard-response","42","356549","0.0-29.0-0.0","55","1","2023-11-01 12:36:17","a725c3012b74bf33a1020a98cb69c237","146.112.49.175","Mozilla/5.0 (Windows NT 10.0; Win64; x64) AppleWebKit/537.36 (KHTML, like Gecko) Chrome/118.0.0.0 Safari/537.36","WebKit","Chrome","118.0.0.0","Windows","10.0","null","es-US,es-419;q=0.9,es;q=0.8","true","749","tones/880hz_short.mp3","s","","","empty_block","","veinticinco","","","","2","0",""
"","","","","","html-keyboard-response","43","357405","0.0-29.0-1.0","55","1","2023-11-01 12:36:17","a725c3012b74bf33a1020a98cb69c237","146.112.49.175","Mozilla/5.0 (Windows NT 10.0; Win64; x64) AppleWebKit/537.36 (KHTML, like Gecko) Chrome/118.0.0.0 Safari/537.36","WebKit","Chrome","118.0.0.0","Windows","10.0","null","es-US,es-419;q=0.9,es;q=0.8","true","855","tones/880hz_short.mp3","j","","","empty_block","","veinticinco","","","","2","0",""
"","","","","","html-keyboard-response","44","360341","0.0-31.0","55","1","2023-11-01 12:36:17","a725c3012b74bf33a1020a98cb69c237","146.112.49.175","Mozilla/5.0 (Windows NT 10.0; Win64; x64) AppleWebKit/537.36 (KHTML, like Gecko) Chrome/118.0.0.0 Safari/537.36","WebKit","Chrome","118.0.0.0","Windows","10.0","null","es-US,es-419;q=0.9,es;q=0.8","true","null","<div style=""font-size:100px;"">X</div>","null","","","fixation","","","","","","","",""
"","","","","","audio-keyboard-response","45","361520","0.0-32.0","55","1","2023-11-01 12:36:17","a725c3012b74bf33a1020a98cb69c237","146.112.49.175","Mozilla/5.0 (Windows NT 10.0; Win64; x64) AppleWebKit/537.36 (KHTML, like Gecko) Chrome/118.0.0.0 Safari/537.36","WebKit","Chrome","118.0.0.0","Windows","10.0","null","es-US,es-419;q=0.9,es;q=0.8","true","null","tones/880hz_short.mp3","null","","","tone_number_task","1025","veintiuno","tones/880hz_short.mp3","1175","60","2","1",""
"","","","","","html-keyboard-response","46","362009","0.0-35.0-0.0","55","1","2023-11-01 12:36:17","a725c3012b74bf33a1020a98cb69c237","146.112.49.175","Mozilla/5.0 (Windows NT 10.0; Win64; x64) AppleWebKit/537.36 (KHTML, like Gecko) Chrome/118.0.0.0 Safari/537.36","WebKit","Chrome","118.0.0.0","Windows","10.0","null","es-US,es-419;q=0.9,es;q=0.8","true","488","tones/880hz_short.mp3","s","","","empty_block","","veintiuno","","","","2","1",""
"","","","","","html-keyboard-response","47","362797","0.0-35.0-1.0","55","1","2023-11-01 12:36:17","a725c3012b74bf33a1020a98cb69c237","146.112.49.175","Mozilla/5.0 (Windows NT 10.0; Win64; x64) AppleWebKit/537.36 (KHTML, like Gecko) Chrome/118.0.0.0 Safari/537.36","WebKit","Chrome","118.0.0.0","Windows","10.0","null","es-US,es-419;q=0.9,es;q=0.8","true","786","tones/880hz_short.mp3","j","","","empty_block","","veintiuno","","","","2","1",""
"","","","","","html-keyboard-response","48","365732","0.0-37.0","55","1","2023-11-01 12:36:17","a725c3012b74bf33a1020a98cb69c237","146.112.49.175","Mozilla/5.0 (Windows NT 10.0; Win64; x64) AppleWebKit/537.36 (KHTML, like Gecko) Chrome/118.0.0.0 Safari/537.36","WebKit","Chrome","118.0.0.0","Windows","10.0","null","es-US,es-419;q=0.9,es;q=0.8","true","null","<div style=""font-size:100px;"">X</div>","null","","","fixation","","","","","","","",""
"","","","","","audio-keyboard-response","49","365988","0.0-38.0","55","1","2023-11-01 12:36:17","a725c3012b74bf33a1020a98cb69c237","146.112.49.175","Mozilla/5.0 (Windows NT 10.0; Win64; x64) AppleWebKit/537.36 (KHTML, like Gecko) Chrome/118.0.0.0 Safari/537.36","WebKit","Chrome","118.0.0.0","Windows","10.0","null","es-US,es-419;q=0.9,es;q=0.8","true","null","tones/880hz_short.mp3","null","","","tone_number_task","102.5","sesenta y cinco","tones/880hz_short.mp3","252.5","60","2","2",""
"","","","","","html-keyboard-response","50","367192","0.0-41.0-0.0","55","1","2023-11-01 12:36:17","a725c3012b74bf33a1020a98cb69c237","146.112.49.175","Mozilla/5.0 (Windows NT 10.0; Win64; x64) AppleWebKit/537.36 (KHTML, like Gecko) Chrome/118.0.0.0 Safari/537.36","WebKit","Chrome","118.0.0.0","Windows","10.0","null","es-US,es-419;q=0.9,es;q=0.8","true","null","tones/880hz_short.mp3","null","","","empty_block","","sesenta y cinco","","","","2","2",""
"","","","","","html-keyboard-response","51","367687","0.0-41.0-1.0","55","1","2023-11-01 12:36:17","a725c3012b74bf33a1020a98cb69c237","146.112.49.175","Mozilla/5.0 (Windows NT 10.0; Win64; x64) AppleWebKit/537.36 (KHTML, like Gecko) Chrome/118.0.0.0 Safari/537.36","WebKit","Chrome","118.0.0.0","Windows","10.0","null","es-US,es-419;q=0.9,es;q=0.8","true","494","tones/880hz_short.mp3","s","","","empty_block","","sesenta y cinco","","","","2","2",""
"","","","","","html-keyboard-response","52","370624","0.0-43.0","55","1","2023-11-01 12:36:17","a725c3012b74bf33a1020a98cb69c237","146.112.49.175","Mozilla/5.0 (Windows NT 10.0; Win64; x64) AppleWebKit/537.36 (KHTML, like Gecko) Chrome/118.0.0.0 Safari/537.36","WebKit","Chrome","118.0.0.0","Windows","10.0","null","es-US,es-419;q=0.9,es;q=0.8","true","null","<div style=""font-size:100px;"">X</div>","null","","","fixation","","","","","","","",""
"","","","","","audio-keyboard-response","53","371640","0.0-44.0","55","1","2023-11-01 12:36:17","a725c3012b74bf33a1020a98cb69c237","146.112.49.175","Mozilla/5.0 (Windows NT 10.0; Win64; x64) AppleWebKit/537.36 (KHTML, like Gecko) Chrome/118.0.0.0 Safari/537.36","WebKit","Chrome","118.0.0.0","Windows","10.0","null","es-US,es-419;q=0.9,es;q=0.8","true","1011","tones/880hz_short.mp3","s","","","tone_number_task","1025","cuarenta y nueve","tones/880hz_short.mp3","1175","60","2","3",""
"","","","","","html-keyboard-response","54","371657","0.0-45.0-0.0","55","1","2023-11-01 12:36:17","a725c3012b74bf33a1020a98cb69c237","146.112.49.175","Mozilla/5.0 (Windows NT 10.0; Win64; x64) AppleWebKit/537.36 (KHTML, like Gecko) Chrome/118.0.0.0 Safari/537.36","WebKit","Chrome","118.0.0.0","Windows","10.0","null","es-US,es-419;q=0.9,es;q=0.8","true","null","","null","","","delay_block","","","","","","2","3",""
"","","","","","html-keyboard-response","55","371810","0.0-45.0-1.0","55","1","2023-11-01 12:36:17","a725c3012b74bf33a1020a98cb69c237","146.112.49.175","Mozilla/5.0 (Windows NT 10.0; Win64; x64) AppleWebKit/537.36 (KHTML, like Gecko) Chrome/118.0.0.0 Safari/537.36","WebKit","Chrome","118.0.0.0","Windows","10.0","null","es-US,es-419;q=0.9,es;q=0.8","true","null","<p id=""stimulus"" style=""font-size:60px;"">cuarenta y nueve</p>","null","","","tone_number_task_remaining_before_delay","","cuarenta y nueve","","164","60","2","3",""
"","","","","","html-keyboard-response","56","372642","0.0-48.0-0.0","55","1","2023-11-01 12:36:17","a725c3012b74bf33a1020a98cb69c237","146.112.49.175","Mozilla/5.0 (Windows NT 10.0; Win64; x64) AppleWebKit/537.36 (KHTML, like Gecko) Chrome/118.0.0.0 Safari/537.36","WebKit","Chrome","118.0.0.0","Windows","10.0","null","es-US,es-419;q=0.9,es;q=0.8","true","829","<p id=""stimulus"" style=""font-size:60px;"">cuarenta y nueve</p>","k","","","empty_block","","cuarenta y nueve","","","","2","3",""
"","","","","","html-keyboard-response","57","375578","0.0-49.0","55","1","2023-11-01 12:36:17","a725c3012b74bf33a1020a98cb69c237","146.112.49.175","Mozilla/5.0 (Windows NT 10.0; Win64; x64) AppleWebKit/537.36 (KHTML, like Gecko) Chrome/118.0.0.0 Safari/537.36","WebKit","Chrome","118.0.0.0","Windows","10.0","null","es-US,es-419;q=0.9,es;q=0.8","true","null","<div style=""font-size:100px;"">X</div>","null","","","fixation","","","","","","","",""
"","","","","","audio-keyboard-response","58","376406","0.0-50.0","55","1","2023-11-01 12:36:17","a725c3012b74bf33a1020a98cb69c237","146.112.49.175","Mozilla/5.0 (Windows NT 10.0; Win64; x64) AppleWebKit/537.36 (KHTML, like Gecko) Chrome/118.0.0.0 Safari/537.36","WebKit","Chrome","118.0.0.0","Windows","10.0","null","es-US,es-419;q=0.9,es;q=0.8","true","829","tones/880hz_short.mp3","s","","","tone_number_task","992.5","treinta y ocho","tones/880hz_short.mp3","1142.5","60","2","4",""
"","","","","","html-keyboard-response","59","376571","0.0-51.0-0.0","55","1","2023-11-01 12:36:17","a725c3012b74bf33a1020a98cb69c237","146.112.49.175","Mozilla/5.0 (Windows NT 10.0; Win64; x64) AppleWebKit/537.36 (KHTML, like Gecko) Chrome/118.0.0.0 Safari/537.36","WebKit","Chrome","118.0.0.0","Windows","10.0","null","es-US,es-419;q=0.9,es;q=0.8","true","null","","null","","","delay_block","","","","","","2","4",""
"","","","","","html-keyboard-response","60","376723","0.0-51.0-1.0","55","1","2023-11-01 12:36:17","a725c3012b74bf33a1020a98cb69c237","146.112.49.175","Mozilla/5.0 (Windows NT 10.0; Win64; x64) AppleWebKit/537.36 (KHTML, like Gecko) Chrome/118.0.0.0 Safari/537.36","WebKit","Chrome","118.0.0.0","Windows","10.0","null","es-US,es-419;q=0.9,es;q=0.8","true","null","<p id=""stimulus"" style=""font-size:60px;"">treinta y ocho</p>","null","","","tone_number_task_remaining_before_delay","","treinta y ocho","","313.5","60","2","4",""
"","","","","","html-keyboard-response","61","377349","0.0-54.0-0.0","55","1","2023-11-01 12:36:17","a725c3012b74bf33a1020a98cb69c237","146.112.49.175","Mozilla/5.0 (Windows NT 10.0; Win64; x64) AppleWebKit/537.36 (KHTML, like Gecko) Chrome/118.0.0.0 Safari/537.36","WebKit","Chrome","118.0.0.0","Windows","10.0","null","es-US,es-419;q=0.9,es;q=0.8","true","625","<p id=""stimulus"" style=""font-size:60px;"">treinta y ocho</p>","j","","","empty_block","","treinta y ocho","","","","2","4",""
"","","","","","html-keyboard-response","62","380286","0.0-55.0","55","1","2023-11-01 12:36:17","a725c3012b74bf33a1020a98cb69c237","146.112.49.175","Mozilla/5.0 (Windows NT 10.0; Win64; x64) AppleWebKit/537.36 (KHTML, like Gecko) Chrome/118.0.0.0 Safari/537.36","WebKit","Chrome","118.0.0.0","Windows","10.0","null","es-US,es-419;q=0.9,es;q=0.8","true","null","<div style=""font-size:100px;"">X</div>","null","","","fixation","","","","","","","",""
"","","","","","audio-keyboard-response","63","381205","0.0-56.0","55","1","2023-11-01 12:36:17","a725c3012b74bf33a1020a98cb69c237","146.112.49.175","Mozilla/5.0 (Windows NT 10.0; Win64; x64) AppleWebKit/537.36 (KHTML, like Gecko) Chrome/118.0.0.0 Safari/537.36","WebKit","Chrome","118.0.0.0","Windows","10.0","null","es-US,es-419;q=0.9,es;q=0.8","true","920","tones/440hz_short.mp3","a","","","tone_number_task","992.5","cuarenta y seis","tones/440hz_short.mp3","1142.5","60","2","5",""
"","","","","","html-keyboard-response","64","381280","0.0-57.0-0.0","55","1","2023-11-01 12:36:17","a725c3012b74bf33a1020a98cb69c237","146.112.49.175","Mozilla/5.0 (Windows NT 10.0; Win64; x64) AppleWebKit/537.36 (KHTML, like Gecko) Chrome/118.0.0.0 Safari/537.36","WebKit","Chrome","118.0.0.0","Windows","10.0","null","es-US,es-419;q=0.9,es;q=0.8","true","null","","null","","","delay_block","","","","","","2","5",""
"","","","","","html-keyboard-response","65","381432","0.0-57.0-1.0","55","1","2023-11-01 12:36:17","a725c3012b74bf33a1020a98cb69c237","146.112.49.175","Mozilla/5.0 (Windows NT 10.0; Win64; x64) AppleWebKit/537.36 (KHTML, like Gecko) Chrome/118.0.0.0 Safari/537.36","WebKit","Chrome","118.0.0.0","Windows","10.0","null","es-US,es-419;q=0.9,es;q=0.8","true","null","<p id=""stimulus"" style=""font-size:60px;"">cuarenta y seis</p>","null","","","tone_number_task_remaining_before_delay","","cuarenta y seis","","222.5","60","2","5",""
"","","","","","html-keyboard-response","66","382305","0.0-60.0-0.0","55","1","2023-11-01 12:36:17","a725c3012b74bf33a1020a98cb69c237","146.112.49.175","Mozilla/5.0 (Windows NT 10.0; Win64; x64) AppleWebKit/537.36 (KHTML, like Gecko) Chrome/118.0.0.0 Safari/537.36","WebKit","Chrome","118.0.0.0","Windows","10.0","null","es-US,es-419;q=0.9,es;q=0.8","true","872","<p id=""stimulus"" style=""font-size:60px;"">cuarenta y seis</p>","k","","","empty_block","","cuarenta y seis","","","","2","5",""
"","","","","","html-keyboard-response","67","385240","0.0-61.0","55","1","2023-11-01 12:36:17","a725c3012b74bf33a1020a98cb69c237","146.112.49.175","Mozilla/5.0 (Windows NT 10.0; Win64; x64) AppleWebKit/537.36 (KHTML, like Gecko) Chrome/118.0.0.0 Safari/537.36","WebKit","Chrome","118.0.0.0","Windows","10.0","null","es-US,es-419;q=0.9,es;q=0.8","true","null","<div style=""font-size:100px;"">X</div>","null","","","fixation","","","","","","","",""
"","","","","","audio-keyboard-response","68","385495","0.0-62.0","55","1","2023-11-01 12:36:17","a725c3012b74bf33a1020a98cb69c237","146.112.49.175","Mozilla/5.0 (Windows NT 10.0; Win64; x64) AppleWebKit/537.36 (KHTML, like Gecko) Chrome/118.0.0.0 Safari/537.36","WebKit","Chrome","118.0.0.0","Windows","10.0","null","es-US,es-419;q=0.9,es;q=0.8","true","null","tones/440hz_short.mp3","null","","","tone_number_task","102.5","sesenta y cuatro","tones/440hz_short.mp3","252.5","60","2","6",""
"","","","","","html-keyboard-response","69","386241","0.0-65.0-0.0","55","1","2023-11-01 12:36:17","a725c3012b74bf33a1020a98cb69c237","146.112.49.175","Mozilla/5.0 (Windows NT 10.0; Win64; x64) AppleWebKit/537.36 (KHTML, like Gecko) Chrome/118.0.0.0 Safari/537.36","WebKit","Chrome","118.0.0.0","Windows","10.0","null","es-US,es-419;q=0.9,es;q=0.8","true","744","tones/440hz_short.mp3","s","","","empty_block","","sesenta y cuatro","","","","2","6",""
"","","","","","html-keyboard-response","70","387268","0.0-65.0-1.0","55","1","2023-11-01 12:36:17","a725c3012b74bf33a1020a98cb69c237","146.112.49.175","Mozilla/5.0 (Windows NT 10.0; Win64; x64) AppleWebKit/537.36 (KHTML, like Gecko) Chrome/118.0.0.0 Safari/537.36","WebKit","Chrome","118.0.0.0","Windows","10.0","null","es-US,es-419;q=0.9,es;q=0.8","true","1024","tones/440hz_short.mp3","k","","","empty_block","","sesenta y cuatro","","","","2","6",""
"","","","","","html-keyboard-response","71","390205","0.0-67.0","55","1","2023-11-01 12:36:17","a725c3012b74bf33a1020a98cb69c237","146.112.49.175","Mozilla/5.0 (Windows NT 10.0; Win64; x64) AppleWebKit/537.36 (KHTML, like Gecko) Chrome/118.0.0.0 Safari/537.36","WebKit","Chrome","118.0.0.0","Windows","10.0","null","es-US,es-419;q=0.9,es;q=0.8","true","null","<div style=""font-size:100px;"">X</div>","null","","","fixation","","","","","","","",""
"","","","","","audio-keyboard-response","72","391180","0.0-68.0","55","1","2023-11-01 12:36:17","a725c3012b74bf33a1020a98cb69c237","146.112.49.175","Mozilla/5.0 (Windows NT 10.0; Win64; x64) AppleWebKit/537.36 (KHTML, like Gecko) Chrome/118.0.0.0 Safari/537.36","WebKit","Chrome","118.0.0.0","Windows","10.0","null","es-US,es-419;q=0.9,es;q=0.8","true","971","tones/880hz_short.mp3","s","","","tone_number_task","992.5","veintitres","tones/880hz_short.mp3","1142.5","60","2","7",""
"","","","","","html-keyboard-response","73","391206","0.0-69.0-0.0","55","1","2023-11-01 12:36:17","a725c3012b74bf33a1020a98cb69c237","146.112.49.175","Mozilla/5.0 (Windows NT 10.0; Win64; x64) AppleWebKit/537.36 (KHTML, like Gecko) Chrome/118.0.0.0 Safari/537.36","WebKit","Chrome","118.0.0.0","Windows","10.0","null","es-US,es-419;q=0.9,es;q=0.8","true","null","","null","","","delay_block","","","","","","2","7",""
"","","","","","html-keyboard-response","74","391358","0.0-69.0-1.0","55","1","2023-11-01 12:36:17","a725c3012b74bf33a1020a98cb69c237","146.112.49.175","Mozilla/5.0 (Windows NT 10.0; Win64; x64) AppleWebKit/537.36 (KHTML, like Gecko) Chrome/118.0.0.0 Safari/537.36","WebKit","Chrome","118.0.0.0","Windows","10.0","null","es-US,es-419;q=0.9,es;q=0.8","true","null","<p id=""stimulus"" style=""font-size:60px;"">veintitres</p>","null","","","tone_number_task_remaining_before_delay","","veintitres","","171.5","60","2","7",""
"","","","","","html-keyboard-response","75","391898","0.0-72.0-0.0","55","1","2023-11-01 12:36:17","a725c3012b74bf33a1020a98cb69c237","146.112.49.175","Mozilla/5.0 (Windows NT 10.0; Win64; x64) AppleWebKit/537.36 (KHTML, like Gecko) Chrome/118.0.0.0 Safari/537.36","WebKit","Chrome","118.0.0.0","Windows","10.0","null","es-US,es-419;q=0.9,es;q=0.8","true","538","<p id=""stimulus"" style=""font-size:60px;"">veintitres</p>","j","","","empty_block","","veintitres","","","","2","7",""
"","","","","","html-keyboard-response","76","394836","0.0-73.0","55","1","2023-11-01 12:36:17","a725c3012b74bf33a1020a98cb69c237","146.112.49.175","Mozilla/5.0 (Windows NT 10.0; Win64; x64) AppleWebKit/537.36 (KHTML, like Gecko) Chrome/118.0.0.0 Safari/537.36","WebKit","Chrome","118.0.0.0","Windows","10.0","null","es-US,es-419;q=0.9,es;q=0.8","true","null","<div style=""font-size:100px;"">X</div>","null","","","fixation","","","","","","","",""
"","","","","","audio-keyboard-response","77","395092","0.0-74.0","55","1","2023-11-01 12:36:17","a725c3012b74bf33a1020a98cb69c237","146.112.49.175","Mozilla/5.0 (Windows NT 10.0; Win64; x64) AppleWebKit/537.36 (KHTML, like Gecko) Chrome/118.0.0.0 Safari/537.36","WebKit","Chrome","118.0.0.0","Windows","10.0","null","es-US,es-419;q=0.9,es;q=0.8","true","null","tones/440hz_short.mp3","null","","","tone_number_task","102.5","sesenta y seis","tones/440hz_short.mp3","252.5","60","2","8",""
"","","","","","html-keyboard-response","78","396297","0.0-77.0-0.0","55","1","2023-11-01 12:36:17","a725c3012b74bf33a1020a98cb69c237","146.112.49.175","Mozilla/5.0 (Windows NT 10.0; Win64; x64) AppleWebKit/537.36 (KHTML, like Gecko) Chrome/118.0.0.0 Safari/537.36","WebKit","Chrome","118.0.0.0","Windows","10.0","null","es-US,es-419;q=0.9,es;q=0.8","true","null","tones/440hz_short.mp3","null","","","empty_block","","sesenta y seis","","","","2","8",""
"","","","","","html-keyboard-response","79","397296","0.0-77.0-1.0","55","1","2023-11-01 12:36:17","a725c3012b74bf33a1020a98cb69c237","146.112.49.175","Mozilla/5.0 (Windows NT 10.0; Win64; x64) AppleWebKit/537.36 (KHTML, like Gecko) Chrome/118.0.0.0 Safari/537.36","WebKit","Chrome","118.0.0.0","Windows","10.0","null","es-US,es-419;q=0.9,es;q=0.8","true","995","tones/440hz_short.mp3","a","","","empty_block","","sesenta y seis","","","","2","8",""
"","","","","","html-keyboard-response","80","400232","0.0-79.0","55","1","2023-11-01 12:36:17","a725c3012b74bf33a1020a98cb69c237","146.112.49.175","Mozilla/5.0 (Windows NT 10.0; Win64; x64) AppleWebKit/537.36 (KHTML, like Gecko) Chrome/118.0.0.0 Safari/537.36","WebKit","Chrome","118.0.0.0","Windows","10.0","null","es-US,es-419;q=0.9,es;q=0.8","true","null","<div style=""font-size:100px;"">X</div>","null","","","fixation","","","","","","","",""
"","","","","","audio-keyboard-response","81","401064","0.0-80.0","55","1","2023-11-01 12:36:17","a725c3012b74bf33a1020a98cb69c237","146.112.49.175","Mozilla/5.0 (Windows NT 10.0; Win64; x64) AppleWebKit/537.36 (KHTML, like Gecko) Chrome/118.0.0.0 Safari/537.36","WebKit","Chrome","118.0.0.0","Windows","10.0","null","es-US,es-419;q=0.9,es;q=0.8","true","840","tones/440hz_short.mp3","a","","","tone_number_task","992.5","cuarenta y siete","tones/440hz_short.mp3","1142.5","60","2","9",""
"","","","","","html-keyboard-response","82","401222","0.0-81.0-0.0","55","1","2023-11-01 12:36:17","a725c3012b74bf33a1020a98cb69c237","146.112.49.175","Mozilla/5.0 (Windows NT 10.0; Win64; x64) AppleWebKit/537.36 (KHTML, like Gecko) Chrome/118.0.0.0 Safari/537.36","WebKit","Chrome","118.0.0.0","Windows","10.0","null","es-US,es-419;q=0.9,es;q=0.8","true","null","","null","","","delay_block","","","","","","2","9",""
"","","","","","html-keyboard-response","83","401374","0.0-81.0-1.0","55","1","2023-11-01 12:36:17","a725c3012b74bf33a1020a98cb69c237","146.112.49.175","Mozilla/5.0 (Windows NT 10.0; Win64; x64) AppleWebKit/537.36 (KHTML, like Gecko) Chrome/118.0.0.0 Safari/537.36","WebKit","Chrome","118.0.0.0","Windows","10.0","null","es-US,es-419;q=0.9,es;q=0.8","true","null","<p id=""stimulus"" style=""font-size:60px;"">cuarenta y siete</p>","null","","","tone_number_task_remaining_before_delay","","cuarenta y siete","","302.5","60","2","9",""
"","","","","","html-keyboard-response","84","402424","0.0-84.0-0.0","55","1","2023-11-01 12:36:17","a725c3012b74bf33a1020a98cb69c237","146.112.49.175","Mozilla/5.0 (Windows NT 10.0; Win64; x64) AppleWebKit/537.36 (KHTML, like Gecko) Chrome/118.0.0.0 Safari/537.36","WebKit","Chrome","118.0.0.0","Windows","10.0","null","es-US,es-419;q=0.9,es;q=0.8","true","1046","<p id=""stimulus"" style=""font-size:60px;"">cuarenta y siete</p>","k","","","empty_block","","cuarenta y siete","","","","2","9",""
"","","","","","html-keyboard-response","85","405362","0.0-85.0","55","1","2023-11-01 12:36:17","a725c3012b74bf33a1020a98cb69c237","146.112.49.175","Mozilla/5.0 (Windows NT 10.0; Win64; x64) AppleWebKit/537.36 (KHTML, like Gecko) Chrome/118.0.0.0 Safari/537.36","WebKit","Chrome","118.0.0.0","Windows","10.0","null","es-US,es-419;q=0.9,es;q=0.8","true","null","<div style=""font-size:100px;"">X</div>","null","","","fixation","","","","","","","",""
"","","","","","audio-keyboard-response","86","406072","0.0-86.0","55","1","2023-11-01 12:36:17","a725c3012b74bf33a1020a98cb69c237","146.112.49.175","Mozilla/5.0 (Windows NT 10.0; Win64; x64) AppleWebKit/537.36 (KHTML, like Gecko) Chrome/118.0.0.0 Safari/537.36","WebKit","Chrome","118.0.0.0","Windows","10.0","null","es-US,es-419;q=0.9,es;q=0.8","true","712","tones/880hz_short.mp3","s","","","tone_number_task","1025","cincuenta y ocho","tones/880hz_short.mp3","1175","60","2","10",""
"","","","","","html-keyboard-response","87","406388","0.0-87.0-0.0","55","1","2023-11-01 12:36:17","a725c3012b74bf33a1020a98cb69c237","146.112.49.175","Mozilla/5.0 (Windows NT 10.0; Win64; x64) AppleWebKit/537.36 (KHTML, like Gecko) Chrome/118.0.0.0 Safari/537.36","WebKit","Chrome","118.0.0.0","Windows","10.0","null","es-US,es-419;q=0.9,es;q=0.8","true","null","","null","","","delay_block","","","","","","2","10",""
"","","","","","html-keyboard-response","88","406541","0.0-87.0-1.0","55","1","2023-11-01 12:36:17","a725c3012b74bf33a1020a98cb69c237","146.112.49.175","Mozilla/5.0 (Windows NT 10.0; Win64; x64) AppleWebKit/537.36 (KHTML, like Gecko) Chrome/118.0.0.0 Safari/537.36","WebKit","Chrome","118.0.0.0","Windows","10.0","null","es-US,es-419;q=0.9,es;q=0.8","true","null","<p id=""stimulus"" style=""font-size:60px;"">cincuenta y ocho</p>","null","","","tone_number_task_remaining_before_delay","","cincuenta y ocho","","463","60","2","10",""
"","","","","","html-keyboard-response","89","407656","0.0-90.0-0.0","55","1","2023-11-01 12:36:17","a725c3012b74bf33a1020a98cb69c237","146.112.49.175","Mozilla/5.0 (Windows NT 10.0; Win64; x64) AppleWebKit/537.36 (KHTML, like Gecko) Chrome/118.0.0.0 Safari/537.36","WebKit","Chrome","118.0.0.0","Windows","10.0","null","es-US,es-419;q=0.9,es;q=0.8","true","1114","<p id=""stimulus"" style=""font-size:60px;"">cincuenta y ocho</p>","k","","","empty_block","","cincuenta y ocho","","","","2","10",""
"","","","","","html-keyboard-response","90","410592","0.0-91.0","55","1","2023-11-01 12:36:17","a725c3012b74bf33a1020a98cb69c237","146.112.49.175","Mozilla/5.0 (Windows NT 10.0; Win64; x64) AppleWebKit/537.36 (KHTML, like Gecko) Chrome/118.0.0.0 Safari/537.36","WebKit","Chrome","118.0.0.0","Windows","10.0","null","es-US,es-419;q=0.9,es;q=0.8","true","null","<div style=""font-size:100px;"">X</div>","null","","","fixation","","","","","","","",""
"","","","","","audio-keyboard-response","91","410745","0.0-92.0","55","1","2023-11-01 12:36:17","a725c3012b74bf33a1020a98cb69c237","146.112.49.175","Mozilla/5.0 (Windows NT 10.0; Win64; x64) AppleWebKit/537.36 (KHTML, like Gecko) Chrome/118.0.0.0 Safari/537.36","WebKit","Chrome","118.0.0.0","Windows","10.0","null","es-US,es-419;q=0.9,es;q=0.8","true","null","tones/440hz_short.mp3","null","","","tone_number_task","0","treinta y nueve","tones/440hz_short.mp3","150","60","2","11",""
"","","","","","html-keyboard-response","92","411611","0.0-95.0-0.0","55","1","2023-11-01 12:36:17","a725c3012b74bf33a1020a98cb69c237","146.112.49.175","Mozilla/5.0 (Windows NT 10.0; Win64; x64) AppleWebKit/537.36 (KHTML, like Gecko) Chrome/118.0.0.0 Safari/537.36","WebKit","Chrome","118.0.0.0","Windows","10.0","null","es-US,es-419;q=0.9,es;q=0.8","true","862","tones/440hz_short.mp3","a","","","empty_block","","treinta y nueve","","","","2","11",""
"","","","","","html-keyboard-response","93","412035","0.0-95.0-1.0","55","1","2023-11-01 12:36:17","a725c3012b74bf33a1020a98cb69c237","146.112.49.175","Mozilla/5.0 (Windows NT 10.0; Win64; x64) AppleWebKit/537.36 (KHTML, like Gecko) Chrome/118.0.0.0 Safari/537.36","WebKit","Chrome","118.0.0.0","Windows","10.0","null","es-US,es-419;q=0.9,es;q=0.8","true","421","tones/440hz_short.mp3","j","","","empty_block","","treinta y nueve","","","","2","11",""
"","","","","","html-keyboard-response","94","414972","0.0-97.0","55","1","2023-11-01 12:36:17","a725c3012b74bf33a1020a98cb69c237","146.112.49.175","Mozilla/5.0 (Windows NT 10.0; Win64; x64) AppleWebKit/537.36 (KHTML, like Gecko) Chrome/118.0.0.0 Safari/537.36","WebKit","Chrome","118.0.0.0","Windows","10.0","null","es-US,es-419;q=0.9,es;q=0.8","true","null","<div style=""font-size:100px;"">X</div>","null","","","fixation","","","","","","","",""
"","","","","","audio-keyboard-response","95","415127","0.0-98.0","55","1","2023-11-01 12:36:17","a725c3012b74bf33a1020a98cb69c237","146.112.49.175","Mozilla/5.0 (Windows NT 10.0; Win64; x64) AppleWebKit/537.36 (KHTML, like Gecko) Chrome/118.0.0.0 Safari/537.36","WebKit","Chrome","118.0.0.0","Windows","10.0","null","es-US,es-419;q=0.9,es;q=0.8","true","null","tones/440hz_short.mp3","null","","","tone_number_task","0","sesenta y uno","tones/440hz_short.mp3","150","60","2","12",""
"","","","","","html-keyboard-response","96","415591","0.0-101.0-0.0","55","1","2023-11-01 12:36:17","a725c3012b74bf33a1020a98cb69c237","146.112.49.175","Mozilla/5.0 (Windows NT 10.0; Win64; x64) AppleWebKit/537.36 (KHTML, like Gecko) Chrome/118.0.0.0 Safari/537.36","WebKit","Chrome","118.0.0.0","Windows","10.0","null","es-US,es-419;q=0.9,es;q=0.8","true","460","tones/440hz_short.mp3","a","","","empty_block","","sesenta y uno","","","","2","12",""
"","","","","","html-keyboard-response","97","416177","0.0-101.0-1.0","55","1","2023-11-01 12:36:17","a725c3012b74bf33a1020a98cb69c237","146.112.49.175","Mozilla/5.0 (Windows NT 10.0; Win64; x64) AppleWebKit/537.36 (KHTML, like Gecko) Chrome/118.0.0.0 Safari/537.36","WebKit","Chrome","118.0.0.0","Windows","10.0","null","es-US,es-419;q=0.9,es;q=0.8","true","584","tones/440hz_short.mp3","k","","","empty_block","","sesenta y uno","","","","2","12",""
"","","","","","html-keyboard-response","98","419114","0.0-103.0","55","1","2023-11-01 12:36:17","a725c3012b74bf33a1020a98cb69c237","146.112.49.175","Mozilla/5.0 (Windows NT 10.0; Win64; x64) AppleWebKit/537.36 (KHTML, like Gecko) Chrome/118.0.0.0 Safari/537.36","WebKit","Chrome","118.0.0.0","Windows","10.0","null","es-US,es-419;q=0.9,es;q=0.8","true","null","<div style=""font-size:100px;"">X</div>","null","","","fixation","","","","","","","",""
"","","","","","audio-keyboard-response","99","419369","0.0-104.0","55","1","2023-11-01 12:36:17","a725c3012b74bf33a1020a98cb69c237","146.112.49.175","Mozilla/5.0 (Windows NT 10.0; Win64; x64) AppleWebKit/537.36 (KHTML, like Gecko) Chrome/118.0.0.0 Safari/537.36","WebKit","Chrome","118.0.0.0","Windows","10.0","null","es-US,es-419;q=0.9,es;q=0.8","true","null","tones/880hz_short.mp3","null","","","tone_number_task","102.5","treinta y dos","tones/880hz_short.mp3","252.5","60","2","13",""
"","","","","","html-keyboard-response","100","420046","0.0-107.0-0.0","55","1","2023-11-01 12:36:17","a725c3012b74bf33a1020a98cb69c237","146.112.49.175","Mozilla/5.0 (Windows NT 10.0; Win64; x64) AppleWebKit/537.36 (KHTML, like Gecko) Chrome/118.0.0.0 Safari/537.36","WebKit","Chrome","118.0.0.0","Windows","10.0","null","es-US,es-419;q=0.9,es;q=0.8","true","672","tones/880hz_short.mp3","a","","","empty_block","","treinta y dos","","","","2","13",""
"","","","","","html-keyboard-response","101","421251","0.0-107.0-1.0","55","1","2023-11-01 12:36:17","a725c3012b74bf33a1020a98cb69c237","146.112.49.175","Mozilla/5.0 (Windows NT 10.0; Win64; x64) AppleWebKit/537.36 (KHTML, like Gecko) Chrome/118.0.0.0 Safari/537.36","WebKit","Chrome","118.0.0.0","Windows","10.0","null","es-US,es-419;q=0.9,es;q=0.8","true","null","tones/880hz_short.mp3","null","","","empty_block","","treinta y dos","","","","2","13",""
"","","","","","html-keyboard-response","102","424186","0.0-109.0","55","1","2023-11-01 12:36:17","a725c3012b74bf33a1020a98cb69c237","146.112.49.175","Mozilla/5.0 (Windows NT 10.0; Win64; x64) AppleWebKit/537.36 (KHTML, like Gecko) Chrome/118.0.0.0 Safari/537.36","WebKit","Chrome","118.0.0.0","Windows","10.0","null","es-US,es-419;q=0.9,es;q=0.8","true","null","<div style=""font-size:100px;"">X</div>","null","","","fixation","","","","","","","",""
"","","","","","audio-keyboard-response","103","424442","0.0-110.0","55","1","2023-11-01 12:36:17","a725c3012b74bf33a1020a98cb69c237","146.112.49.175","Mozilla/5.0 (Windows NT 10.0; Win64; x64) AppleWebKit/537.36 (KHTML, like Gecko) Chrome/118.0.0.0 Safari/537.36","WebKit","Chrome","118.0.0.0","Windows","10.0","null","es-US,es-419;q=0.9,es;q=0.8","true","null","tones/880hz_short.mp3","null","","","tone_number_task","102.5","veintitres","tones/880hz_short.mp3","252.5","60","2","14",""
"","","","","","html-keyboard-response","104","425645","0.0-113.0-0.0","55","1","2023-11-01 12:36:17","a725c3012b74bf33a1020a98cb69c237","146.112.49.175","Mozilla/5.0 (Windows NT 10.0; Win64; x64) AppleWebKit/537.36 (KHTML, like Gecko) Chrome/118.0.0.0 Safari/537.36","WebKit","Chrome","118.0.0.0","Windows","10.0","null","es-US,es-419;q=0.9,es;q=0.8","true","null","tones/880hz_short.mp3","null","","","empty_block","","veintitres","","","","2","14",""
"","","","","","html-keyboard-response","105","426240","0.0-113.0-1.0","55","1","2023-11-01 12:36:17","a725c3012b74bf33a1020a98cb69c237","146.112.49.175","Mozilla/5.0 (Windows NT 10.0; Win64; x64) AppleWebKit/537.36 (KHTML, like Gecko) Chrome/118.0.0.0 Safari/537.36","WebKit","Chrome","118.0.0.0","Windows","10.0","null","es-US,es-419;q=0.9,es;q=0.8","true","592","tones/880hz_short.mp3","s","","","empty_block","","veintitres","","","","2","14",""
"","","","","","html-keyboard-response","106","429176","0.0-115.0","55","1","2023-11-01 12:36:17","a725c3012b74bf33a1020a98cb69c237","146.112.49.175","Mozilla/5.0 (Windows NT 10.0; Win64; x64) AppleWebKit/537.36 (KHTML, like Gecko) Chrome/118.0.0.0 Safari/537.36","WebKit","Chrome","118.0.0.0","Windows","10.0","null","es-US,es-419;q=0.9,es;q=0.8","true","null","<div style=""font-size:100px;"">X</div>","null","","","fixation","","","","","","","",""
"","","","","","audio-keyboard-response","107","430074","0.0-116.0","55","1","2023-11-01 12:36:17","a725c3012b74bf33a1020a98cb69c237","146.112.49.175","Mozilla/5.0 (Windows NT 10.0; Win64; x64) AppleWebKit/537.36 (KHTML, like Gecko) Chrome/118.0.0.0 Safari/537.36","WebKit","Chrome","118.0.0.0","Windows","10.0","null","es-US,es-419;q=0.9,es;q=0.8","true","901","tones/440hz_short.mp3","a","","","tone_number_task","1025","cuarenta y siete","tones/440hz_short.mp3","1175","60","2","15",""
"","","","","","html-keyboard-response","108","430201","0.0-117.0-0.0","55","1","2023-11-01 12:36:17","a725c3012b74bf33a1020a98cb69c237","146.112.49.175","Mozilla/5.0 (Windows NT 10.0; Win64; x64) AppleWebKit/537.36 (KHTML, like Gecko) Chrome/118.0.0.0 Safari/537.36","WebKit","Chrome","118.0.0.0","Windows","10.0","null","es-US,es-419;q=0.9,es;q=0.8","true","null","","null","","","delay_block","","","","","","2","15",""
"","","","","","html-keyboard-response","109","430355","0.0-117.0-1.0","55","1","2023-11-01 12:36:17","a725c3012b74bf33a1020a98cb69c237","146.112.49.175","Mozilla/5.0 (Windows NT 10.0; Win64; x64) AppleWebKit/537.36 (KHTML, like Gecko) Chrome/118.0.0.0 Safari/537.36","WebKit","Chrome","118.0.0.0","Windows","10.0","null","es-US,es-419;q=0.9,es;q=0.8","true","null","<p id=""stimulus"" style=""font-size:60px;"">cuarenta y siete</p>","null","","","tone_number_task_remaining_before_delay","","cuarenta y siete","","274","60","2","15",""
"","","","","","html-keyboard-response","110","431268","0.0-120.0-0.0","55","1","2023-11-01 12:36:17","a725c3012b74bf33a1020a98cb69c237","146.112.49.175","Mozilla/5.0 (Windows NT 10.0; Win64; x64) AppleWebKit/537.36 (KHTML, like Gecko) Chrome/118.0.0.0 Safari/537.36","WebKit","Chrome","118.0.0.0","Windows","10.0","null","es-US,es-419;q=0.9,es;q=0.8","true","911","<p id=""stimulus"" style=""font-size:60px;"">cuarenta y siete</p>","k","","","empty_block","","cuarenta y siete","","","","2","15",""
"","","","","","html-keyboard-response","111","434202","0.0-121.0","55","1","2023-11-01 12:36:17","a725c3012b74bf33a1020a98cb69c237","146.112.49.175","Mozilla/5.0 (Windows NT 10.0; Win64; x64) AppleWebKit/537.36 (KHTML, like Gecko) Chrome/118.0.0.0 Safari/537.36","WebKit","Chrome","118.0.0.0","Windows","10.0","null","es-US,es-419;q=0.9,es;q=0.8","true","null","<div style=""font-size:100px;"">X</div>","null","","","fixation","","","","","","","",""
"","","","","","audio-keyboard-response","112","434356","0.0-122.0","55","1","2023-11-01 12:36:17","a725c3012b74bf33a1020a98cb69c237","146.112.49.175","Mozilla/5.0 (Windows NT 10.0; Win64; x64) AppleWebKit/537.36 (KHTML, like Gecko) Chrome/118.0.0.0 Safari/537.36","WebKit","Chrome","118.0.0.0","Windows","10.0","null","es-US,es-419;q=0.9,es;q=0.8","true","null","tones/880hz_short.mp3","null","","","tone_number_task","0","treinta y seis","tones/880hz_short.mp3","150","60","2","16",""
"","","","","","html-keyboard-response","113","434989","0.0-125.0-0.0","55","1","2023-11-01 12:36:17","a725c3012b74bf33a1020a98cb69c237","146.112.49.175","Mozilla/5.0 (Windows NT 10.0; Win64; x64) AppleWebKit/537.36 (KHTML, like Gecko) Chrome/118.0.0.0 Safari/537.36","WebKit","Chrome","118.0.0.0","Windows","10.0","null","es-US,es-419;q=0.9,es;q=0.8","true","629","tones/880hz_short.mp3","s","","","empty_block","","treinta y seis","","","","2","16",""
"","","","","","html-keyboard-response","114","435980","0.0-125.0-1.0","55","1","2023-11-01 12:36:17","a725c3012b74bf33a1020a98cb69c237","146.112.49.175","Mozilla/5.0 (Windows NT 10.0; Win64; x64) AppleWebKit/537.36 (KHTML, like Gecko) Chrome/118.0.0.0 Safari/537.36","WebKit","Chrome","118.0.0.0","Windows","10.0","null","es-US,es-419;q=0.9,es;q=0.8","true","989","tones/880hz_short.mp3","j","","","empty_block","","treinta y seis","","","","2","16",""
"","","","","","html-keyboard-response","115","438915","0.0-127.0","55","1","2023-11-01 12:36:17","a725c3012b74bf33a1020a98cb69c237","146.112.49.175","Mozilla/5.0 (Windows NT 10.0; Win64; x64) AppleWebKit/537.36 (KHTML, like Gecko) Chrome/118.0.0.0 Safari/537.36","WebKit","Chrome","118.0.0.0","Windows","10.0","null","es-US,es-419;q=0.9,es;q=0.8","true","null","<div style=""font-size:100px;"">X</div>","null","","","fixation","","","","","","","",""
"","","","","","audio-keyboard-response","116","439986","0.0-128.0","55","1","2023-11-01 12:36:17","a725c3012b74bf33a1020a98cb69c237","146.112.49.175","Mozilla/5.0 (Windows NT 10.0; Win64; x64) AppleWebKit/537.36 (KHTML, like Gecko) Chrome/118.0.0.0 Safari/537.36","WebKit","Chrome","118.0.0.0","Windows","10.0","null","es-US,es-419;q=0.9,es;q=0.8","true","1069","tones/440hz_short.mp3","a","","","tone_number_task","992.5","cuarenta y seis","tones/440hz_short.mp3","1142.5","60","2","17",""
"","","","","","html-keyboard-response","117","440065","0.0-130.0-0.0","55","1","2023-11-01 12:36:17","a725c3012b74bf33a1020a98cb69c237","146.112.49.175","Mozilla/5.0 (Windows NT 10.0; Win64; x64) AppleWebKit/537.36 (KHTML, like Gecko) Chrome/118.0.0.0 Safari/537.36","WebKit","Chrome","118.0.0.0","Windows","10.0","null","es-US,es-419;q=0.9,es;q=0.8","true","null","<p id=""stimulus"" style=""font-size:60px;"">cuarenta y seis</p>","null","","","tone_number_task_remaining_after_delay","","cuarenta y seis","","","60","2","17",""
"","","","","","html-keyboard-response","118","440854","0.0-132.0-0.0","55","1","2023-11-01 12:36:17","a725c3012b74bf33a1020a98cb69c237","146.112.49.175","Mozilla/5.0 (Windows NT 10.0; Win64; x64) AppleWebKit/537.36 (KHTML, like Gecko) Chrome/118.0.0.0 Safari/537.36","WebKit","Chrome","118.0.0.0","Windows","10.0","null","es-US,es-419;q=0.9,es;q=0.8","true","784","<p id=""stimulus"" style=""font-size:60px;"">cuarenta y seis</p>","k","","","empty_block","","cuarenta y seis","","","","2","17",""
"","","","","","html-keyboard-response","119","443791","0.0-133.0","55","1","2023-11-01 12:36:17","a725c3012b74bf33a1020a98cb69c237","146.112.49.175","Mozilla/5.0 (Windows NT 10.0; Win64; x64) AppleWebKit/537.36 (KHTML, like Gecko) Chrome/118.0.0.0 Safari/537.36","WebKit","Chrome","118.0.0.0","Windows","10.0","null","es-US,es-419;q=0.9,es;q=0.8","true","null","<div style=""font-size:100px;"">X</div>","null","","","fixation","","","","","","","",""
"","","","","","audio-keyboard-response","120","444844","0.0-134.0","55","1","2023-11-01 12:36:17","a725c3012b74bf33a1020a98cb69c237","146.112.49.175","Mozilla/5.0 (Windows NT 10.0; Win64; x64) AppleWebKit/537.36 (KHTML, like Gecko) Chrome/118.0.0.0 Safari/537.36","WebKit","Chrome","118.0.0.0","Windows","10.0","null","es-US,es-419;q=0.9,es;q=0.8","true","1048","tones/440hz_short.mp3","a","","","tone_number_task","992.5","sesenta y tres","tones/440hz_short.mp3","1142.5","60","2","18",""
"","","","","","html-keyboard-response","121","444941","0.0-136.0-0.0","55","1","2023-11-01 12:36:17","a725c3012b74bf33a1020a98cb69c237","146.112.49.175","Mozilla/5.0 (Windows NT 10.0; Win64; x64) AppleWebKit/537.36 (KHTML, like Gecko) Chrome/118.0.0.0 Safari/537.36","WebKit","Chrome","118.0.0.0","Windows","10.0","null","es-US,es-419;q=0.9,es;q=0.8","true","null","<p id=""stimulus"" style=""font-size:60px;"">sesenta y tres</p>","null","","","tone_number_task_remaining_after_delay","","sesenta y tres","","","60","2","18",""
"","","","","","html-keyboard-response","122","445698","0.0-138.0-0.0","55","1","2023-11-01 12:36:17","a725c3012b74bf33a1020a98cb69c237","146.112.49.175","Mozilla/5.0 (Windows NT 10.0; Win64; x64) AppleWebKit/537.36 (KHTML, like Gecko) Chrome/118.0.0.0 Safari/537.36","WebKit","Chrome","118.0.0.0","Windows","10.0","null","es-US,es-419;q=0.9,es;q=0.8","true","755","<p id=""stimulus"" style=""font-size:60px;"">sesenta y tres</p>","k","","","empty_block","","sesenta y tres","","","","2","18",""
"","","","","","html-keyboard-response","123","448634","0.0-139.0","55","1","2023-11-01 12:36:17","a725c3012b74bf33a1020a98cb69c237","146.112.49.175","Mozilla/5.0 (Windows NT 10.0; Win64; x64) AppleWebKit/537.36 (KHTML, like Gecko) Chrome/118.0.0.0 Safari/537.36","WebKit","Chrome","118.0.0.0","Windows","10.0","null","es-US,es-419;q=0.9,es;q=0.8","true","null","<div style=""font-size:100px;"">X</div>","null","","","fixation","","","","","","","",""
"","","","","","audio-keyboard-response","124","448787","0.0-140.0","55","1","2023-11-01 12:36:17","a725c3012b74bf33a1020a98cb69c237","146.112.49.175","Mozilla/5.0 (Windows NT 10.0; Win64; x64) AppleWebKit/537.36 (KHTML, like Gecko) Chrome/118.0.0.0 Safari/537.36","WebKit","Chrome","118.0.0.0","Windows","10.0","null","es-US,es-419;q=0.9,es;q=0.8","true","null","tones/880hz_short.mp3","null","","","tone_number_task","0","cincuenta","tones/880hz_short.mp3","150","60","2","19",""
"","","","","","html-keyboard-response","125","449991","0.0-143.0-0.0","55","1","2023-11-01 12:36:17","a725c3012b74bf33a1020a98cb69c237","146.112.49.175","Mozilla/5.0 (Windows NT 10.0; Win64; x64) AppleWebKit/537.36 (KHTML, like Gecko) Chrome/118.0.0.0 Safari/537.36","WebKit","Chrome","118.0.0.0","Windows","10.0","null","es-US,es-419;q=0.9,es;q=0.8","true","null","tones/880hz_short.mp3","null","","","empty_block","","cincuenta","","","","2","19",""
"","","","","","html-keyboard-response","126","450176","0.0-143.0-1.0","55","1","2023-11-01 12:36:17","a725c3012b74bf33a1020a98cb69c237","146.112.49.175","Mozilla/5.0 (Windows NT 10.0; Win64; x64) AppleWebKit/537.36 (KHTML, like Gecko) Chrome/118.0.0.0 Safari/537.36","WebKit","Chrome","118.0.0.0","Windows","10.0","null","es-US,es-419;q=0.9,es;q=0.8","true","183","tones/880hz_short.mp3","s","","","empty_block","","cincuenta","","","","2","19",""
"","","","","","html-keyboard-response","127","453112","0.0-145.0","55","1","2023-11-01 12:36:17","a725c3012b74bf33a1020a98cb69c237","146.112.49.175","Mozilla/5.0 (Windows NT 10.0; Win64; x64) AppleWebKit/537.36 (KHTML, like Gecko) Chrome/118.0.0.0 Safari/537.36","WebKit","Chrome","118.0.0.0","Windows","10.0","null","es-US,es-419;q=0.9,es;q=0.8","true","null","<div style=""font-size:100px;"">X</div>","null","","","fixation","","","","","","","",""
"","","","","","audio-keyboard-response","128","453266","0.0-146.0","55","1","2023-11-01 12:36:17","a725c3012b74bf33a1020a98cb69c237","146.112.49.175","Mozilla/5.0 (Windows NT 10.0; Win64; x64) AppleWebKit/537.36 (KHTML, like Gecko) Chrome/118.0.0.0 Safari/537.36","WebKit","Chrome","118.0.0.0","Windows","10.0","null","es-US,es-419;q=0.9,es;q=0.8","true","null","tones/440hz_short.mp3","null","","","tone_number_task","0","veintitres","tones/440hz_short.mp3","150","60","2","20",""
"","","","","","html-keyboard-response","129","454471","0.0-149.0-0.0","55","1","2023-11-01 12:36:17","a725c3012b74bf33a1020a98cb69c237","146.112.49.175","Mozilla/5.0 (Windows NT 10.0; Win64; x64) AppleWebKit/537.36 (KHTML, like Gecko) Chrome/118.0.0.0 Safari/537.36","WebKit","Chrome","118.0.0.0","Windows","10.0","null","es-US,es-419;q=0.9,es;q=0.8","true","null","tones/440hz_short.mp3","null","","","empty_block","","veintitres","","","","2","20",""
"","","","","","html-keyboard-response","130","454873","0.0-149.0-1.0","55","1","2023-11-01 12:36:17","a725c3012b74bf33a1020a98cb69c237","146.112.49.175","Mozilla/5.0 (Windows NT 10.0; Win64; x64) AppleWebKit/537.36 (KHTML, like Gecko) Chrome/118.0.0.0 Safari/537.36","WebKit","Chrome","118.0.0.0","Windows","10.0","null","es-US,es-419;q=0.9,es;q=0.8","true","400","tones/440hz_short.mp3","a","","","empty_block","","veintitres","","","","2","20",""
"","","","","","html-keyboard-response","131","457809","0.0-151.0","55","1","2023-11-01 12:36:17","a725c3012b74bf33a1020a98cb69c237","146.112.49.175","Mozilla/5.0 (Windows NT 10.0; Win64; x64) AppleWebKit/537.36 (KHTML, like Gecko) Chrome/118.0.0.0 Safari/537.36","WebKit","Chrome","118.0.0.0","Windows","10.0","null","es-US,es-419;q=0.9,es;q=0.8","true","null","<div style=""font-size:100px;"">X</div>","null","","","fixation","","","","","","","",""
"","","","","","audio-keyboard-response","132","458063","0.0-152.0","55","1","2023-11-01 12:36:17","a725c3012b74bf33a1020a98cb69c237","146.112.49.175","Mozilla/5.0 (Windows NT 10.0; Win64; x64) AppleWebKit/537.36 (KHTML, like Gecko) Chrome/118.0.0.0 Safari/537.36","WebKit","Chrome","118.0.0.0","Windows","10.0","null","es-US,es-419;q=0.9,es;q=0.8","true","null","tones/880hz_short.mp3","null","","","tone_number_task","102.5","cincuenta y dos","tones/880hz_short.mp3","252.5","60","2","21",""
"","","","","","html-keyboard-response","133","458885","0.0-155.0-0.0","55","1","2023-11-01 12:36:17","a725c3012b74bf33a1020a98cb69c237","146.112.49.175","Mozilla/5.0 (Windows NT 10.0; Win64; x64) AppleWebKit/537.36 (KHTML, like Gecko) Chrome/118.0.0.0 Safari/537.36","WebKit","Chrome","118.0.0.0","Windows","10.0","null","es-US,es-419;q=0.9,es;q=0.8","true","819","tones/880hz_short.mp3","s","","","empty_block","","cincuenta y dos","","","","2","21",""
"","","","","","html-keyboard-response","134","460089","0.0-155.0-1.0","55","1","2023-11-01 12:36:17","a725c3012b74bf33a1020a98cb69c237","146.112.49.175","Mozilla/5.0 (Windows NT 10.0; Win64; x64) AppleWebKit/537.36 (KHTML, like Gecko) Chrome/118.0.0.0 Safari/537.36","WebKit","Chrome","118.0.0.0","Windows","10.0","null","es-US,es-419;q=0.9,es;q=0.8","true","null","tones/880hz_short.mp3","null","","","empty_block","","cincuenta y dos","","","","2","21",""
"","","","","","html-keyboard-response","135","463024","0.0-157.0","55","1","2023-11-01 12:36:17","a725c3012b74bf33a1020a98cb69c237","146.112.49.175","Mozilla/5.0 (Windows NT 10.0; Win64; x64) AppleWebKit/537.36 (KHTML, like Gecko) Chrome/118.0.0.0 Safari/537.36","WebKit","Chrome","118.0.0.0","Windows","10.0","null","es-US,es-419;q=0.9,es;q=0.8","true","null","<div style=""font-size:100px;"">X</div>","null","","","fixation","","","","","","","",""
"","","","","","audio-keyboard-response","136","463279","0.0-158.0","55","1","2023-11-01 12:36:17","a725c3012b74bf33a1020a98cb69c237","146.112.49.175","Mozilla/5.0 (Windows NT 10.0; Win64; x64) AppleWebKit/537.36 (KHTML, like Gecko) Chrome/118.0.0.0 Safari/537.36","WebKit","Chrome","118.0.0.0","Windows","10.0","null","es-US,es-419;q=0.9,es;q=0.8","true","null","tones/440hz_short.mp3","null","","","tone_number_task","102.5","sesenta","tones/440hz_short.mp3","252.5","60","2","22",""
"","","","","","html-keyboard-response","137","464037","0.0-161.0-0.0","55","1","2023-11-01 12:36:17","a725c3012b74bf33a1020a98cb69c237","146.112.49.175","Mozilla/5.0 (Windows NT 10.0; Win64; x64) AppleWebKit/537.36 (KHTML, like Gecko) Chrome/118.0.0.0 Safari/537.36","WebKit","Chrome","118.0.0.0","Windows","10.0","null","es-US,es-419;q=0.9,es;q=0.8","true","755","tones/440hz_short.mp3","a","","","empty_block","","sesenta","","","","2","22",""
"","","","","","html-keyboard-response","138","464506","0.0-161.0-1.0","55","1","2023-11-01 12:36:17","a725c3012b74bf33a1020a98cb69c237","146.112.49.175","Mozilla/5.0 (Windows NT 10.0; Win64; x64) AppleWebKit/537.36 (KHTML, like Gecko) Chrome/118.0.0.0 Safari/537.36","WebKit","Chrome","118.0.0.0","Windows","10.0","null","es-US,es-419;q=0.9,es;q=0.8","true","467","tones/440hz_short.mp3","k","","","empty_block","","sesenta","","","","2","22",""
"","","","","","html-keyboard-response","139","467442","0.0-163.0","55","1","2023-11-01 12:36:17","a725c3012b74bf33a1020a98cb69c237","146.112.49.175","Mozilla/5.0 (Windows NT 10.0; Win64; x64) AppleWebKit/537.36 (KHTML, like Gecko) Chrome/118.0.0.0 Safari/537.36","WebKit","Chrome","118.0.0.0","Windows","10.0","null","es-US,es-419;q=0.9,es;q=0.8","true","null","<div style=""font-size:100px;"">X</div>","null","","","fixation","","","","","","","",""
"","","","","","audio-keyboard-response","140","468299","0.0-164.0","55","1","2023-11-01 12:36:17","a725c3012b74bf33a1020a98cb69c237","146.112.49.175","Mozilla/5.0 (Windows NT 10.0; Win64; x64) AppleWebKit/537.36 (KHTML, like Gecko) Chrome/118.0.0.0 Safari/537.36","WebKit","Chrome","118.0.0.0","Windows","10.0","null","es-US,es-419;q=0.9,es;q=0.8","true","851","tones/440hz_short.mp3","a","","","tone_number_task","992.5","sesenta","tones/440hz_short.mp3","1142.5","60","2","23",""
"","","","","","html-keyboard-response","141","468445","0.0-165.0-0.0","55","1","2023-11-01 12:36:17","a725c3012b74bf33a1020a98cb69c237","146.112.49.175","Mozilla/5.0 (Windows NT 10.0; Win64; x64) AppleWebKit/537.36 (KHTML, like Gecko) Chrome/118.0.0.0 Safari/537.36","WebKit","Chrome","118.0.0.0","Windows","10.0","null","es-US,es-419;q=0.9,es;q=0.8","true","null","","null","","","delay_block","","","","","","2","23",""
"","","","","","html-keyboard-response","142","468598","0.0-165.0-1.0","55","1","2023-11-01 12:36:17","a725c3012b74bf33a1020a98cb69c237","146.112.49.175","Mozilla/5.0 (Windows NT 10.0; Win64; x64) AppleWebKit/537.36 (KHTML, like Gecko) Chrome/118.0.0.0 Safari/537.36","WebKit","Chrome","118.0.0.0","Windows","10.0","null","es-US,es-419;q=0.9,es;q=0.8","true","null","<p id=""stimulus"" style=""font-size:60px;"">sesenta</p>","null","","","tone_number_task_remaining_before_delay","","sesenta","","291.5","60","2","23",""
"","","","","","html-keyboard-response","143","469385","0.0-168.0-0.0","55","1","2023-11-01 12:36:17","a725c3012b74bf33a1020a98cb69c237","146.112.49.175","Mozilla/5.0 (Windows NT 10.0; Win64; x64) AppleWebKit/537.36 (KHTML, like Gecko) Chrome/118.0.0.0 Safari/537.36","WebKit","Chrome","118.0.0.0","Windows","10.0","null","es-US,es-419;q=0.9,es;q=0.8","true","784","<p id=""stimulus"" style=""font-size:60px;"">sesenta</p>","k","","","empty_block","","sesenta","","","","2","23",""
"","","","","","html-keyboard-response","144","472323","0.0-169.0","55","1","2023-11-01 12:36:17","a725c3012b74bf33a1020a98cb69c237","146.112.49.175","Mozilla/5.0 (Windows NT 10.0; Win64; x64) AppleWebKit/537.36 (KHTML, like Gecko) Chrome/118.0.0.0 Safari/537.36","WebKit","Chrome","118.0.0.0","Windows","10.0","null","es-US,es-419;q=0.9,es;q=0.8","true","null","<div style=""font-size:100px;"">X</div>","null","","","fixation","","","","","","","",""
"","","","","","audio-keyboard-response","145","473396","0.0-170.0","55","1","2023-11-01 12:36:17","a725c3012b74bf33a1020a98cb69c237","146.112.49.175","Mozilla/5.0 (Windows NT 10.0; Win64; x64) AppleWebKit/537.36 (KHTML, like Gecko) Chrome/118.0.0.0 Safari/537.36","WebKit","Chrome","118.0.0.0","Windows","10.0","null","es-US,es-419;q=0.9,es;q=0.8","true","1072","tones/880hz_short.mp3","s","","","tone_number_task","1025","treinta y tres","tones/880hz_short.mp3","1175","60","2","24",""
"","","","","","html-keyboard-response","146","473504","0.0-172.0-0.0","55","1","2023-11-01 12:36:17","a725c3012b74bf33a1020a98cb69c237","146.112.49.175","Mozilla/5.0 (Windows NT 10.0; Win64; x64) AppleWebKit/537.36 (KHTML, like Gecko) Chrome/118.0.0.0 Safari/537.36","WebKit","Chrome","118.0.0.0","Windows","10.0","null","es-US,es-419;q=0.9,es;q=0.8","true","null","<p id=""stimulus"" style=""font-size:60px;"">treinta y tres</p>","null","","","tone_number_task_remaining_after_delay","","treinta y tres","","","60","2","24",""
"","","","","","html-keyboard-response","147","474093","0.0-174.0-0.0","55","1","2023-11-01 12:36:17","a725c3012b74bf33a1020a98cb69c237","146.112.49.175","Mozilla/5.0 (Windows NT 10.0; Win64; x64) AppleWebKit/537.36 (KHTML, like Gecko) Chrome/118.0.0.0 Safari/537.36","WebKit","Chrome","118.0.0.0","Windows","10.0","null","es-US,es-419;q=0.9,es;q=0.8","true","586","<p id=""stimulus"" style=""font-size:60px;"">treinta y tres</p>","j","","","empty_block","","treinta y tres","","","","2","24",""
"","","","","","html-keyboard-response","148","477029","0.0-175.0","55","1","2023-11-01 12:36:17","a725c3012b74bf33a1020a98cb69c237","146.112.49.175","Mozilla/5.0 (Windows NT 10.0; Win64; x64) AppleWebKit/537.36 (KHTML, like Gecko) Chrome/118.0.0.0 Safari/537.36","WebKit","Chrome","118.0.0.0","Windows","10.0","null","es-US,es-419;q=0.9,es;q=0.8","true","null","<div style=""font-size:100px;"">X</div>","null","","","fixation","","","","","","","",""
"","","","","","audio-keyboard-response","149","477285","0.0-176.0","55","1","2023-11-01 12:36:17","a725c3012b74bf33a1020a98cb69c237","146.112.49.175","Mozilla/5.0 (Windows NT 10.0; Win64; x64) AppleWebKit/537.36 (KHTML, like Gecko) Chrome/118.0.0.0 Safari/537.36","WebKit","Chrome","118.0.0.0","Windows","10.0","null","es-US,es-419;q=0.9,es;q=0.8","true","null","tones/880hz_short.mp3","null","","","tone_number_task","102.5","cincuenta y dos","tones/880hz_short.mp3","252.5","60","2","25",""
"","","","","","html-keyboard-response","150","478282","0.0-179.0-0.0","55","1","2023-11-01 12:36:17","a725c3012b74bf33a1020a98cb69c237","146.112.49.175","Mozilla/5.0 (Windows NT 10.0; Win64; x64) AppleWebKit/537.36 (KHTML, like Gecko) Chrome/118.0.0.0 Safari/537.36","WebKit","Chrome","118.0.0.0","Windows","10.0","null","es-US,es-419;q=0.9,es;q=0.8","true","994","tones/880hz_short.mp3","s","","","empty_block","","cincuenta y dos","","","","2","25",""
"","","","","","html-keyboard-response","151","479039","0.0-179.0-1.0","55","1","2023-11-01 12:36:17","a725c3012b74bf33a1020a98cb69c237","146.112.49.175","Mozilla/5.0 (Windows NT 10.0; Win64; x64) AppleWebKit/537.36 (KHTML, like Gecko) Chrome/118.0.0.0 Safari/537.36","WebKit","Chrome","118.0.0.0","Windows","10.0","null","es-US,es-419;q=0.9,es;q=0.8","true","756","tones/880hz_short.mp3","k","","","empty_block","","cincuenta y dos","","","","2","25",""
"","","","","","html-keyboard-response","152","481982","0.0-181.0","55","1","2023-11-01 12:36:17","a725c3012b74bf33a1020a98cb69c237","146.112.49.175","Mozilla/5.0 (Windows NT 10.0; Win64; x64) AppleWebKit/537.36 (KHTML, like Gecko) Chrome/118.0.0.0 Safari/537.36","WebKit","Chrome","118.0.0.0","Windows","10.0","null","es-US,es-419;q=0.9,es;q=0.8","true","null","<div style=""font-size:100px;"">X</div>","null","","","fixation","","","","","","","",""
"","","","","","audio-keyboard-response","153","482885","0.0-182.0","55","1","2023-11-01 12:36:17","a725c3012b74bf33a1020a98cb69c237","146.112.49.175","Mozilla/5.0 (Windows NT 10.0; Win64; x64) AppleWebKit/537.36 (KHTML, like Gecko) Chrome/118.0.0.0 Safari/537.36","WebKit","Chrome","118.0.0.0","Windows","10.0","null","es-US,es-419;q=0.9,es;q=0.8","true","891","tones/440hz_short.mp3","a","","","tone_number_task","992.5","treinta y uno","tones/440hz_short.mp3","1142.5","60","2","26",""
"","","","","","html-keyboard-response","154","482990","0.0-183.0-0.0","55","1","2023-11-01 12:36:17","a725c3012b74bf33a1020a98cb69c237","146.112.49.175","Mozilla/5.0 (Windows NT 10.0; Win64; x64) AppleWebKit/537.36 (KHTML, like Gecko) Chrome/118.0.0.0 Safari/537.36","WebKit","Chrome","118.0.0.0","Windows","10.0","null","es-US,es-419;q=0.9,es;q=0.8","true","null","","null","","","delay_block","","","","","","2","26",""
"","","","","","html-keyboard-response","155","483143","0.0-183.0-1.0","55","1","2023-11-01 12:36:17","a725c3012b74bf33a1020a98cb69c237","146.112.49.175","Mozilla/5.0 (Windows NT 10.0; Win64; x64) AppleWebKit/537.36 (KHTML, like Gecko) Chrome/118.0.0.0 Safari/537.36","WebKit","Chrome","118.0.0.0","Windows","10.0","null","es-US,es-419;q=0.9,es;q=0.8","true","null","<p id=""stimulus"" style=""font-size:60px;"">treinta y uno</p>","null","","","tone_number_task_remaining_before_delay","","treinta y uno","","251.5","60","2","26",""
"","","","","","html-keyboard-response","156","483735","0.0-186.0-0.0","55","1","2023-11-01 12:36:17","a725c3012b74bf33a1020a98cb69c237","146.112.49.175","Mozilla/5.0 (Windows NT 10.0; Win64; x64) AppleWebKit/537.36 (KHTML, like Gecko) Chrome/118.0.0.0 Safari/537.36","WebKit","Chrome","118.0.0.0","Windows","10.0","null","es-US,es-419;q=0.9,es;q=0.8","true","589","<p id=""stimulus"" style=""font-size:60px;"">treinta y uno</p>","j","","","empty_block","","treinta y uno","","","","2","26",""
"","","","","","html-keyboard-response","157","486673","0.0-187.0","55","1","2023-11-01 12:36:17","a725c3012b74bf33a1020a98cb69c237","146.112.49.175","Mozilla/5.0 (Windows NT 10.0; Win64; x64) AppleWebKit/537.36 (KHTML, like Gecko) Chrome/118.0.0.0 Safari/537.36","WebKit","Chrome","118.0.0.0","Windows","10.0","null","es-US,es-419;q=0.9,es;q=0.8","true","null","<div style=""font-size:100px;"">X</div>","null","","","fixation","","","","","","","",""
"","","","","","audio-keyboard-response","158","487476","0.0-188.0","55","1","2023-11-01 12:36:17","a725c3012b74bf33a1020a98cb69c237","146.112.49.175","Mozilla/5.0 (Windows NT 10.0; Win64; x64) AppleWebKit/537.36 (KHTML, like Gecko) Chrome/118.0.0.0 Safari/537.36","WebKit","Chrome","118.0.0.0","Windows","10.0","null","es-US,es-419;q=0.9,es;q=0.8","true","800","tones/440hz_short.mp3","a","","","tone_number_task","992.5","cuarenta","tones/440hz_short.mp3","1142.5","60","2","27",""
"","","","","","html-keyboard-response","159","487673","0.0-189.0-0.0","55","1","2023-11-01 12:36:17","a725c3012b74bf33a1020a98cb69c237","146.112.49.175","Mozilla/5.0 (Windows NT 10.0; Win64; x64) AppleWebKit/537.36 (KHTML, like Gecko) Chrome/118.0.0.0 Safari/537.36","WebKit","Chrome","118.0.0.0","Windows","10.0","null","es-US,es-419;q=0.9,es;q=0.8","true","null","","null","","","delay_block","","","","","","2","27",""
"","","","","","html-keyboard-response","160","487829","0.0-189.0-1.0","55","1","2023-11-01 12:36:17","a725c3012b74bf33a1020a98cb69c237","146.112.49.175","Mozilla/5.0 (Windows NT 10.0; Win64; x64) AppleWebKit/537.36 (KHTML, like Gecko) Chrome/118.0.0.0 Safari/537.36","WebKit","Chrome","118.0.0.0","Windows","10.0","null","es-US,es-419;q=0.9,es;q=0.8","true","null","<p id=""stimulus"" style=""font-size:60px;"">cuarenta</p>","null","","","tone_number_task_remaining_before_delay","","cuarenta","","342.5","60","2","27",""
"","","","","","html-keyboard-response","161","488386","0.0-192.0-0.0","55","1","2023-11-01 12:36:17","a725c3012b74bf33a1020a98cb69c237","146.112.49.175","Mozilla/5.0 (Windows NT 10.0; Win64; x64) AppleWebKit/537.36 (KHTML, like Gecko) Chrome/118.0.0.0 Safari/537.36","WebKit","Chrome","118.0.0.0","Windows","10.0","null","es-US,es-419;q=0.9,es;q=0.8","true","553","<p id=""stimulus"" style=""font-size:60px;"">cuarenta</p>","j","","","empty_block","","cuarenta","","","","2","27",""
"","","","","","html-keyboard-response","162","491325","0.0-193.0","55","1","2023-11-01 12:36:17","a725c3012b74bf33a1020a98cb69c237","146.112.49.175","Mozilla/5.0 (Windows NT 10.0; Win64; x64) AppleWebKit/537.36 (KHTML, like Gecko) Chrome/118.0.0.0 Safari/537.36","WebKit","Chrome","118.0.0.0","Windows","10.0","null","es-US,es-419;q=0.9,es;q=0.8","true","null","<div style=""font-size:100px;"">X</div>","null","","","fixation","","","","","","","",""
"","","","","","audio-keyboard-response","163","491482","0.0-194.0","55","1","2023-11-01 12:36:17","a725c3012b74bf33a1020a98cb69c237","146.112.49.175","Mozilla/5.0 (Windows NT 10.0; Win64; x64) AppleWebKit/537.36 (KHTML, like Gecko) Chrome/118.0.0.0 Safari/537.36","WebKit","Chrome","118.0.0.0","Windows","10.0","null","es-US,es-419;q=0.9,es;q=0.8","true","null","tones/880hz_short.mp3","null","","","tone_number_task","0","cincuenta y cinco","tones/880hz_short.mp3","150","60","2","28",""
"","","","","","html-keyboard-response","164","492689","0.0-197.0-0.0","55","1","2023-11-01 12:36:17","a725c3012b74bf33a1020a98cb69c237","146.112.49.175","Mozilla/5.0 (Windows NT 10.0; Win64; x64) AppleWebKit/537.36 (KHTML, like Gecko) Chrome/118.0.0.0 Safari/537.36","WebKit","Chrome","118.0.0.0","Windows","10.0","null","es-US,es-419;q=0.9,es;q=0.8","true","null","tones/880hz_short.mp3","null","","","empty_block","","cincuenta y cinco","","","","2","28",""
"","","","","","html-keyboard-response","165","492697","0.0-197.0-1.0","55","1","2023-11-01 12:36:17","a725c3012b74bf33a1020a98cb69c237","146.112.49.175","Mozilla/5.0 (Windows NT 10.0; Win64; x64) AppleWebKit/537.36 (KHTML, like Gecko) Chrome/118.0.0.0 Safari/537.36","WebKit","Chrome","118.0.0.0","Windows","10.0","null","es-US,es-419;q=0.9,es;q=0.8","true","6","tones/880hz_short.mp3","s","","","empty_block","","cincuenta y cinco","","","","2","28",""
"","","","","","html-keyboard-response","166","495633","0.0-199.0","55","1","2023-11-01 12:36:17","a725c3012b74bf33a1020a98cb69c237","146.112.49.175","Mozilla/5.0 (Windows NT 10.0; Win64; x64) AppleWebKit/537.36 (KHTML, like Gecko) Chrome/118.0.0.0 Safari/537.36","WebKit","Chrome","118.0.0.0","Windows","10.0","null","es-US,es-419;q=0.9,es;q=0.8","true","null","<div style=""font-size:100px;"">X</div>","null","","","fixation","","","","","","","",""
"","","","","","audio-keyboard-response","167","495789","0.0-200.0","55","1","2023-11-01 12:36:17","a725c3012b74bf33a1020a98cb69c237","146.112.49.175","Mozilla/5.0 (Windows NT 10.0; Win64; x64) AppleWebKit/537.36 (KHTML, like Gecko) Chrome/118.0.0.0 Safari/537.36","WebKit","Chrome","118.0.0.0","Windows","10.0","null","es-US,es-419;q=0.9,es;q=0.8","true","null","tones/880hz_short.mp3","null","","","tone_number_task","0","treinta y cinco","tones/880hz_short.mp3","150","60","2","29",""
"","","","","","html-keyboard-response","168","496604","0.0-203.0-0.0","55","1","2023-11-01 12:36:17","a725c3012b74bf33a1020a98cb69c237","146.112.49.175","Mozilla/5.0 (Windows NT 10.0; Win64; x64) AppleWebKit/537.36 (KHTML, like Gecko) Chrome/118.0.0.0 Safari/537.36","WebKit","Chrome","118.0.0.0","Windows","10.0","null","es-US,es-419;q=0.9,es;q=0.8","true","811","tones/880hz_short.mp3","s","","","empty_block","","treinta y cinco","","","","2","29",""
"","","","","","html-keyboard-response","169","497233","0.0-203.0-1.0","55","1","2023-11-01 12:36:17","a725c3012b74bf33a1020a98cb69c237","146.112.49.175","Mozilla/5.0 (Windows NT 10.0; Win64; x64) AppleWebKit/537.36 (KHTML, like Gecko) Chrome/118.0.0.0 Safari/537.36","WebKit","Chrome","118.0.0.0","Windows","10.0","null","es-US,es-419;q=0.9,es;q=0.8","true","625","tones/880hz_short.mp3","j","","","empty_block","","treinta y cinco","","","","2","29",""
"","","","","","html-keyboard-response","170","500170","0.0-205.0","55","1","2023-11-01 12:36:17","a725c3012b74bf33a1020a98cb69c237","146.112.49.175","Mozilla/5.0 (Windows NT 10.0; Win64; x64) AppleWebKit/537.36 (KHTML, like Gecko) Chrome/118.0.0.0 Safari/537.36","WebKit","Chrome","118.0.0.0","Windows","10.0","null","es-US,es-419;q=0.9,es;q=0.8","true","null","<div style=""font-size:100px;"">X</div>","null","","","fixation","","","","","","","",""
"","","","","","audio-keyboard-response","171","500428","0.0-206.0","55","1","2023-11-01 12:36:17","a725c3012b74bf33a1020a98cb69c237","146.112.49.175","Mozilla/5.0 (Windows NT 10.0; Win64; x64) AppleWebKit/537.36 (KHTML, like Gecko) Chrome/118.0.0.0 Safari/537.36","WebKit","Chrome","118.0.0.0","Windows","10.0","null","es-US,es-419;q=0.9,es;q=0.8","true","null","tones/440hz_short.mp3","null","","","tone_number_task","102.5","cincuenta y tres","tones/440hz_short.mp3","252.5","60","2","30",""
"","","","","","html-keyboard-response","172","501364","0.0-209.0-0.0","55","1","2023-11-01 12:36:17","a725c3012b74bf33a1020a98cb69c237","146.112.49.175","Mozilla/5.0 (Windows NT 10.0; Win64; x64) AppleWebKit/537.36 (KHTML, like Gecko) Chrome/118.0.0.0 Safari/537.36","WebKit","Chrome","118.0.0.0","Windows","10.0","null","es-US,es-419;q=0.9,es;q=0.8","true","933","tones/440hz_short.mp3","a","","","empty_block","","cincuenta y tres","","","","2","30",""
"","","","","","html-keyboard-response","173","501906","0.0-209.0-1.0","55","1","2023-11-01 12:36:17","a725c3012b74bf33a1020a98cb69c237","146.112.49.175","Mozilla/5.0 (Windows NT 10.0; Win64; x64) AppleWebKit/537.36 (KHTML, like Gecko) Chrome/118.0.0.0 Safari/537.36","WebKit","Chrome","118.0.0.0","Windows","10.0","null","es-US,es-419;q=0.9,es;q=0.8","true","537","tones/440hz_short.mp3","j","","","empty_block","","cincuenta y tres","","","","2","30",""
"","","","","","html-keyboard-response","174","504844","0.0-211.0","55","1","2023-11-01 12:36:17","a725c3012b74bf33a1020a98cb69c237","146.112.49.175","Mozilla/5.0 (Windows NT 10.0; Win64; x64) AppleWebKit/537.36 (KHTML, like Gecko) Chrome/118.0.0.0 Safari/537.36","WebKit","Chrome","118.0.0.0","Windows","10.0","null","es-US,es-419;q=0.9,es;q=0.8","true","null","<div style=""font-size:100px;"">X</div>","null","","","fixation","","","","","","","",""
"","","","","","audio-keyboard-response","175","505978","0.0-212.0","55","1","2023-11-01 12:36:17","a725c3012b74bf33a1020a98cb69c237","146.112.49.175","Mozilla/5.0 (Windows NT 10.0; Win64; x64) AppleWebKit/537.36 (KHTML, like Gecko) Chrome/118.0.0.0 Safari/537.36","WebKit","Chrome","118.0.0.0","Windows","10.0","null","es-US,es-419;q=0.9,es;q=0.8","true","1120","tones/880hz_short.mp3","s","","","tone_number_task","1025","sesenta y ocho","tones/880hz_short.mp3","1175","60","2","31",""
"","","","","","html-keyboard-response","176","506040","0.0-214.0-0.0","55","1","2023-11-01 12:36:17","a725c3012b74bf33a1020a98cb69c237","146.112.49.175","Mozilla/5.0 (Windows NT 10.0; Win64; x64) AppleWebKit/537.36 (KHTML, like Gecko) Chrome/118.0.0.0 Safari/537.36","WebKit","Chrome","118.0.0.0","Windows","10.0","null","es-US,es-419;q=0.9,es;q=0.8","true","null","<p id=""stimulus"" style=""font-size:60px;"">sesenta y ocho</p>","null","","","tone_number_task_remaining_after_delay","","sesenta y ocho","","","60","2","31",""
"","","","","","html-keyboard-response","177","506666","0.0-216.0-0.0","55","1","2023-11-01 12:36:17","a725c3012b74bf33a1020a98cb69c237","146.112.49.175","Mozilla/5.0 (Windows NT 10.0; Win64; x64) AppleWebKit/537.36 (KHTML, like Gecko) Chrome/118.0.0.0 Safari/537.36","WebKit","Chrome","118.0.0.0","Windows","10.0","null","es-US,es-419;q=0.9,es;q=0.8","true","621","<p id=""stimulus"" style=""font-size:60px;"">sesenta y ocho</p>","k","","","empty_block","","sesenta y ocho","","","","2","31",""
"","","","","","html-keyboard-response","178","509607","0.0-217.0","55","1","2023-11-01 12:36:17","a725c3012b74bf33a1020a98cb69c237","146.112.49.175","Mozilla/5.0 (Windows NT 10.0; Win64; x64) AppleWebKit/537.36 (KHTML, like Gecko) Chrome/118.0.0.0 Safari/537.36","WebKit","Chrome","118.0.0.0","Windows","10.0","null","es-US,es-419;q=0.9,es;q=0.8","true","null","<div style=""font-size:100px;"">X</div>","null","","","fixation","","","","","","","",""
"","","","","","audio-keyboard-response","179","510786","0.0-218.0","55","1","2023-11-01 12:36:17","a725c3012b74bf33a1020a98cb69c237","146.112.49.175","Mozilla/5.0 (Windows NT 10.0; Win64; x64) AppleWebKit/537.36 (KHTML, like Gecko) Chrome/118.0.0.0 Safari/537.36","WebKit","Chrome","118.0.0.0","Windows","10.0","null","es-US,es-419;q=0.9,es;q=0.8","true","null","tones/440hz_short.mp3","null","","","tone_number_task","1025","sesenta y ocho","tones/440hz_short.mp3","1175","60","2","32",""
"","","","","","html-keyboard-response","180","511836","0.0-221.0-0.0","55","1","2023-11-01 12:36:17","a725c3012b74bf33a1020a98cb69c237","146.112.49.175","Mozilla/5.0 (Windows NT 10.0; Win64; x64) AppleWebKit/537.36 (KHTML, like Gecko) Chrome/118.0.0.0 Safari/537.36","WebKit","Chrome","118.0.0.0","Windows","10.0","null","es-US,es-419;q=0.9,es;q=0.8","true","1044","tones/440hz_short.mp3","s","","","empty_block","","sesenta y ocho","","","","2","32",""
"","","","","","html-keyboard-response","181","512528","0.0-221.0-1.0","55","1","2023-11-01 12:36:17","a725c3012b74bf33a1020a98cb69c237","146.112.49.175","Mozilla/5.0 (Windows NT 10.0; Win64; x64) AppleWebKit/537.36 (KHTML, like Gecko) Chrome/118.0.0.0 Safari/537.36","WebKit","Chrome","118.0.0.0","Windows","10.0","null","es-US,es-419;q=0.9,es;q=0.8","true","687","tones/440hz_short.mp3","k","","","empty_block","","sesenta y ocho","","","","2","32",""
"","","","","","html-keyboard-response","182","515467","0.0-223.0","55","1","2023-11-01 12:36:17","a725c3012b74bf33a1020a98cb69c237","146.112.49.175","Mozilla/5.0 (Windows NT 10.0; Win64; x64) AppleWebKit/537.36 (KHTML, like Gecko) Chrome/118.0.0.0 Safari/537.36","WebKit","Chrome","118.0.0.0","Windows","10.0","null","es-US,es-419;q=0.9,es;q=0.8","true","null","<div style=""font-size:100px;"">X</div>","null","","","fixation","","","","","","","",""
"","","","","","audio-keyboard-response","183","515620","0.0-224.0","55","1","2023-11-01 12:36:17","a725c3012b74bf33a1020a98cb69c237","146.112.49.175","Mozilla/5.0 (Windows NT 10.0; Win64; x64) AppleWebKit/537.36 (KHTML, like Gecko) Chrome/118.0.0.0 Safari/537.36","WebKit","Chrome","118.0.0.0","Windows","10.0","null","es-US,es-419;q=0.9,es;q=0.8","true","null","tones/880hz_short.mp3","null","","","tone_number_task","0","cuarenta","tones/880hz_short.mp3","150","60","2","33",""
"","","","","","html-keyboard-response","184","516827","0.0-227.0-0.0","55","1","2023-11-01 12:36:17","a725c3012b74bf33a1020a98cb69c237","146.112.49.175","Mozilla/5.0 (Windows NT 10.0; Win64; x64) AppleWebKit/537.36 (KHTML, like Gecko) Chrome/118.0.0.0 Safari/537.36","WebKit","Chrome","118.0.0.0","Windows","10.0","null","es-US,es-419;q=0.9,es;q=0.8","true","null","tones/880hz_short.mp3","null","","","empty_block","","cuarenta","","","","2","33",""
"","","","","","html-keyboard-response","185","516957","0.0-227.0-1.0","55","1","2023-11-01 12:36:17","a725c3012b74bf33a1020a98cb69c237","146.112.49.175","Mozilla/5.0 (Windows NT 10.0; Win64; x64) AppleWebKit/537.36 (KHTML, like Gecko) Chrome/118.0.0.0 Safari/537.36","WebKit","Chrome","118.0.0.0","Windows","10.0","null","es-US,es-419;q=0.9,es;q=0.8","true","125","tones/880hz_short.mp3","s","","","empty_block","","cuarenta","","","","2","33",""
"","","","","","html-keyboard-response","186","519896","0.0-229.0","55","1","2023-11-01 12:36:17","a725c3012b74bf33a1020a98cb69c237","146.112.49.175","Mozilla/5.0 (Windows NT 10.0; Win64; x64) AppleWebKit/537.36 (KHTML, like Gecko) Chrome/118.0.0.0 Safari/537.36","WebKit","Chrome","118.0.0.0","Windows","10.0","null","es-US,es-419;q=0.9,es;q=0.8","true","null","<div style=""font-size:100px;"">X</div>","null","","","fixation","","","","","","","",""
"","","","","","audio-keyboard-response","187","521078","0.0-230.0","55","1","2023-11-01 12:36:17","a725c3012b74bf33a1020a98cb69c237","146.112.49.175","Mozilla/5.0 (Windows NT 10.0; Win64; x64) AppleWebKit/537.36 (KHTML, like Gecko) Chrome/118.0.0.0 Safari/537.36","WebKit","Chrome","118.0.0.0","Windows","10.0","null","es-US,es-419;q=0.9,es;q=0.8","true","null","tones/440hz_short.mp3","null","","","tone_number_task","1025","cuarenta y uno","tones/440hz_short.mp3","1175","60","2","34",""
"","","","","","html-keyboard-response","188","521157","0.0-233.0-0.0","55","1","2023-11-01 12:36:17","a725c3012b74bf33a1020a98cb69c237","146.112.49.175","Mozilla/5.0 (Windows NT 10.0; Win64; x64) AppleWebKit/537.36 (KHTML, like Gecko) Chrome/118.0.0.0 Safari/537.36","WebKit","Chrome","118.0.0.0","Windows","10.0","null","es-US,es-419;q=0.9,es;q=0.8","true","73","tones/440hz_short.mp3","a","","","empty_block","","cuarenta y uno","","","","2","34",""
"","","","","","html-keyboard-response","189","521919","0.0-233.0-1.0","55","1","2023-11-01 12:36:17","a725c3012b74bf33a1020a98cb69c237","146.112.49.175","Mozilla/5.0 (Windows NT 10.0; Win64; x64) AppleWebKit/537.36 (KHTML, like Gecko) Chrome/118.0.0.0 Safari/537.36","WebKit","Chrome","118.0.0.0","Windows","10.0","null","es-US,es-419;q=0.9,es;q=0.8","true","755","tones/440hz_short.mp3","j","","","empty_block","","cuarenta y uno","","","","2","34",""
"","","","","","html-keyboard-response","190","524858","0.0-235.0","55","1","2023-11-01 12:36:17","a725c3012b74bf33a1020a98cb69c237","146.112.49.175","Mozilla/5.0 (Windows NT 10.0; Win64; x64) AppleWebKit/537.36 (KHTML, like Gecko) Chrome/118.0.0.0 Safari/537.36","WebKit","Chrome","118.0.0.0","Windows","10.0","null","es-US,es-419;q=0.9,es;q=0.8","true","null","<div style=""font-size:100px;"">X</div>","null","","","fixation","","","","","","","",""
"","","","","","audio-keyboard-response","191","525116","0.0-236.0","55","1","2023-11-01 12:36:17","a725c3012b74bf33a1020a98cb69c237","146.112.49.175","Mozilla/5.0 (Windows NT 10.0; Win64; x64) AppleWebKit/537.36 (KHTML, like Gecko) Chrome/118.0.0.0 Safari/537.36","WebKit","Chrome","118.0.0.0","Windows","10.0","null","es-US,es-419;q=0.9,es;q=0.8","true","null","tones/880hz_short.mp3","null","","","tone_number_task","102.5","sesenta","tones/880hz_short.mp3","252.5","60","2","35",""
"","","","","","html-keyboard-response","192","525916","0.0-239.0-0.0","55","1","2023-11-01 12:36:17","a725c3012b74bf33a1020a98cb69c237","146.112.49.175","Mozilla/5.0 (Windows NT 10.0; Win64; x64) AppleWebKit/537.36 (KHTML, like Gecko) Chrome/118.0.0.0 Safari/537.36","WebKit","Chrome","118.0.0.0","Windows","10.0","null","es-US,es-419;q=0.9,es;q=0.8","true","796","tones/880hz_short.mp3","s","","","empty_block","","sesenta","","","","2","35",""
"","","","","","html-keyboard-response","193","526337","0.0-239.0-1.0","55","1","2023-11-01 12:36:17","a725c3012b74bf33a1020a98cb69c237","146.112.49.175","Mozilla/5.0 (Windows NT 10.0; Win64; x64) AppleWebKit/537.36 (KHTML, like Gecko) Chrome/118.0.0.0 Safari/537.36","WebKit","Chrome","118.0.0.0","Windows","10.0","null","es-US,es-419;q=0.9,es;q=0.8","true","415","tones/880hz_short.mp3","k","","","empty_block","","sesenta","","","","2","35",""
"","","","","","html-keyboard-response","194","529275","0.0-241.0","55","1","2023-11-01 12:36:17","a725c3012b74bf33a1020a98cb69c237","146.112.49.175","Mozilla/5.0 (Windows NT 10.0; Win64; x64) AppleWebKit/537.36 (KHTML, like Gecko) Chrome/118.0.0.0 Safari/537.36","WebKit","Chrome","118.0.0.0","Windows","10.0","null","es-US,es-419;q=0.9,es;q=0.8","true","null","<div style=""font-size:100px;"">X</div>","null","","","fixation","","","","","","","",""
"","","","","","audio-keyboard-response","195","529432","0.0-242.0","55","1","2023-11-01 12:36:17","a725c3012b74bf33a1020a98cb69c237","146.112.49.175","Mozilla/5.0 (Windows NT 10.0; Win64; x64) AppleWebKit/537.36 (KHTML, like Gecko) Chrome/118.0.0.0 Safari/537.36","WebKit","Chrome","118.0.0.0","Windows","10.0","null","es-US,es-419;q=0.9,es;q=0.8","true","null","tones/440hz_short.mp3","null","","","tone_number_task","0","treinta y uno","tones/440hz_short.mp3","150","60","2","36",""
"","","","","","html-keyboard-response","196","530142","0.0-245.0-0.0","55","1","2023-11-01 12:36:17","a725c3012b74bf33a1020a98cb69c237","146.112.49.175","Mozilla/5.0 (Windows NT 10.0; Win64; x64) AppleWebKit/537.36 (KHTML, like Gecko) Chrome/118.0.0.0 Safari/537.36","WebKit","Chrome","118.0.0.0","Windows","10.0","null","es-US,es-419;q=0.9,es;q=0.8","true","706","tones/440hz_short.mp3","a","","","empty_block","","treinta y uno","","","","2","36",""
"","","","","","html-keyboard-response","197","530623","0.0-245.0-1.0","55","1","2023-11-01 12:36:17","a725c3012b74bf33a1020a98cb69c237","146.112.49.175","Mozilla/5.0 (Windows NT 10.0; Win64; x64) AppleWebKit/537.36 (KHTML, like Gecko) Chrome/118.0.0.0 Safari/537.36","WebKit","Chrome","118.0.0.0","Windows","10.0","null","es-US,es-419;q=0.9,es;q=0.8","true","476","tones/440hz_short.mp3","j","","","empty_block","","treinta y uno","","","","2","36",""
"","","","","","html-keyboard-response","198","533560","0.0-247.0","55","1","2023-11-01 12:36:17","a725c3012b74bf33a1020a98cb69c237","146.112.49.175","Mozilla/5.0 (Windows NT 10.0; Win64; x64) AppleWebKit/537.36 (KHTML, like Gecko) Chrome/118.0.0.0 Safari/537.36","WebKit","Chrome","118.0.0.0","Windows","10.0","null","es-US,es-419;q=0.9,es;q=0.8","true","null","<div style=""font-size:100px;"">X</div>","null","","","fixation","","","","","","","",""
"","","","","","audio-keyboard-response","199","534044","0.0-248.0","55","1","2023-11-01 12:36:17","a725c3012b74bf33a1020a98cb69c237","146.112.49.175","Mozilla/5.0 (Windows NT 10.0; Win64; x64) AppleWebKit/537.36 (KHTML, like Gecko) Chrome/118.0.0.0 Safari/537.36","WebKit","Chrome","118.0.0.0","Windows","10.0","null","es-US,es-419;q=0.9,es;q=0.8","true","480","tones/440hz_short.mp3","a","","","tone_number_task","992.5","cincuenta y cinco","tones/440hz_short.mp3","1142.5","60","2","37",""
"","","","","","html-keyboard-response","200","534562","0.0-249.0-0.0","55","1","2023-11-01 12:36:17","a725c3012b74bf33a1020a98cb69c237","146.112.49.175","Mozilla/5.0 (Windows NT 10.0; Win64; x64) AppleWebKit/537.36 (KHTML, like Gecko) Chrome/118.0.0.0 Safari/537.36","WebKit","Chrome","118.0.0.0","Windows","10.0","null","es-US,es-419;q=0.9,es;q=0.8","true","null","","null","","","delay_block","","","","","","2","37",""
"","","","","","html-keyboard-response","201","534719","0.0-249.0-1.0","55","1","2023-11-01 12:36:17","a725c3012b74bf33a1020a98cb69c237","146.112.49.175","Mozilla/5.0 (Windows NT 10.0; Win64; x64) AppleWebKit/537.36 (KHTML, like Gecko) Chrome/118.0.0.0 Safari/537.36","WebKit","Chrome","118.0.0.0","Windows","10.0","null","es-US,es-419;q=0.9,es;q=0.8","true","null","<p id=""stimulus"" style=""font-size:60px;"">cincuenta y cinco</p>","null","","","tone_number_task_remaining_before_delay","","cincuenta y cinco","","662.5","60","2","37",""
"","","","","","html-keyboard-response","202","535654","0.0-252.0-0.0","55","1","2023-11-01 12:36:17","a725c3012b74bf33a1020a98cb69c237","146.112.49.175","Mozilla/5.0 (Windows NT 10.0; Win64; x64) AppleWebKit/537.36 (KHTML, like Gecko) Chrome/118.0.0.0 Safari/537.36","WebKit","Chrome","118.0.0.0","Windows","10.0","null","es-US,es-419;q=0.9,es;q=0.8","true","929","<p id=""stimulus"" style=""font-size:60px;"">cincuenta y cinco</p>","k","","","empty_block","","cincuenta y cinco","","","","2","37",""
"","","","","","html-keyboard-response","203","538594","0.0-253.0","55","1","2023-11-01 12:36:17","a725c3012b74bf33a1020a98cb69c237","146.112.49.175","Mozilla/5.0 (Windows NT 10.0; Win64; x64) AppleWebKit/537.36 (KHTML, like Gecko) Chrome/118.0.0.0 Safari/537.36","WebKit","Chrome","118.0.0.0","Windows","10.0","null","es-US,es-419;q=0.9,es;q=0.8","true","null","<div style=""font-size:100px;"">X</div>","null","","","fixation","","","","","","","",""
"","","","","","audio-keyboard-response","204","539556","0.0-254.0","55","1","2023-11-01 12:36:17","a725c3012b74bf33a1020a98cb69c237","146.112.49.175","Mozilla/5.0 (Windows NT 10.0; Win64; x64) AppleWebKit/537.36 (KHTML, like Gecko) Chrome/118.0.0.0 Safari/537.36","WebKit","Chrome","118.0.0.0","Windows","10.0","null","es-US,es-419;q=0.9,es;q=0.8","true","949","tones/880hz_short.mp3","s","","","tone_number_task","1025","veintiocho","tones/880hz_short.mp3","1175","60","2","38",""
"","","","","","html-keyboard-response","205","539638","0.0-255.0-0.0","55","1","2023-11-01 12:36:17","a725c3012b74bf33a1020a98cb69c237","146.112.49.175","Mozilla/5.0 (Windows NT 10.0; Win64; x64) AppleWebKit/537.36 (KHTML, like Gecko) Chrome/118.0.0.0 Safari/537.36","WebKit","Chrome","118.0.0.0","Windows","10.0","null","es-US,es-419;q=0.9,es;q=0.8","true","null","","null","","","delay_block","","","","","","2","38",""
"","","","","","html-keyboard-response","206","539795","0.0-255.0-1.0","55","1","2023-11-01 12:36:17","a725c3012b74bf33a1020a98cb69c237","146.112.49.175","Mozilla/5.0 (Windows NT 10.0; Win64; x64) AppleWebKit/537.36 (KHTML, like Gecko) Chrome/118.0.0.0 Safari/537.36","WebKit","Chrome","118.0.0.0","Windows","10.0","null","es-US,es-419;q=0.9,es;q=0.8","true","null","<p id=""stimulus"" style=""font-size:60px;"">veintiocho</p>","null","","","tone_number_task_remaining_before_delay","","veintiocho","","226","60","2","38",""
"","","","","","html-keyboard-response","207","540488","0.0-258.0-0.0","55","1","2023-11-01 12:36:17","a725c3012b74bf33a1020a98cb69c237","146.112.49.175","Mozilla/5.0 (Windows NT 10.0; Win64; x64) AppleWebKit/537.36 (KHTML, like Gecko) Chrome/118.0.0.0 Safari/537.36","WebKit","Chrome","118.0.0.0","Windows","10.0","null","es-US,es-419;q=0.9,es;q=0.8","true","688","<p id=""stimulus"" style=""font-size:60px;"">veintiocho</p>","j","","","empty_block","","veintiocho","","","","2","38",""
"","","","","","html-keyboard-response","208","543425","0.0-259.0","55","1","2023-11-01 12:36:17","a725c3012b74bf33a1020a98cb69c237","146.112.49.175","Mozilla/5.0 (Windows NT 10.0; Win64; x64) AppleWebKit/537.36 (KHTML, like Gecko) Chrome/118.0.0.0 Safari/537.36","WebKit","Chrome","118.0.0.0","Windows","10.0","null","es-US,es-419;q=0.9,es;q=0.8","true","null","<div style=""font-size:100px;"">X</div>","null","","","fixation","","","","","","","",""
"","","","","","audio-keyboard-response","209","543582","0.0-260.0","55","1","2023-11-01 12:36:17","a725c3012b74bf33a1020a98cb69c237","146.112.49.175","Mozilla/5.0 (Windows NT 10.0; Win64; x64) AppleWebKit/537.36 (KHTML, like Gecko) Chrome/118.0.0.0 Safari/537.36","WebKit","Chrome","118.0.0.0","Windows","10.0","null","es-US,es-419;q=0.9,es;q=0.8","true","null","tones/440hz_short.mp3","null","","","tone_number_task","0","cincuenta y seis","tones/440hz_short.mp3","150","60","2","39",""
"","","","","","html-keyboard-response","210","544785","0.0-263.0-0.0","55","1","2023-11-01 12:36:17","a725c3012b74bf33a1020a98cb69c237","146.112.49.175","Mozilla/5.0 (Windows NT 10.0; Win64; x64) AppleWebKit/537.36 (KHTML, like Gecko) Chrome/118.0.0.0 Safari/537.36","WebKit","Chrome","118.0.0.0","Windows","10.0","null","es-US,es-419;q=0.9,es;q=0.8","true","null","tones/440hz_short.mp3","null","","","empty_block","","cincuenta y seis","","","","2","39",""
"","","","","","html-keyboard-response","211","545012","0.0-263.0-1.0","55","1","2023-11-01 12:36:17","a725c3012b74bf33a1020a98cb69c237","146.112.49.175","Mozilla/5.0 (Windows NT 10.0; Win64; x64) AppleWebKit/537.36 (KHTML, like Gecko) Chrome/118.0.0.0 Safari/537.36","WebKit","Chrome","118.0.0.0","Windows","10.0","null","es-US,es-419;q=0.9,es;q=0.8","true","222","tones/440hz_short.mp3","a","","","empty_block","","cincuenta y seis","","","","2","39",""
