"success","timeout","failed_images","failed_audio","failed_video","trial_type","trial_index","time_elapsed","internal_node_id","run_id","condition","recorded_at","source_code_version","ip","user_agent","device","browser","browser_version","platform","platform_version","referer","accept_language","check","rt","stimulus","response","question_order","url","task","delay","number","audioFile","trial_duration","font_size","block","round","value"
"true","false","[]","[]","[]","preload","0","172","0.0-0.0","43","1","2023-10-31 21:39:34","a725c3012b74bf33a1020a98cb69c237","181.31.144.122","Mozilla/5.0 (Windows NT 10.0; Win64; x64) AppleWebKit/537.36 (KHTML, like Gecko) Chrome/118.0.0.0 Safari/537.36","WebKit","Chrome","118.0.0.0","Windows","10.0","null","en-US,en;q=0.9","true","","","","","","","","","","","","","",""
"true","","","","","fullscreen","1","3136","0.0-1.0","43","1","2023-10-31 21:39:34","a725c3012b74bf33a1020a98cb69c237","181.31.144.122","Mozilla/5.0 (Windows NT 10.0; Win64; x64) AppleWebKit/537.36 (KHTML, like Gecko) Chrome/118.0.0.0 Safari/537.36","WebKit","Chrome","118.0.0.0","Windows","10.0","null","en-US,en;q=0.9","true","","","","","","","","","","","","","",""
"","","","","","html-button-response","2","10556","0.0-2.0","43","1","2023-10-31 21:39:34","a725c3012b74bf33a1020a98cb69c237","181.31.144.122","Mozilla/5.0 (Windows NT 10.0; Win64; x64) AppleWebKit/537.36 (KHTML, like Gecko) Chrome/118.0.0.0 Safari/537.36","WebKit","Chrome","118.0.0.0","Windows","10.0","null","en-US,en;q=0.9","true","7412","<p style=""font-size:24px; color:red;"">Cosas importantes a tener en cuenta antes de comenzar el experimento:</p>","0","","","","","","","","","","",""
"","","","","","html-button-response","3","18768","0.0-3.0","43","1","2023-10-31 21:39:34","a725c3012b74bf33a1020a98cb69c237","181.31.144.122","Mozilla/5.0 (Windows NT 10.0; Win64; x64) AppleWebKit/537.36 (KHTML, like Gecko) Chrome/118.0.0.0 Safari/537.36","WebKit","Chrome","118.0.0.0","Windows","10.0","null","en-US,en;q=0.9","true","8208","<p style=""font-size:24px;"">El experimento dura aproximadamente 15 minutos.</p><p style=""font-size:24px;"">Por favor, no cierres la ventana del navegador durante el experimento.</p><p style=""font-size:24px;"">Si se completa de forma parcial, no se guardará ningún resultado.</p>","0","","","","","","","","","","",""
"","","","","","html-button-response","4","21715","0.0-4.0","43","1","2023-10-31 21:39:34","a725c3012b74bf33a1020a98cb69c237","181.31.144.122","Mozilla/5.0 (Windows NT 10.0; Win64; x64) AppleWebKit/537.36 (KHTML, like Gecko) Chrome/118.0.0.0 Safari/537.36","WebKit","Chrome","118.0.0.0","Windows","10.0","null","en-US,en;q=0.9","true","2940","<p style=""font-size:24px;"">El experimento contiene estímulos sonoros.</p>","0","","","","","","","","","","",""
"","","","","","audio-button-response","5","28678","0.0-5.0-0.0","43","1","2023-10-31 21:39:34","a725c3012b74bf33a1020a98cb69c237","181.31.144.122","Mozilla/5.0 (Windows NT 10.0; Win64; x64) AppleWebKit/537.36 (KHTML, like Gecko) Chrome/118.0.0.0 Safari/537.36","WebKit","Chrome","118.0.0.0","Windows","10.0","null","en-US,en;q=0.9","true","5480","tones/440hz_short.mp3","0","","","","","","","","","","",""
"","","","","","audio-button-response","6","30183","0.0-5.1-0.1","43","1","2023-10-31 21:39:34","a725c3012b74bf33a1020a98cb69c237","181.31.144.122","Mozilla/5.0 (Windows NT 10.0; Win64; x64) AppleWebKit/537.36 (KHTML, like Gecko) Chrome/118.0.0.0 Safari/537.36","WebKit","Chrome","118.0.0.0","Windows","10.0","null","en-US,en;q=0.9","true","1501","tones/440hz_short.mp3","0","","","","","","","","","","",""
"","","","","","audio-button-response","7","31593","0.0-5.2-0.2","43","1","2023-10-31 21:39:34","a725c3012b74bf33a1020a98cb69c237","181.31.144.122","Mozilla/5.0 (Windows NT 10.0; Win64; x64) AppleWebKit/537.36 (KHTML, like Gecko) Chrome/118.0.0.0 Safari/537.36","WebKit","Chrome","118.0.0.0","Windows","10.0","null","en-US,en;q=0.9","true","1400","tones/440hz_short.mp3","1","","","","","","","","","","",""
"","","","","","audio-button-response","8","32927","0.0-6.0-0.0","43","1","2023-10-31 21:39:34","a725c3012b74bf33a1020a98cb69c237","181.31.144.122","Mozilla/5.0 (Windows NT 10.0; Win64; x64) AppleWebKit/537.36 (KHTML, like Gecko) Chrome/118.0.0.0 Safari/537.36","WebKit","Chrome","118.0.0.0","Windows","10.0","null","en-US,en;q=0.9","true","1320","tones/880hz_short.mp3","1","","","","","","","","","","",""
"","","","","","survey-html-form","9","35628","0.0-7.0","43","1","2023-10-31 21:39:34","a725c3012b74bf33a1020a98cb69c237","181.31.144.122","Mozilla/5.0 (Windows NT 10.0; Win64; x64) AppleWebKit/537.36 (KHTML, like Gecko) Chrome/118.0.0.0 Safari/537.36","WebKit","Chrome","118.0.0.0","Windows","10.0","null","en-US,en;q=0.9","true","2691","","{""response"":""35""}","","","","","","","","","","",""
"","","","","","survey-multi-choice","10","40560","0.0-8.0","43","1","2023-10-31 21:39:34","a725c3012b74bf33a1020a98cb69c237","181.31.144.122","Mozilla/5.0 (Windows NT 10.0; Win64; x64) AppleWebKit/537.36 (KHTML, like Gecko) Chrome/118.0.0.0 Safari/537.36","WebKit","Chrome","118.0.0.0","Windows","10.0","null","en-US,en;q=0.9","true","4929","","{""gender"":""Hombre"",""hand"":""Izquierda""}","[0,1]","","","","","","","","","",""
"","","","","","external-html","11","93439","0.0-9.0","43","1","2023-10-31 21:39:34","a725c3012b74bf33a1020a98cb69c237","181.31.144.122","Mozilla/5.0 (Windows NT 10.0; Win64; x64) AppleWebKit/537.36 (KHTML, like Gecko) Chrome/118.0.0.0 Safari/537.36","WebKit","Chrome","118.0.0.0","Windows","10.0","null","en-US,en;q=0.9","true","52571","","","","instructions/instructions.html","","","","","","","","",""
"","","","","","external-html","12","155362","0.0-10.0","43","1","2023-10-31 21:39:34","a725c3012b74bf33a1020a98cb69c237","181.31.144.122","Mozilla/5.0 (Windows NT 10.0; Win64; x64) AppleWebKit/537.36 (KHTML, like Gecko) Chrome/118.0.0.0 Safari/537.36","WebKit","Chrome","118.0.0.0","Windows","10.0","null","en-US,en;q=0.9","true","61604","","","","instructions/animation.html","","","","","","","","",""
"","","","","","html-keyboard-response","13","158138","0.0-11.0-0.0","43","1","2023-10-31 21:39:34","a725c3012b74bf33a1020a98cb69c237","181.31.144.122","Mozilla/5.0 (Windows NT 10.0; Win64; x64) AppleWebKit/537.36 (KHTML, like Gecko) Chrome/118.0.0.0 Safari/537.36","WebKit","Chrome","118.0.0.0","Windows","10.0","null","en-US,en;q=0.9","true","null","<div style=""font-size:100px;"">X</div>","null","","","fixation","","","","","","","",""
"","","","","","audio-keyboard-response","14","159308","0.0-11.0-1.0","43","1","2023-10-31 21:39:34","a725c3012b74bf33a1020a98cb69c237","181.31.144.122","Mozilla/5.0 (Windows NT 10.0; Win64; x64) AppleWebKit/537.36 (KHTML, like Gecko) Chrome/118.0.0.0 Safari/537.36","WebKit","Chrome","118.0.0.0","Windows","10.0","null","en-US,en;q=0.9","true","null","tones/440hz_short.mp3","null","","","tone_number_task","1000","51","tones/440hz_short.mp3","1150","100","null","null",""
"","","","","","html-keyboard-response","15","161754","0.0-11.0-4.0-0.0","43","1","2023-10-31 21:39:34","a725c3012b74bf33a1020a98cb69c237","181.31.144.122","Mozilla/5.0 (Windows NT 10.0; Win64; x64) AppleWebKit/537.36 (KHTML, like Gecko) Chrome/118.0.0.0 Safari/537.36","WebKit","Chrome","118.0.0.0","Windows","10.0","null","en-US,en;q=0.9","true","2443","tones/440hz_short.mp3","a","","","empty_block","","51","","","","null","null",""
"","","","","","html-keyboard-response","16","162391","0.0-11.0-4.0-1.0","43","1","2023-10-31 21:39:34","a725c3012b74bf33a1020a98cb69c237","181.31.144.122","Mozilla/5.0 (Windows NT 10.0; Win64; x64) AppleWebKit/537.36 (KHTML, like Gecko) Chrome/118.0.0.0 Safari/537.36","WebKit","Chrome","118.0.0.0","Windows","10.0","null","en-US,en;q=0.9","true","636","tones/440hz_short.mp3","k","","","empty_block","","51","","","","null","null",""
"","","","","","html-keyboard-response","17","165157","0.0-13.0-0.0","43","1","2023-10-31 21:39:34","a725c3012b74bf33a1020a98cb69c237","181.31.144.122","Mozilla/5.0 (Windows NT 10.0; Win64; x64) AppleWebKit/537.36 (KHTML, like Gecko) Chrome/118.0.0.0 Safari/537.36","WebKit","Chrome","118.0.0.0","Windows","10.0","null","en-US,en;q=0.9","true","null","<div style=""font-size:100px;"">X</div>","null","","","fixation","","","","","","","",""
"","","","","","audio-keyboard-response","18","165822","0.0-13.0-1.0","43","1","2023-10-31 21:39:34","a725c3012b74bf33a1020a98cb69c237","181.31.144.122","Mozilla/5.0 (Windows NT 10.0; Win64; x64) AppleWebKit/537.36 (KHTML, like Gecko) Chrome/118.0.0.0 Safari/537.36","WebKit","Chrome","118.0.0.0","Windows","10.0","null","en-US,en;q=0.9","true","null","tones/880hz_short.mp3","null","","","tone_number_task","500","32","tones/880hz_short.mp3","650","100","null","null",""
"","","","","","html-keyboard-response","19","165860","0.0-13.0-4.0-0.0","43","1","2023-10-31 21:39:34","a725c3012b74bf33a1020a98cb69c237","181.31.144.122","Mozilla/5.0 (Windows NT 10.0; Win64; x64) AppleWebKit/537.36 (KHTML, like Gecko) Chrome/118.0.0.0 Safari/537.36","WebKit","Chrome","118.0.0.0","Windows","10.0","null","en-US,en;q=0.9","true","36","tones/880hz_short.mp3","s","","","empty_block","","32","","","","null","null",""
"","","","","","html-keyboard-response","20","166428","0.0-13.0-4.0-1.0","43","1","2023-10-31 21:39:34","a725c3012b74bf33a1020a98cb69c237","181.31.144.122","Mozilla/5.0 (Windows NT 10.0; Win64; x64) AppleWebKit/537.36 (KHTML, like Gecko) Chrome/118.0.0.0 Safari/537.36","WebKit","Chrome","118.0.0.0","Windows","10.0","null","en-US,en;q=0.9","true","564","tones/880hz_short.mp3","j","","","empty_block","","32","","","","null","null",""
"","","","","","html-keyboard-response","21","169192","0.0-15.0-0.0","43","1","2023-10-31 21:39:34","a725c3012b74bf33a1020a98cb69c237","181.31.144.122","Mozilla/5.0 (Windows NT 10.0; Win64; x64) AppleWebKit/537.36 (KHTML, like Gecko) Chrome/118.0.0.0 Safari/537.36","WebKit","Chrome","118.0.0.0","Windows","10.0","null","en-US,en;q=0.9","true","null","<div style=""font-size:100px;"">X</div>","null","","","fixation","","","","","","","",""
"","","","","","audio-keyboard-response","22","169500","0.0-15.0-1.0","43","1","2023-10-31 21:39:34","a725c3012b74bf33a1020a98cb69c237","181.31.144.122","Mozilla/5.0 (Windows NT 10.0; Win64; x64) AppleWebKit/537.36 (KHTML, like Gecko) Chrome/118.0.0.0 Safari/537.36","WebKit","Chrome","118.0.0.0","Windows","10.0","null","en-US,en;q=0.9","true","null","tones/440hz_short.mp3","null","","","tone_number_task","150","32","tones/440hz_short.mp3","300","100","null","null",""
"","","","","","html-keyboard-response","23","170439","0.0-15.0-4.0-0.0","43","1","2023-10-31 21:39:34","a725c3012b74bf33a1020a98cb69c237","181.31.144.122","Mozilla/5.0 (Windows NT 10.0; Win64; x64) AppleWebKit/537.36 (KHTML, like Gecko) Chrome/118.0.0.0 Safari/537.36","WebKit","Chrome","118.0.0.0","Windows","10.0","null","en-US,en;q=0.9","true","937","tones/440hz_short.mp3","a","","","empty_block","","32","","","","null","null",""
"","","","","","html-keyboard-response","24","171041","0.0-15.0-4.0-1.0","43","1","2023-10-31 21:39:34","a725c3012b74bf33a1020a98cb69c237","181.31.144.122","Mozilla/5.0 (Windows NT 10.0; Win64; x64) AppleWebKit/537.36 (KHTML, like Gecko) Chrome/118.0.0.0 Safari/537.36","WebKit","Chrome","118.0.0.0","Windows","10.0","null","en-US,en;q=0.9","true","600","tones/440hz_short.mp3","j","","","empty_block","","32","","","","null","null",""
"","","","","","html-keyboard-response","25","173807","0.0-17.0-0.0","43","1","2023-10-31 21:39:34","a725c3012b74bf33a1020a98cb69c237","181.31.144.122","Mozilla/5.0 (Windows NT 10.0; Win64; x64) AppleWebKit/537.36 (KHTML, like Gecko) Chrome/118.0.0.0 Safari/537.36","WebKit","Chrome","118.0.0.0","Windows","10.0","null","en-US,en;q=0.9","true","null","<div style=""font-size:100px;"">X</div>","null","","","fixation","","","","","","","",""
"","","","","","audio-keyboard-response","26","174020","0.0-17.0-1.0","43","1","2023-10-31 21:39:34","a725c3012b74bf33a1020a98cb69c237","181.31.144.122","Mozilla/5.0 (Windows NT 10.0; Win64; x64) AppleWebKit/537.36 (KHTML, like Gecko) Chrome/118.0.0.0 Safari/537.36","WebKit","Chrome","118.0.0.0","Windows","10.0","null","en-US,en;q=0.9","true","null","tones/440hz_short.mp3","null","","","tone_number_task","50","69","tones/440hz_short.mp3","200","100","null","null",""
"","","","","","html-keyboard-response","27","174867","0.0-17.0-4.0-0.0","43","1","2023-10-31 21:39:34","a725c3012b74bf33a1020a98cb69c237","181.31.144.122","Mozilla/5.0 (Windows NT 10.0; Win64; x64) AppleWebKit/537.36 (KHTML, like Gecko) Chrome/118.0.0.0 Safari/537.36","WebKit","Chrome","118.0.0.0","Windows","10.0","null","en-US,en;q=0.9","true","845","tones/440hz_short.mp3","a","","","empty_block","","69","","","","null","null",""
"","","","","","html-keyboard-response","28","175329","0.0-17.0-4.0-1.0","43","1","2023-10-31 21:39:34","a725c3012b74bf33a1020a98cb69c237","181.31.144.122","Mozilla/5.0 (Windows NT 10.0; Win64; x64) AppleWebKit/537.36 (KHTML, like Gecko) Chrome/118.0.0.0 Safari/537.36","WebKit","Chrome","118.0.0.0","Windows","10.0","null","en-US,en;q=0.9","true","459","tones/440hz_short.mp3","k","","","empty_block","","69","","","","null","null",""
"","","","","","html-button-response","29","184469","0.0-19.0","43","1","2023-10-31 21:39:34","a725c3012b74bf33a1020a98cb69c237","181.31.144.122","Mozilla/5.0 (Windows NT 10.0; Win64; x64) AppleWebKit/537.36 (KHTML, like Gecko) Chrome/118.0.0.0 Safari/537.36","WebKit","Chrome","118.0.0.0","Windows","10.0","null","en-US,en;q=0.9","true","9136","
  <h1> Muy bien </h1>
  <p> Ahora, en vez de ser presentados en dígitos, los números vendrán escritos en palabras. </p>
  <p> Por ejemplo, en vez de 44 te aparecerá ""cuarenta y cuatro"". </p>
  ","0","","","","","","","","","","",""
"","","","","","html-keyboard-response","30","187236","0.0-20.0-0.0","43","1","2023-10-31 21:39:34","a725c3012b74bf33a1020a98cb69c237","181.31.144.122","Mozilla/5.0 (Windows NT 10.0; Win64; x64) AppleWebKit/537.36 (KHTML, like Gecko) Chrome/118.0.0.0 Safari/537.36","WebKit","Chrome","118.0.0.0","Windows","10.0","null","en-US,en;q=0.9","true","null","<div style=""font-size:100px;"">X</div>","null","","","fixation","","","","","","","",""
"","","","","","audio-keyboard-response","31","188231","0.0-20.0-1.0","43","1","2023-10-31 21:39:34","a725c3012b74bf33a1020a98cb69c237","181.31.144.122","Mozilla/5.0 (Windows NT 10.0; Win64; x64) AppleWebKit/537.36 (KHTML, like Gecko) Chrome/118.0.0.0 Safari/537.36","WebKit","Chrome","118.0.0.0","Windows","10.0","null","en-US,en;q=0.9","true","981","tones/880hz_short.mp3","a","","","tone_number_task","1000","cincuenta y cuatro","tones/880hz_short.mp3","1150","60","null","null",""
"","","","","","html-keyboard-response","32","188259","0.0-20.0-2.0-0.0","43","1","2023-10-31 21:39:34","a725c3012b74bf33a1020a98cb69c237","181.31.144.122","Mozilla/5.0 (Windows NT 10.0; Win64; x64) AppleWebKit/537.36 (KHTML, like Gecko) Chrome/118.0.0.0 Safari/537.36","WebKit","Chrome","118.0.0.0","Windows","10.0","null","en-US,en;q=0.9","true","null","","null","","","delay_block","","","","","","null","null",""
"","","","","","html-keyboard-response","33","188420","0.0-20.0-2.0-1.0","43","1","2023-10-31 21:39:34","a725c3012b74bf33a1020a98cb69c237","181.31.144.122","Mozilla/5.0 (Windows NT 10.0; Win64; x64) AppleWebKit/537.36 (KHTML, like Gecko) Chrome/118.0.0.0 Safari/537.36","WebKit","Chrome","118.0.0.0","Windows","10.0","null","en-US,en;q=0.9","true","null","<p id=""stimulus"" style=""font-size:60px;"">cincuenta y cuatro</p>","null","","","tone_number_task_remaining_before_delay","","cincuenta y cuatro","","169","60","null","null",""
"","","","","","html-keyboard-response","34","189437","0.0-20.0-5.0-0.0","43","1","2023-10-31 21:39:34","a725c3012b74bf33a1020a98cb69c237","181.31.144.122","Mozilla/5.0 (Windows NT 10.0; Win64; x64) AppleWebKit/537.36 (KHTML, like Gecko) Chrome/118.0.0.0 Safari/537.36","WebKit","Chrome","118.0.0.0","Windows","10.0","null","en-US,en;q=0.9","true","1011","<p id=""stimulus"" style=""font-size:60px;"">cincuenta y cuatro</p>","k","","","empty_block","","cincuenta y cuatro","","","","null","null",""
"","","","","","html-button-response","35","193303","0.0-20.0-6.0-0.0","43","1","2023-10-31 21:39:34","a725c3012b74bf33a1020a98cb69c237","181.31.144.122","Mozilla/5.0 (Windows NT 10.0; Win64; x64) AppleWebKit/537.36 (KHTML, like Gecko) Chrome/118.0.0.0 Safari/537.36","WebKit","Chrome","118.0.0.0","Windows","10.0","null","en-US,en;q=0.9","true","3863","
  '<p style=""font-size:24px; color:red;"">Incorrecto</p><p> Respondiste alguno de los estímulos de manera incorrecta.</p><p>Por favor, repasá las instrucciones y seguimos desde donde nos quedamos. </p>
  ","0","","","","","","","","","","",""
"","","","","","external-html","36","201597","0.0-20.0-6.0-1.0","43","1","2023-10-31 21:39:34","a725c3012b74bf33a1020a98cb69c237","181.31.144.122","Mozilla/5.0 (Windows NT 10.0; Win64; x64) AppleWebKit/537.36 (KHTML, like Gecko) Chrome/118.0.0.0 Safari/537.36","WebKit","Chrome","118.0.0.0","Windows","10.0","null","en-US,en;q=0.9","true","7983","","","","instructions/instructions_B.html","","","","","","","","",""
"","","","","","html-keyboard-response","37","204363","0.0-20.1-0.1","43","1","2023-10-31 21:39:34","a725c3012b74bf33a1020a98cb69c237","181.31.144.122","Mozilla/5.0 (Windows NT 10.0; Win64; x64) AppleWebKit/537.36 (KHTML, like Gecko) Chrome/118.0.0.0 Safari/537.36","WebKit","Chrome","118.0.0.0","Windows","10.0","null","en-US,en;q=0.9","true","null","<div style=""font-size:100px;"">X</div>","null","","","fixation","","","","","","","",""
"","","","","","audio-keyboard-response","38","205193","0.0-20.1-1.1","43","1","2023-10-31 21:39:34","a725c3012b74bf33a1020a98cb69c237","181.31.144.122","Mozilla/5.0 (Windows NT 10.0; Win64; x64) AppleWebKit/537.36 (KHTML, like Gecko) Chrome/118.0.0.0 Safari/537.36","WebKit","Chrome","118.0.0.0","Windows","10.0","null","en-US,en;q=0.9","true","832","tones/880hz_short.mp3","s","","","tone_number_task","1000","cincuenta y cuatro","tones/880hz_short.mp3","1150","60","null","null",""
"","","","","","html-keyboard-response","39","205365","0.0-20.1-2.1-0.1","43","1","2023-10-31 21:39:34","a725c3012b74bf33a1020a98cb69c237","181.31.144.122","Mozilla/5.0 (Windows NT 10.0; Win64; x64) AppleWebKit/537.36 (KHTML, like Gecko) Chrome/118.0.0.0 Safari/537.36","WebKit","Chrome","118.0.0.0","Windows","10.0","null","en-US,en;q=0.9","true","null","","null","","","delay_block","","","","","","null","null",""
"","","","","","html-keyboard-response","40","205523","0.0-20.1-2.1-1.1","43","1","2023-10-31 21:39:34","a725c3012b74bf33a1020a98cb69c237","181.31.144.122","Mozilla/5.0 (Windows NT 10.0; Win64; x64) AppleWebKit/537.36 (KHTML, like Gecko) Chrome/118.0.0.0 Safari/537.36","WebKit","Chrome","118.0.0.0","Windows","10.0","null","en-US,en;q=0.9","true","null","<p id=""stimulus"" style=""font-size:60px;"">cincuenta y cuatro</p>","null","","","tone_number_task_remaining_before_delay","","cincuenta y cuatro","","318","60","null","null",""
"","","","","","html-keyboard-response","41","208563","0.0-20.1-5.1-0.1","43","1","2023-10-31 21:39:34","a725c3012b74bf33a1020a98cb69c237","181.31.144.122","Mozilla/5.0 (Windows NT 10.0; Win64; x64) AppleWebKit/537.36 (KHTML, like Gecko) Chrome/118.0.0.0 Safari/537.36","WebKit","Chrome","118.0.0.0","Windows","10.0","null","en-US,en;q=0.9","true","3038","<p id=""stimulus"" style=""font-size:60px;"">cincuenta y cuatro</p>","k","","","empty_block","","cincuenta y cuatro","","","","null","null",""
"","","","","","html-button-response","42","217072","0.0-22.0","43","1","2023-10-31 21:39:34","a725c3012b74bf33a1020a98cb69c237","181.31.144.122","Mozilla/5.0 (Windows NT 10.0; Win64; x64) AppleWebKit/537.36 (KHTML, like Gecko) Chrome/118.0.0.0 Safari/537.36","WebKit","Chrome","118.0.0.0","Windows","10.0","null","en-US,en;q=0.9","true","8506","
  <h1> Fin del Entrenamiento </h1>
  <p> ¡Felicitaciones, terminaste el entrenamiento! Ahora vamos a comenzar con el experimento. </p>
  <p> Es importante tener en cuenta que consta de cuatro bloques.</p>
  <p> Podés aprovechar los momentos entre bloques para tomar un breve descanso o tomar agua entre cada uno</p>
  <p> Recordá que tenés que responder lo más rápido que puedas, pero sin equivocarte. </p>
  ","0","","","","","","","","","","",""
"","","","","","external-html","43","227325","0.0-23.0","43","1","2023-10-31 21:39:34","a725c3012b74bf33a1020a98cb69c237","181.31.144.122","Mozilla/5.0 (Windows NT 10.0; Win64; x64) AppleWebKit/537.36 (KHTML, like Gecko) Chrome/118.0.0.0 Safari/537.36","WebKit","Chrome","118.0.0.0","Windows","10.0","null","en-US,en;q=0.9","true","9942","","","","instructions/instructions_words_first.html","","","","","","","","",""
"","","","","","call-function","44","227331","0.0-24.0","43","1","2023-10-31 21:39:34","a725c3012b74bf33a1020a98cb69c237","181.31.144.122","Mozilla/5.0 (Windows NT 10.0; Win64; x64) AppleWebKit/537.36 (KHTML, like Gecko) Chrome/118.0.0.0 Safari/537.36","WebKit","Chrome","118.0.0.0","Windows","10.0","null","en-US,en;q=0.9","true","","","","","","","","","","","","","",""
"","","","","","html-keyboard-response","45","230090","0.0-25.0","43","1","2023-10-31 21:39:34","a725c3012b74bf33a1020a98cb69c237","181.31.144.122","Mozilla/5.0 (Windows NT 10.0; Win64; x64) AppleWebKit/537.36 (KHTML, like Gecko) Chrome/118.0.0.0 Safari/537.36","WebKit","Chrome","118.0.0.0","Windows","10.0","null","en-US,en;q=0.9","true","null","<div style=""font-size:100px;"">X</div>","null","","","fixation","","","","","","","",""
"","","","","","audio-keyboard-response","46","231051","0.0-26.0","43","1","2023-10-31 21:39:34","a725c3012b74bf33a1020a98cb69c237","181.31.144.122","Mozilla/5.0 (Windows NT 10.0; Win64; x64) AppleWebKit/537.36 (KHTML, like Gecko) Chrome/118.0.0.0 Safari/537.36","WebKit","Chrome","118.0.0.0","Windows","10.0","null","en-US,en;q=0.9","true","960","tones/880hz_short.mp3","s","","","tone_number_task","1025","sesenta y dos","tones/880hz_short.mp3","1175","60","2","0",""
"","","","","","html-keyboard-response","47","231118","0.0-27.0-0.0","43","1","2023-10-31 21:39:34","a725c3012b74bf33a1020a98cb69c237","181.31.144.122","Mozilla/5.0 (Windows NT 10.0; Win64; x64) AppleWebKit/537.36 (KHTML, like Gecko) Chrome/118.0.0.0 Safari/537.36","WebKit","Chrome","118.0.0.0","Windows","10.0","null","en-US,en;q=0.9","true","null","","null","","","delay_block","","","","","","2","0",""
"","","","","","html-keyboard-response","48","231276","0.0-27.0-1.0","43","1","2023-10-31 21:39:34","a725c3012b74bf33a1020a98cb69c237","181.31.144.122","Mozilla/5.0 (Windows NT 10.0; Win64; x64) AppleWebKit/537.36 (KHTML, like Gecko) Chrome/118.0.0.0 Safari/537.36","WebKit","Chrome","118.0.0.0","Windows","10.0","null","en-US,en;q=0.9","true","null","<p id=""stimulus"" style=""font-size:60px;"">sesenta y dos</p>","null","","","tone_number_task_remaining_before_delay","","sesenta y dos","","215","60","2","0",""
"","","","","","html-keyboard-response","49","231950","0.0-30.0-0.0","43","1","2023-10-31 21:39:34","a725c3012b74bf33a1020a98cb69c237","181.31.144.122","Mozilla/5.0 (Windows NT 10.0; Win64; x64) AppleWebKit/537.36 (KHTML, like Gecko) Chrome/118.0.0.0 Safari/537.36","WebKit","Chrome","118.0.0.0","Windows","10.0","null","en-US,en;q=0.9","true","673","<p id=""stimulus"" style=""font-size:60px;"">sesenta y dos</p>","k","","","empty_block","","sesenta y dos","","","","2","0",""
"","","","","","html-keyboard-response","50","234710","0.0-31.0","43","1","2023-10-31 21:39:34","a725c3012b74bf33a1020a98cb69c237","181.31.144.122","Mozilla/5.0 (Windows NT 10.0; Win64; x64) AppleWebKit/537.36 (KHTML, like Gecko) Chrome/118.0.0.0 Safari/537.36","WebKit","Chrome","118.0.0.0","Windows","10.0","null","en-US,en;q=0.9","true","null","<div style=""font-size:100px;"">X</div>","null","","","fixation","","","","","","","",""
"","","","","","audio-keyboard-response","51","235692","0.0-32.0","43","1","2023-10-31 21:39:34","a725c3012b74bf33a1020a98cb69c237","181.31.144.122","Mozilla/5.0 (Windows NT 10.0; Win64; x64) AppleWebKit/537.36 (KHTML, like Gecko) Chrome/118.0.0.0 Safari/537.36","WebKit","Chrome","118.0.0.0","Windows","10.0","null","en-US,en;q=0.9","true","968","tones/440hz_short.mp3","a","","","tone_number_task","1025","cincuenta y nueve","tones/440hz_short.mp3","1175","60","2","1",""
"","","","","","html-keyboard-response","52","235758","0.0-33.0-0.0","43","1","2023-10-31 21:39:34","a725c3012b74bf33a1020a98cb69c237","181.31.144.122","Mozilla/5.0 (Windows NT 10.0; Win64; x64) AppleWebKit/537.36 (KHTML, like Gecko) Chrome/118.0.0.0 Safari/537.36","WebKit","Chrome","118.0.0.0","Windows","10.0","null","en-US,en;q=0.9","true","null","","null","","","delay_block","","","","","","2","1",""
"","","","","","html-keyboard-response","53","235914","0.0-33.0-1.0","43","1","2023-10-31 21:39:34","a725c3012b74bf33a1020a98cb69c237","181.31.144.122","Mozilla/5.0 (Windows NT 10.0; Win64; x64) AppleWebKit/537.36 (KHTML, like Gecko) Chrome/118.0.0.0 Safari/537.36","WebKit","Chrome","118.0.0.0","Windows","10.0","null","en-US,en;q=0.9","true","null","<p id=""stimulus"" style=""font-size:60px;"">cincuenta y nueve</p>","null","","","tone_number_task_remaining_before_delay","","cincuenta y nueve","","207","60","2","1",""
"","","","","","html-keyboard-response","54","236801","0.0-36.0-0.0","43","1","2023-10-31 21:39:34","a725c3012b74bf33a1020a98cb69c237","181.31.144.122","Mozilla/5.0 (Windows NT 10.0; Win64; x64) AppleWebKit/537.36 (KHTML, like Gecko) Chrome/118.0.0.0 Safari/537.36","WebKit","Chrome","118.0.0.0","Windows","10.0","null","en-US,en;q=0.9","true","885","<p id=""stimulus"" style=""font-size:60px;"">cincuenta y nueve</p>","k","","","empty_block","","cincuenta y nueve","","","","2","1",""
"","","","","","html-keyboard-response","55","239568","0.0-37.0","43","1","2023-10-31 21:39:34","a725c3012b74bf33a1020a98cb69c237","181.31.144.122","Mozilla/5.0 (Windows NT 10.0; Win64; x64) AppleWebKit/537.36 (KHTML, like Gecko) Chrome/118.0.0.0 Safari/537.36","WebKit","Chrome","118.0.0.0","Windows","10.0","null","en-US,en;q=0.9","true","null","<div style=""font-size:100px;"">X</div>","null","","","fixation","","","","","","","",""
"","","","","","audio-keyboard-response","56","240567","0.0-38.0","43","1","2023-10-31 21:39:34","a725c3012b74bf33a1020a98cb69c237","181.31.144.122","Mozilla/5.0 (Windows NT 10.0; Win64; x64) AppleWebKit/537.36 (KHTML, like Gecko) Chrome/118.0.0.0 Safari/537.36","WebKit","Chrome","118.0.0.0","Windows","10.0","null","en-US,en;q=0.9","true","1000","tones/440hz_short.mp3","a","","","tone_number_task","992.5","veintiocho","tones/440hz_short.mp3","1142.5","60","2","2",""
"","","","","","html-keyboard-response","57","240715","0.0-40.0-0.0","43","1","2023-10-31 21:39:34","a725c3012b74bf33a1020a98cb69c237","181.31.144.122","Mozilla/5.0 (Windows NT 10.0; Win64; x64) AppleWebKit/537.36 (KHTML, like Gecko) Chrome/118.0.0.0 Safari/537.36","WebKit","Chrome","118.0.0.0","Windows","10.0","null","en-US,en;q=0.9","true","null","<p id=""stimulus"" style=""font-size:60px;"">veintiocho</p>","null","","","tone_number_task_remaining_after_delay","","veintiocho","","","60","2","2",""
"","","","","","html-keyboard-response","58","241327","0.0-42.0-0.0","43","1","2023-10-31 21:39:34","a725c3012b74bf33a1020a98cb69c237","181.31.144.122","Mozilla/5.0 (Windows NT 10.0; Win64; x64) AppleWebKit/537.36 (KHTML, like Gecko) Chrome/118.0.0.0 Safari/537.36","WebKit","Chrome","118.0.0.0","Windows","10.0","null","en-US,en;q=0.9","true","611","<p id=""stimulus"" style=""font-size:60px;"">veintiocho</p>","j","","","empty_block","","veintiocho","","","","2","2",""
"","","","","","html-keyboard-response","59","244090","0.0-43.0","43","1","2023-10-31 21:39:34","a725c3012b74bf33a1020a98cb69c237","181.31.144.122","Mozilla/5.0 (Windows NT 10.0; Win64; x64) AppleWebKit/537.36 (KHTML, like Gecko) Chrome/118.0.0.0 Safari/537.36","WebKit","Chrome","118.0.0.0","Windows","10.0","null","en-US,en;q=0.9","true","null","<div style=""font-size:100px;"">X</div>","null","","","fixation","","","","","","","",""
"","","","","","audio-keyboard-response","60","244346","0.0-44.0","43","1","2023-10-31 21:39:34","a725c3012b74bf33a1020a98cb69c237","181.31.144.122","Mozilla/5.0 (Windows NT 10.0; Win64; x64) AppleWebKit/537.36 (KHTML, like Gecko) Chrome/118.0.0.0 Safari/537.36","WebKit","Chrome","118.0.0.0","Windows","10.0","null","en-US,en;q=0.9","true","null","tones/880hz_short.mp3","null","","","tone_number_task","102.5","cincuenta y uno","tones/880hz_short.mp3","252.5","60","2","3",""
"","","","","","html-keyboard-response","61","244691","0.0-47.0-0.0","43","1","2023-10-31 21:39:34","a725c3012b74bf33a1020a98cb69c237","181.31.144.122","Mozilla/5.0 (Windows NT 10.0; Win64; x64) AppleWebKit/537.36 (KHTML, like Gecko) Chrome/118.0.0.0 Safari/537.36","WebKit","Chrome","118.0.0.0","Windows","10.0","null","en-US,en;q=0.9","true","342","tones/880hz_short.mp3","s","","","empty_block","","cincuenta y uno","","","","2","3",""
"","","","","","html-keyboard-response","62","245399","0.0-47.0-1.0","43","1","2023-10-31 21:39:34","a725c3012b74bf33a1020a98cb69c237","181.31.144.122","Mozilla/5.0 (Windows NT 10.0; Win64; x64) AppleWebKit/537.36 (KHTML, like Gecko) Chrome/118.0.0.0 Safari/537.36","WebKit","Chrome","118.0.0.0","Windows","10.0","null","en-US,en;q=0.9","true","706","tones/880hz_short.mp3","k","","","empty_block","","cincuenta y uno","","","","2","3",""
"","","","","","html-keyboard-response","63","248168","0.0-49.0","43","1","2023-10-31 21:39:34","a725c3012b74bf33a1020a98cb69c237","181.31.144.122","Mozilla/5.0 (Windows NT 10.0; Win64; x64) AppleWebKit/537.36 (KHTML, like Gecko) Chrome/118.0.0.0 Safari/537.36","WebKit","Chrome","118.0.0.0","Windows","10.0","null","en-US,en;q=0.9","true","null","<div style=""font-size:100px;"">X</div>","null","","","fixation","","","","","","","",""
"","","","","","audio-keyboard-response","64","248325","0.0-50.0","43","1","2023-10-31 21:39:34","a725c3012b74bf33a1020a98cb69c237","181.31.144.122","Mozilla/5.0 (Windows NT 10.0; Win64; x64) AppleWebKit/537.36 (KHTML, like Gecko) Chrome/118.0.0.0 Safari/537.36","WebKit","Chrome","118.0.0.0","Windows","10.0","null","en-US,en;q=0.9","true","null","tones/880hz_short.mp3","null","","","tone_number_task","0","cuarenta y uno","tones/880hz_short.mp3","150","60","2","4",""
"","","","","","html-keyboard-response","65","249151","0.0-53.0-0.0","43","1","2023-10-31 21:39:34","a725c3012b74bf33a1020a98cb69c237","181.31.144.122","Mozilla/5.0 (Windows NT 10.0; Win64; x64) AppleWebKit/537.36 (KHTML, like Gecko) Chrome/118.0.0.0 Safari/537.36","WebKit","Chrome","118.0.0.0","Windows","10.0","null","en-US,en;q=0.9","true","824","tones/880hz_short.mp3","a","","","empty_block","","cuarenta y uno","","","","2","4",""
"","","","","","html-keyboard-response","66","249709","0.0-53.0-1.0","43","1","2023-10-31 21:39:34","a725c3012b74bf33a1020a98cb69c237","181.31.144.122","Mozilla/5.0 (Windows NT 10.0; Win64; x64) AppleWebKit/537.36 (KHTML, like Gecko) Chrome/118.0.0.0 Safari/537.36","WebKit","Chrome","118.0.0.0","Windows","10.0","null","en-US,en;q=0.9","true","557","tones/880hz_short.mp3","k","","","empty_block","","cuarenta y uno","","","","2","4",""
"","","","","","html-keyboard-response","67","252470","0.0-55.0","43","1","2023-10-31 21:39:34","a725c3012b74bf33a1020a98cb69c237","181.31.144.122","Mozilla/5.0 (Windows NT 10.0; Win64; x64) AppleWebKit/537.36 (KHTML, like Gecko) Chrome/118.0.0.0 Safari/537.36","WebKit","Chrome","118.0.0.0","Windows","10.0","null","en-US,en;q=0.9","true","null","<div style=""font-size:100px;"">X</div>","null","","","fixation","","","","","","","",""
"","","","","","audio-keyboard-response","68","253269","0.0-56.0","43","1","2023-10-31 21:39:34","a725c3012b74bf33a1020a98cb69c237","181.31.144.122","Mozilla/5.0 (Windows NT 10.0; Win64; x64) AppleWebKit/537.36 (KHTML, like Gecko) Chrome/118.0.0.0 Safari/537.36","WebKit","Chrome","118.0.0.0","Windows","10.0","null","en-US,en;q=0.9","true","789","tones/440hz_short.mp3","a","","","tone_number_task","992.5","sesenta y nueve","tones/440hz_short.mp3","1142.5","60","2","5",""
"","","","","","html-keyboard-response","69","253477","0.0-57.0-0.0","43","1","2023-10-31 21:39:34","a725c3012b74bf33a1020a98cb69c237","181.31.144.122","Mozilla/5.0 (Windows NT 10.0; Win64; x64) AppleWebKit/537.36 (KHTML, like Gecko) Chrome/118.0.0.0 Safari/537.36","WebKit","Chrome","118.0.0.0","Windows","10.0","null","en-US,en;q=0.9","true","null","","null","","","delay_block","","","","","","2","5",""
"","","","","","html-keyboard-response","70","253634","0.0-57.0-1.0","43","1","2023-10-31 21:39:34","a725c3012b74bf33a1020a98cb69c237","181.31.144.122","Mozilla/5.0 (Windows NT 10.0; Win64; x64) AppleWebKit/537.36 (KHTML, like Gecko) Chrome/118.0.0.0 Safari/537.36","WebKit","Chrome","118.0.0.0","Windows","10.0","null","en-US,en;q=0.9","true","null","<p id=""stimulus"" style=""font-size:60px;"">sesenta y nueve</p>","null","","","tone_number_task_remaining_before_delay","","sesenta y nueve","","353.5","60","2","5",""
"","","","","","html-keyboard-response","71","254180","0.0-60.0-0.0","43","1","2023-10-31 21:39:34","a725c3012b74bf33a1020a98cb69c237","181.31.144.122","Mozilla/5.0 (Windows NT 10.0; Win64; x64) AppleWebKit/537.36 (KHTML, like Gecko) Chrome/118.0.0.0 Safari/537.36","WebKit","Chrome","118.0.0.0","Windows","10.0","null","en-US,en;q=0.9","true","543","<p id=""stimulus"" style=""font-size:60px;"">sesenta y nueve</p>","k","","","empty_block","","sesenta y nueve","","","","2","5",""
"","","","","","html-keyboard-response","72","256949","0.0-61.0","43","1","2023-10-31 21:39:34","a725c3012b74bf33a1020a98cb69c237","181.31.144.122","Mozilla/5.0 (Windows NT 10.0; Win64; x64) AppleWebKit/537.36 (KHTML, like Gecko) Chrome/118.0.0.0 Safari/537.36","WebKit","Chrome","118.0.0.0","Windows","10.0","null","en-US,en;q=0.9","true","null","<div style=""font-size:100px;"">X</div>","null","","","fixation","","","","","","","",""
"","","","","","audio-keyboard-response","73","257213","0.0-62.0","43","1","2023-10-31 21:39:34","a725c3012b74bf33a1020a98cb69c237","181.31.144.122","Mozilla/5.0 (Windows NT 10.0; Win64; x64) AppleWebKit/537.36 (KHTML, like Gecko) Chrome/118.0.0.0 Safari/537.36","WebKit","Chrome","118.0.0.0","Windows","10.0","null","en-US,en;q=0.9","true","null","tones/880hz_short.mp3","null","","","tone_number_task","102.5","cincuenta y siete","tones/880hz_short.mp3","252.5","60","2","6",""
"","","","","","html-keyboard-response","74","258013","0.0-65.0-0.0","43","1","2023-10-31 21:39:34","a725c3012b74bf33a1020a98cb69c237","181.31.144.122","Mozilla/5.0 (Windows NT 10.0; Win64; x64) AppleWebKit/537.36 (KHTML, like Gecko) Chrome/118.0.0.0 Safari/537.36","WebKit","Chrome","118.0.0.0","Windows","10.0","null","en-US,en;q=0.9","true","797","tones/880hz_short.mp3","a","","","empty_block","","cincuenta y siete","","","","2","6",""
"","","","","","html-keyboard-response","75","258503","0.0-65.0-1.0","43","1","2023-10-31 21:39:34","a725c3012b74bf33a1020a98cb69c237","181.31.144.122","Mozilla/5.0 (Windows NT 10.0; Win64; x64) AppleWebKit/537.36 (KHTML, like Gecko) Chrome/118.0.0.0 Safari/537.36","WebKit","Chrome","118.0.0.0","Windows","10.0","null","en-US,en;q=0.9","true","486","tones/880hz_short.mp3","k","","","empty_block","","cincuenta y siete","","","","2","6",""
"","","","","","html-keyboard-response","76","261271","0.0-67.0","43","1","2023-10-31 21:39:34","a725c3012b74bf33a1020a98cb69c237","181.31.144.122","Mozilla/5.0 (Windows NT 10.0; Win64; x64) AppleWebKit/537.36 (KHTML, like Gecko) Chrome/118.0.0.0 Safari/537.36","WebKit","Chrome","118.0.0.0","Windows","10.0","null","en-US,en;q=0.9","true","null","<div style=""font-size:100px;"">X</div>","null","","","fixation","","","","","","","",""
"","","","","","audio-keyboard-response","77","261527","0.0-68.0","43","1","2023-10-31 21:39:34","a725c3012b74bf33a1020a98cb69c237","181.31.144.122","Mozilla/5.0 (Windows NT 10.0; Win64; x64) AppleWebKit/537.36 (KHTML, like Gecko) Chrome/118.0.0.0 Safari/537.36","WebKit","Chrome","118.0.0.0","Windows","10.0","null","en-US,en;q=0.9","true","null","tones/880hz_short.mp3","null","","","tone_number_task","102.5","veintinueve","tones/880hz_short.mp3","252.5","60","2","7",""
"","","","","","html-keyboard-response","78","262200","0.0-71.0-0.0","43","1","2023-10-31 21:39:34","a725c3012b74bf33a1020a98cb69c237","181.31.144.122","Mozilla/5.0 (Windows NT 10.0; Win64; x64) AppleWebKit/537.36 (KHTML, like Gecko) Chrome/118.0.0.0 Safari/537.36","WebKit","Chrome","118.0.0.0","Windows","10.0","null","en-US,en;q=0.9","true","666","tones/880hz_short.mp3","s","","","empty_block","","veintinueve","","","","2","7",""
"","","","","","html-keyboard-response","79","262471","0.0-71.0-1.0","43","1","2023-10-31 21:39:34","a725c3012b74bf33a1020a98cb69c237","181.31.144.122","Mozilla/5.0 (Windows NT 10.0; Win64; x64) AppleWebKit/537.36 (KHTML, like Gecko) Chrome/118.0.0.0 Safari/537.36","WebKit","Chrome","118.0.0.0","Windows","10.0","null","en-US,en;q=0.9","true","267","tones/880hz_short.mp3","k","","","empty_block","","veintinueve","","","","2","7",""
"","","","","","html-keyboard-response","80","265242","0.0-73.0","43","1","2023-10-31 21:39:34","a725c3012b74bf33a1020a98cb69c237","181.31.144.122","Mozilla/5.0 (Windows NT 10.0; Win64; x64) AppleWebKit/537.36 (KHTML, like Gecko) Chrome/118.0.0.0 Safari/537.36","WebKit","Chrome","118.0.0.0","Windows","10.0","null","en-US,en;q=0.9","true","null","<div style=""font-size:100px;"">X</div>","null","","","fixation","","","","","","","",""
"","","","","","audio-keyboard-response","81","265956","0.0-74.0","43","1","2023-10-31 21:39:34","a725c3012b74bf33a1020a98cb69c237","181.31.144.122","Mozilla/5.0 (Windows NT 10.0; Win64; x64) AppleWebKit/537.36 (KHTML, like Gecko) Chrome/118.0.0.0 Safari/537.36","WebKit","Chrome","118.0.0.0","Windows","10.0","null","en-US,en;q=0.9","true","712","tones/440hz_short.mp3","a","","","tone_number_task","1025","sesenta y cinco","tones/440hz_short.mp3","1175","60","2","8",""
"","","","","","html-keyboard-response","82","266278","0.0-75.0-0.0","43","1","2023-10-31 21:39:34","a725c3012b74bf33a1020a98cb69c237","181.31.144.122","Mozilla/5.0 (Windows NT 10.0; Win64; x64) AppleWebKit/537.36 (KHTML, like Gecko) Chrome/118.0.0.0 Safari/537.36","WebKit","Chrome","118.0.0.0","Windows","10.0","null","en-US,en;q=0.9","true","null","","null","","","delay_block","","","","","","2","8",""
"","","","","","html-keyboard-response","83","266434","0.0-75.0-1.0","43","1","2023-10-31 21:39:34","a725c3012b74bf33a1020a98cb69c237","181.31.144.122","Mozilla/5.0 (Windows NT 10.0; Win64; x64) AppleWebKit/537.36 (KHTML, like Gecko) Chrome/118.0.0.0 Safari/537.36","WebKit","Chrome","118.0.0.0","Windows","10.0","null","en-US,en;q=0.9","true","null","<p id=""stimulus"" style=""font-size:60px;"">sesenta y cinco</p>","null","","","tone_number_task_remaining_before_delay","","sesenta y cinco","","463","60","2","8",""
"","","","","","html-keyboard-response","84","266789","0.0-78.0-0.0","43","1","2023-10-31 21:39:34","a725c3012b74bf33a1020a98cb69c237","181.31.144.122","Mozilla/5.0 (Windows NT 10.0; Win64; x64) AppleWebKit/537.36 (KHTML, like Gecko) Chrome/118.0.0.0 Safari/537.36","WebKit","Chrome","118.0.0.0","Windows","10.0","null","en-US,en;q=0.9","true","350","<p id=""stimulus"" style=""font-size:60px;"">sesenta y cinco</p>","j","","","empty_block","","sesenta y cinco","","","","2","8",""
"","","","","","html-keyboard-response","85","269558","0.0-79.0","43","1","2023-10-31 21:39:34","a725c3012b74bf33a1020a98cb69c237","181.31.144.122","Mozilla/5.0 (Windows NT 10.0; Win64; x64) AppleWebKit/537.36 (KHTML, like Gecko) Chrome/118.0.0.0 Safari/537.36","WebKit","Chrome","118.0.0.0","Windows","10.0","null","en-US,en;q=0.9","true","null","<div style=""font-size:100px;"">X</div>","null","","","fixation","","","","","","","",""
"","","","","","audio-keyboard-response","86","269718","0.0-80.0","43","1","2023-10-31 21:39:34","a725c3012b74bf33a1020a98cb69c237","181.31.144.122","Mozilla/5.0 (Windows NT 10.0; Win64; x64) AppleWebKit/537.36 (KHTML, like Gecko) Chrome/118.0.0.0 Safari/537.36","WebKit","Chrome","118.0.0.0","Windows","10.0","null","en-US,en;q=0.9","true","null","tones/440hz_short.mp3","null","","","tone_number_task","0","cincuenta","tones/440hz_short.mp3","150","60","2","9",""
"","","","","","html-keyboard-response","87","270535","0.0-83.0-0.0","43","1","2023-10-31 21:39:34","a725c3012b74bf33a1020a98cb69c237","181.31.144.122","Mozilla/5.0 (Windows NT 10.0; Win64; x64) AppleWebKit/537.36 (KHTML, like Gecko) Chrome/118.0.0.0 Safari/537.36","WebKit","Chrome","118.0.0.0","Windows","10.0","null","en-US,en;q=0.9","true","814","tones/440hz_short.mp3","a","","","empty_block","","cincuenta","","","","2","9",""
"","","","","","html-keyboard-response","88","271096","0.0-83.0-1.0","43","1","2023-10-31 21:39:34","a725c3012b74bf33a1020a98cb69c237","181.31.144.122","Mozilla/5.0 (Windows NT 10.0; Win64; x64) AppleWebKit/537.36 (KHTML, like Gecko) Chrome/118.0.0.0 Safari/537.36","WebKit","Chrome","118.0.0.0","Windows","10.0","null","en-US,en;q=0.9","true","557","tones/440hz_short.mp3","k","","","empty_block","","cincuenta","","","","2","9",""
"","","","","","html-keyboard-response","89","273866","0.0-85.0","43","1","2023-10-31 21:39:34","a725c3012b74bf33a1020a98cb69c237","181.31.144.122","Mozilla/5.0 (Windows NT 10.0; Win64; x64) AppleWebKit/537.36 (KHTML, like Gecko) Chrome/118.0.0.0 Safari/537.36","WebKit","Chrome","118.0.0.0","Windows","10.0","null","en-US,en;q=0.9","true","null","<div style=""font-size:100px;"">X</div>","null","","","fixation","","","","","","","",""
"","","","","","audio-keyboard-response","90","274587","0.0-86.0","43","1","2023-10-31 21:39:34","a725c3012b74bf33a1020a98cb69c237","181.31.144.122","Mozilla/5.0 (Windows NT 10.0; Win64; x64) AppleWebKit/537.36 (KHTML, like Gecko) Chrome/118.0.0.0 Safari/537.36","WebKit","Chrome","118.0.0.0","Windows","10.0","null","en-US,en;q=0.9","true","709","tones/880hz_short.mp3","s","","","tone_number_task","1025","treinta y cuatro","tones/880hz_short.mp3","1175","60","2","10",""
"","","","","","html-keyboard-response","91","274921","0.0-87.0-0.0","43","1","2023-10-31 21:39:34","a725c3012b74bf33a1020a98cb69c237","181.31.144.122","Mozilla/5.0 (Windows NT 10.0; Win64; x64) AppleWebKit/537.36 (KHTML, like Gecko) Chrome/118.0.0.0 Safari/537.36","WebKit","Chrome","118.0.0.0","Windows","10.0","null","en-US,en;q=0.9","true","null","","null","","","delay_block","","","","","","2","10",""
"","","","","","html-keyboard-response","92","275080","0.0-87.0-1.0","43","1","2023-10-31 21:39:34","a725c3012b74bf33a1020a98cb69c237","181.31.144.122","Mozilla/5.0 (Windows NT 10.0; Win64; x64) AppleWebKit/537.36 (KHTML, like Gecko) Chrome/118.0.0.0 Safari/537.36","WebKit","Chrome","118.0.0.0","Windows","10.0","null","en-US,en;q=0.9","true","null","<p id=""stimulus"" style=""font-size:60px;"">treinta y cuatro</p>","null","","","tone_number_task_remaining_before_delay","","treinta y cuatro","","466","60","2","10",""
"","","","","","html-keyboard-response","93","275637","0.0-90.0-0.0","43","1","2023-10-31 21:39:34","a725c3012b74bf33a1020a98cb69c237","181.31.144.122","Mozilla/5.0 (Windows NT 10.0; Win64; x64) AppleWebKit/537.36 (KHTML, like Gecko) Chrome/118.0.0.0 Safari/537.36","WebKit","Chrome","118.0.0.0","Windows","10.0","null","en-US,en;q=0.9","true","549","<p id=""stimulus"" style=""font-size:60px;"">treinta y cuatro</p>","j","","","empty_block","","treinta y cuatro","","","","2","10",""
"","","","","","html-keyboard-response","94","278398","0.0-91.0","43","1","2023-10-31 21:39:34","a725c3012b74bf33a1020a98cb69c237","181.31.144.122","Mozilla/5.0 (Windows NT 10.0; Win64; x64) AppleWebKit/537.36 (KHTML, like Gecko) Chrome/118.0.0.0 Safari/537.36","WebKit","Chrome","118.0.0.0","Windows","10.0","null","en-US,en;q=0.9","true","null","<div style=""font-size:100px;"">X</div>","null","","","fixation","","","","","","","",""
"","","","","","audio-keyboard-response","95","278661","0.0-92.0","43","1","2023-10-31 21:39:34","a725c3012b74bf33a1020a98cb69c237","181.31.144.122","Mozilla/5.0 (Windows NT 10.0; Win64; x64) AppleWebKit/537.36 (KHTML, like Gecko) Chrome/118.0.0.0 Safari/537.36","WebKit","Chrome","118.0.0.0","Windows","10.0","null","en-US,en;q=0.9","true","null","tones/880hz_short.mp3","null","","","tone_number_task","102.5","veintiseis","tones/880hz_short.mp3","252.5","60","2","11",""
"","","","","","html-keyboard-response","96","279245","0.0-95.0-0.0","43","1","2023-10-31 21:39:34","a725c3012b74bf33a1020a98cb69c237","181.31.144.122","Mozilla/5.0 (Windows NT 10.0; Win64; x64) AppleWebKit/537.36 (KHTML, like Gecko) Chrome/118.0.0.0 Safari/537.36","WebKit","Chrome","118.0.0.0","Windows","10.0","null","en-US,en;q=0.9","true","580","tones/880hz_short.mp3","s","","","empty_block","","veintiseis","","","","2","11",""
"","","","","","html-keyboard-response","97","279695","0.0-95.0-1.0","43","1","2023-10-31 21:39:34","a725c3012b74bf33a1020a98cb69c237","181.31.144.122","Mozilla/5.0 (Windows NT 10.0; Win64; x64) AppleWebKit/537.36 (KHTML, like Gecko) Chrome/118.0.0.0 Safari/537.36","WebKit","Chrome","118.0.0.0","Windows","10.0","null","en-US,en;q=0.9","true","445","tones/880hz_short.mp3","j","","","empty_block","","veintiseis","","","","2","11",""
"","","","","","html-keyboard-response","98","282465","0.0-97.0","43","1","2023-10-31 21:39:34","a725c3012b74bf33a1020a98cb69c237","181.31.144.122","Mozilla/5.0 (Windows NT 10.0; Win64; x64) AppleWebKit/537.36 (KHTML, like Gecko) Chrome/118.0.0.0 Safari/537.36","WebKit","Chrome","118.0.0.0","Windows","10.0","null","en-US,en;q=0.9","true","null","<div style=""font-size:100px;"">X</div>","null","","","fixation","","","","","","","",""
"","","","","","audio-keyboard-response","99","282728","0.0-98.0","43","1","2023-10-31 21:39:34","a725c3012b74bf33a1020a98cb69c237","181.31.144.122","Mozilla/5.0 (Windows NT 10.0; Win64; x64) AppleWebKit/537.36 (KHTML, like Gecko) Chrome/118.0.0.0 Safari/537.36","WebKit","Chrome","118.0.0.0","Windows","10.0","null","en-US,en;q=0.9","true","null","tones/880hz_short.mp3","null","","","tone_number_task","102.5","cincuenta y ocho","tones/880hz_short.mp3","252.5","60","2","12",""
"","","","","","html-keyboard-response","100","283244","0.0-101.0-0.0","43","1","2023-10-31 21:39:34","a725c3012b74bf33a1020a98cb69c237","181.31.144.122","Mozilla/5.0 (Windows NT 10.0; Win64; x64) AppleWebKit/537.36 (KHTML, like Gecko) Chrome/118.0.0.0 Safari/537.36","WebKit","Chrome","118.0.0.0","Windows","10.0","null","en-US,en;q=0.9","true","513","tones/880hz_short.mp3","s","","","empty_block","","cincuenta y ocho","","","","2","12",""
"","","","","","html-keyboard-response","101","283574","0.0-101.0-1.0","43","1","2023-10-31 21:39:34","a725c3012b74bf33a1020a98cb69c237","181.31.144.122","Mozilla/5.0 (Windows NT 10.0; Win64; x64) AppleWebKit/537.36 (KHTML, like Gecko) Chrome/118.0.0.0 Safari/537.36","WebKit","Chrome","118.0.0.0","Windows","10.0","null","en-US,en;q=0.9","true","325","tones/880hz_short.mp3","k","","","empty_block","","cincuenta y ocho","","","","2","12",""
"","","","","","html-keyboard-response","102","286336","0.0-103.0","43","1","2023-10-31 21:39:34","a725c3012b74bf33a1020a98cb69c237","181.31.144.122","Mozilla/5.0 (Windows NT 10.0; Win64; x64) AppleWebKit/537.36 (KHTML, like Gecko) Chrome/118.0.0.0 Safari/537.36","WebKit","Chrome","118.0.0.0","Windows","10.0","null","en-US,en;q=0.9","true","null","<div style=""font-size:100px;"">X</div>","null","","","fixation","","","","","","","",""
"","","","","","audio-keyboard-response","103","287084","0.0-104.0","43","1","2023-10-31 21:39:34","a725c3012b74bf33a1020a98cb69c237","181.31.144.122","Mozilla/5.0 (Windows NT 10.0; Win64; x64) AppleWebKit/537.36 (KHTML, like Gecko) Chrome/118.0.0.0 Safari/537.36","WebKit","Chrome","118.0.0.0","Windows","10.0","null","en-US,en;q=0.9","true","739","tones/440hz_short.mp3","a","","","tone_number_task","1025","veintiocho","tones/440hz_short.mp3","1175","60","2","13",""
"","","","","","html-keyboard-response","104","287375","0.0-105.0-0.0","43","1","2023-10-31 21:39:34","a725c3012b74bf33a1020a98cb69c237","181.31.144.122","Mozilla/5.0 (Windows NT 10.0; Win64; x64) AppleWebKit/537.36 (KHTML, like Gecko) Chrome/118.0.0.0 Safari/537.36","WebKit","Chrome","118.0.0.0","Windows","10.0","null","en-US,en;q=0.9","true","null","","null","","","delay_block","","","","","","2","13",""
"","","","","","html-keyboard-response","105","287532","0.0-105.0-1.0","43","1","2023-10-31 21:39:34","a725c3012b74bf33a1020a98cb69c237","181.31.144.122","Mozilla/5.0 (Windows NT 10.0; Win64; x64) AppleWebKit/537.36 (KHTML, like Gecko) Chrome/118.0.0.0 Safari/537.36","WebKit","Chrome","118.0.0.0","Windows","10.0","null","en-US,en;q=0.9","true","null","<p id=""stimulus"" style=""font-size:60px;"">veintiocho</p>","null","","","tone_number_task_remaining_before_delay","","veintiocho","","436","60","2","13",""
"","","","","","html-keyboard-response","106","288041","0.0-108.0-0.0","43","1","2023-10-31 21:39:34","a725c3012b74bf33a1020a98cb69c237","181.31.144.122","Mozilla/5.0 (Windows NT 10.0; Win64; x64) AppleWebKit/537.36 (KHTML, like Gecko) Chrome/118.0.0.0 Safari/537.36","WebKit","Chrome","118.0.0.0","Windows","10.0","null","en-US,en;q=0.9","true","498","<p id=""stimulus"" style=""font-size:60px;"">veintiocho</p>","j","","","empty_block","","veintiocho","","","","2","13",""
"","","","","","html-keyboard-response","107","290802","0.0-109.0","43","1","2023-10-31 21:39:34","a725c3012b74bf33a1020a98cb69c237","181.31.144.122","Mozilla/5.0 (Windows NT 10.0; Win64; x64) AppleWebKit/537.36 (KHTML, like Gecko) Chrome/118.0.0.0 Safari/537.36","WebKit","Chrome","118.0.0.0","Windows","10.0","null","en-US,en;q=0.9","true","null","<div style=""font-size:100px;"">X</div>","null","","","fixation","","","","","","","",""
"","","","","","audio-keyboard-response","108","291570","0.0-110.0","43","1","2023-10-31 21:39:34","a725c3012b74bf33a1020a98cb69c237","181.31.144.122","Mozilla/5.0 (Windows NT 10.0; Win64; x64) AppleWebKit/537.36 (KHTML, like Gecko) Chrome/118.0.0.0 Safari/537.36","WebKit","Chrome","118.0.0.0","Windows","10.0","null","en-US,en;q=0.9","true","760","tones/880hz_short.mp3","s","","","tone_number_task","1025","cuarenta y cuatro","tones/880hz_short.mp3","1175","60","2","14",""
"","","","","","html-keyboard-response","109","291850","0.0-111.0-0.0","43","1","2023-10-31 21:39:34","a725c3012b74bf33a1020a98cb69c237","181.31.144.122","Mozilla/5.0 (Windows NT 10.0; Win64; x64) AppleWebKit/537.36 (KHTML, like Gecko) Chrome/118.0.0.0 Safari/537.36","WebKit","Chrome","118.0.0.0","Windows","10.0","null","en-US,en;q=0.9","true","null","","null","","","delay_block","","","","","","2","14",""
"","","","","","html-keyboard-response","110","292007","0.0-111.0-1.0","43","1","2023-10-31 21:39:34","a725c3012b74bf33a1020a98cb69c237","181.31.144.122","Mozilla/5.0 (Windows NT 10.0; Win64; x64) AppleWebKit/537.36 (KHTML, like Gecko) Chrome/118.0.0.0 Safari/537.36","WebKit","Chrome","118.0.0.0","Windows","10.0","null","en-US,en;q=0.9","true","null","<p id=""stimulus"" style=""font-size:60px;"">cuarenta y cuatro</p>","null","","","tone_number_task_remaining_before_delay","","cuarenta y cuatro","","415","60","2","14",""
"","","","","","html-keyboard-response","111","292441","0.0-114.0-0.0","43","1","2023-10-31 21:39:34","a725c3012b74bf33a1020a98cb69c237","181.31.144.122","Mozilla/5.0 (Windows NT 10.0; Win64; x64) AppleWebKit/537.36 (KHTML, like Gecko) Chrome/118.0.0.0 Safari/537.36","WebKit","Chrome","118.0.0.0","Windows","10.0","null","en-US,en;q=0.9","true","427","<p id=""stimulus"" style=""font-size:60px;"">cuarenta y cuatro</p>","k","","","empty_block","","cuarenta y cuatro","","","","2","14",""
"","","","","","html-keyboard-response","112","295219","0.0-115.0","43","1","2023-10-31 21:39:34","a725c3012b74bf33a1020a98cb69c237","181.31.144.122","Mozilla/5.0 (Windows NT 10.0; Win64; x64) AppleWebKit/537.36 (KHTML, like Gecko) Chrome/118.0.0.0 Safari/537.36","WebKit","Chrome","118.0.0.0","Windows","10.0","null","en-US,en;q=0.9","true","null","<div style=""font-size:100px;"">X</div>","null","","","fixation","","","","","","","",""
"","","","","","audio-keyboard-response","113","295484","0.0-116.0","43","1","2023-10-31 21:39:34","a725c3012b74bf33a1020a98cb69c237","181.31.144.122","Mozilla/5.0 (Windows NT 10.0; Win64; x64) AppleWebKit/537.36 (KHTML, like Gecko) Chrome/118.0.0.0 Safari/537.36","WebKit","Chrome","118.0.0.0","Windows","10.0","null","en-US,en;q=0.9","true","null","tones/880hz_short.mp3","null","","","tone_number_task","102.5","treinta y seis","tones/880hz_short.mp3","252.5","60","2","15",""
"","","","","","html-keyboard-response","114","296228","0.0-119.0-0.0","43","1","2023-10-31 21:39:34","a725c3012b74bf33a1020a98cb69c237","181.31.144.122","Mozilla/5.0 (Windows NT 10.0; Win64; x64) AppleWebKit/537.36 (KHTML, like Gecko) Chrome/118.0.0.0 Safari/537.36","WebKit","Chrome","118.0.0.0","Windows","10.0","null","en-US,en;q=0.9","true","736","tones/880hz_short.mp3","a","","","empty_block","","treinta y seis","","","","2","15",""
"","","","","","html-keyboard-response","115","296781","0.0-119.0-1.0","43","1","2023-10-31 21:39:34","a725c3012b74bf33a1020a98cb69c237","181.31.144.122","Mozilla/5.0 (Windows NT 10.0; Win64; x64) AppleWebKit/537.36 (KHTML, like Gecko) Chrome/118.0.0.0 Safari/537.36","WebKit","Chrome","118.0.0.0","Windows","10.0","null","en-US,en;q=0.9","true","550","tones/880hz_short.mp3","j","","","empty_block","","treinta y seis","","","","2","15",""
"","","","","","html-keyboard-response","116","299545","0.0-121.0","43","1","2023-10-31 21:39:34","a725c3012b74bf33a1020a98cb69c237","181.31.144.122","Mozilla/5.0 (Windows NT 10.0; Win64; x64) AppleWebKit/537.36 (KHTML, like Gecko) Chrome/118.0.0.0 Safari/537.36","WebKit","Chrome","118.0.0.0","Windows","10.0","null","en-US,en;q=0.9","true","null","<div style=""font-size:100px;"">X</div>","null","","","fixation","","","","","","","",""
"","","","","","audio-keyboard-response","117","300266","0.0-122.0","43","1","2023-10-31 21:39:34","a725c3012b74bf33a1020a98cb69c237","181.31.144.122","Mozilla/5.0 (Windows NT 10.0; Win64; x64) AppleWebKit/537.36 (KHTML, like Gecko) Chrome/118.0.0.0 Safari/537.36","WebKit","Chrome","118.0.0.0","Windows","10.0","null","en-US,en;q=0.9","true","720","tones/880hz_short.mp3","s","","","tone_number_task","992.5","sesenta y siete","tones/880hz_short.mp3","1142.5","60","2","16",""
"","","","","","html-keyboard-response","118","300542","0.0-123.0-0.0","43","1","2023-10-31 21:39:34","a725c3012b74bf33a1020a98cb69c237","181.31.144.122","Mozilla/5.0 (Windows NT 10.0; Win64; x64) AppleWebKit/537.36 (KHTML, like Gecko) Chrome/118.0.0.0 Safari/537.36","WebKit","Chrome","118.0.0.0","Windows","10.0","null","en-US,en;q=0.9","true","null","","null","","","delay_block","","","","","","2","16",""
"","","","","","html-keyboard-response","119","300702","0.0-123.0-1.0","43","1","2023-10-31 21:39:34","a725c3012b74bf33a1020a98cb69c237","181.31.144.122","Mozilla/5.0 (Windows NT 10.0; Win64; x64) AppleWebKit/537.36 (KHTML, like Gecko) Chrome/118.0.0.0 Safari/537.36","WebKit","Chrome","118.0.0.0","Windows","10.0","null","en-US,en;q=0.9","true","null","<p id=""stimulus"" style=""font-size:60px;"">sesenta y siete</p>","null","","","tone_number_task_remaining_before_delay","","sesenta y siete","","422.5","60","2","16",""
"","","","","","html-keyboard-response","120","301393","0.0-126.0-0.0","43","1","2023-10-31 21:39:34","a725c3012b74bf33a1020a98cb69c237","181.31.144.122","Mozilla/5.0 (Windows NT 10.0; Win64; x64) AppleWebKit/537.36 (KHTML, like Gecko) Chrome/118.0.0.0 Safari/537.36","WebKit","Chrome","118.0.0.0","Windows","10.0","null","en-US,en;q=0.9","true","686","<p id=""stimulus"" style=""font-size:60px;"">sesenta y siete</p>","k","","","empty_block","","sesenta y siete","","","","2","16",""
"","","","","","html-keyboard-response","121","304159","0.0-127.0","43","1","2023-10-31 21:39:34","a725c3012b74bf33a1020a98cb69c237","181.31.144.122","Mozilla/5.0 (Windows NT 10.0; Win64; x64) AppleWebKit/537.36 (KHTML, like Gecko) Chrome/118.0.0.0 Safari/537.36","WebKit","Chrome","118.0.0.0","Windows","10.0","null","en-US,en;q=0.9","true","null","<div style=""font-size:100px;"">X</div>","null","","","fixation","","","","","","","",""
"","","","","","audio-keyboard-response","122","304315","0.0-128.0","43","1","2023-10-31 21:39:34","a725c3012b74bf33a1020a98cb69c237","181.31.144.122","Mozilla/5.0 (Windows NT 10.0; Win64; x64) AppleWebKit/537.36 (KHTML, like Gecko) Chrome/118.0.0.0 Safari/537.36","WebKit","Chrome","118.0.0.0","Windows","10.0","null","en-US,en;q=0.9","true","null","tones/440hz_short.mp3","null","","","tone_number_task","0","cuarenta y ocho","tones/440hz_short.mp3","150","60","2","17",""
"","","","","","html-keyboard-response","123","305524","0.0-131.0-0.0","43","1","2023-10-31 21:39:34","a725c3012b74bf33a1020a98cb69c237","181.31.144.122","Mozilla/5.0 (Windows NT 10.0; Win64; x64) AppleWebKit/537.36 (KHTML, like Gecko) Chrome/118.0.0.0 Safari/537.36","WebKit","Chrome","118.0.0.0","Windows","10.0","null","en-US,en;q=0.9","true","null","tones/440hz_short.mp3","null","","","empty_block","","cuarenta y ocho","","","","2","17",""
"","","","","","html-keyboard-response","124","306057","0.0-131.0-1.0","43","1","2023-10-31 21:39:34","a725c3012b74bf33a1020a98cb69c237","181.31.144.122","Mozilla/5.0 (Windows NT 10.0; Win64; x64) AppleWebKit/537.36 (KHTML, like Gecko) Chrome/118.0.0.0 Safari/537.36","WebKit","Chrome","118.0.0.0","Windows","10.0","null","en-US,en;q=0.9","true","522","tones/440hz_short.mp3","a","","","empty_block","","cuarenta y ocho","","","","2","17",""
"","","","","","html-keyboard-response","125","308822","0.0-133.0","43","1","2023-10-31 21:39:34","a725c3012b74bf33a1020a98cb69c237","181.31.144.122","Mozilla/5.0 (Windows NT 10.0; Win64; x64) AppleWebKit/537.36 (KHTML, like Gecko) Chrome/118.0.0.0 Safari/537.36","WebKit","Chrome","118.0.0.0","Windows","10.0","null","en-US,en;q=0.9","true","null","<div style=""font-size:100px;"">X</div>","null","","","fixation","","","","","","","",""
"","","","","","audio-keyboard-response","126","309693","0.0-134.0","43","1","2023-10-31 21:39:34","a725c3012b74bf33a1020a98cb69c237","181.31.144.122","Mozilla/5.0 (Windows NT 10.0; Win64; x64) AppleWebKit/537.36 (KHTML, like Gecko) Chrome/118.0.0.0 Safari/537.36","WebKit","Chrome","118.0.0.0","Windows","10.0","null","en-US,en;q=0.9","true","869","tones/440hz_short.mp3","a","","","tone_number_task","992.5","sesenta y cuatro","tones/440hz_short.mp3","1142.5","60","2","18",""
"","","","","","html-keyboard-response","127","309829","0.0-135.0-0.0","43","1","2023-10-31 21:39:34","a725c3012b74bf33a1020a98cb69c237","181.31.144.122","Mozilla/5.0 (Windows NT 10.0; Win64; x64) AppleWebKit/537.36 (KHTML, like Gecko) Chrome/118.0.0.0 Safari/537.36","WebKit","Chrome","118.0.0.0","Windows","10.0","null","en-US,en;q=0.9","true","null","","null","","","delay_block","","","","","","2","18",""
"","","","","","html-keyboard-response","128","309988","0.0-135.0-1.0","43","1","2023-10-31 21:39:34","a725c3012b74bf33a1020a98cb69c237","181.31.144.122","Mozilla/5.0 (Windows NT 10.0; Win64; x64) AppleWebKit/537.36 (KHTML, like Gecko) Chrome/118.0.0.0 Safari/537.36","WebKit","Chrome","118.0.0.0","Windows","10.0","null","en-US,en;q=0.9","true","null","<p id=""stimulus"" style=""font-size:60px;"">sesenta y cuatro</p>","null","","","tone_number_task_remaining_before_delay","","sesenta y cuatro","","273.5","60","2","18",""
"","","","","","html-keyboard-response","129","310545","0.0-138.0-0.0","43","1","2023-10-31 21:39:34","a725c3012b74bf33a1020a98cb69c237","181.31.144.122","Mozilla/5.0 (Windows NT 10.0; Win64; x64) AppleWebKit/537.36 (KHTML, like Gecko) Chrome/118.0.0.0 Safari/537.36","WebKit","Chrome","118.0.0.0","Windows","10.0","null","en-US,en;q=0.9","true","554","<p id=""stimulus"" style=""font-size:60px;"">sesenta y cuatro</p>","k","","","empty_block","","sesenta y cuatro","","","","2","18",""
"","","","","","html-keyboard-response","130","313317","0.0-139.0","43","1","2023-10-31 21:39:34","a725c3012b74bf33a1020a98cb69c237","181.31.144.122","Mozilla/5.0 (Windows NT 10.0; Win64; x64) AppleWebKit/537.36 (KHTML, like Gecko) Chrome/118.0.0.0 Safari/537.36","WebKit","Chrome","118.0.0.0","Windows","10.0","null","en-US,en;q=0.9","true","null","<div style=""font-size:100px;"">X</div>","null","","","fixation","","","","","","","",""
"","","","","","audio-keyboard-response","131","313991","0.0-140.0","43","1","2023-10-31 21:39:34","a725c3012b74bf33a1020a98cb69c237","181.31.144.122","Mozilla/5.0 (Windows NT 10.0; Win64; x64) AppleWebKit/537.36 (KHTML, like Gecko) Chrome/118.0.0.0 Safari/537.36","WebKit","Chrome","118.0.0.0","Windows","10.0","null","en-US,en;q=0.9","true","661","tones/880hz_short.mp3","s","","","tone_number_task","1025","cuarenta","tones/880hz_short.mp3","1175","60","2","19",""
"","","","","","html-keyboard-response","132","314361","0.0-141.0-0.0","43","1","2023-10-31 21:39:34","a725c3012b74bf33a1020a98cb69c237","181.31.144.122","Mozilla/5.0 (Windows NT 10.0; Win64; x64) AppleWebKit/537.36 (KHTML, like Gecko) Chrome/118.0.0.0 Safari/537.36","WebKit","Chrome","118.0.0.0","Windows","10.0","null","en-US,en;q=0.9","true","null","","null","","","delay_block","","","","","","2","19",""
"","","","","","html-keyboard-response","133","314522","0.0-141.0-1.0","43","1","2023-10-31 21:39:34","a725c3012b74bf33a1020a98cb69c237","181.31.144.122","Mozilla/5.0 (Windows NT 10.0; Win64; x64) AppleWebKit/537.36 (KHTML, like Gecko) Chrome/118.0.0.0 Safari/537.36","WebKit","Chrome","118.0.0.0","Windows","10.0","null","en-US,en;q=0.9","true","null","<p id=""stimulus"" style=""font-size:60px;"">cuarenta</p>","null","","","tone_number_task_remaining_before_delay","","cuarenta","","514","60","2","19",""
"","","","","","html-keyboard-response","134","314968","0.0-144.0-0.0","43","1","2023-10-31 21:39:34","a725c3012b74bf33a1020a98cb69c237","181.31.144.122","Mozilla/5.0 (Windows NT 10.0; Win64; x64) AppleWebKit/537.36 (KHTML, like Gecko) Chrome/118.0.0.0 Safari/537.36","WebKit","Chrome","118.0.0.0","Windows","10.0","null","en-US,en;q=0.9","true","437","<p id=""stimulus"" style=""font-size:60px;"">cuarenta</p>","j","","","empty_block","","cuarenta","","","","2","19",""
"","","","","","html-keyboard-response","135","317730","0.0-145.0","43","1","2023-10-31 21:39:34","a725c3012b74bf33a1020a98cb69c237","181.31.144.122","Mozilla/5.0 (Windows NT 10.0; Win64; x64) AppleWebKit/537.36 (KHTML, like Gecko) Chrome/118.0.0.0 Safari/537.36","WebKit","Chrome","118.0.0.0","Windows","10.0","null","en-US,en;q=0.9","true","null","<div style=""font-size:100px;"">X</div>","null","","","fixation","","","","","","","",""
"","","","","","audio-keyboard-response","136","318584","0.0-146.0","43","1","2023-10-31 21:39:34","a725c3012b74bf33a1020a98cb69c237","181.31.144.122","Mozilla/5.0 (Windows NT 10.0; Win64; x64) AppleWebKit/537.36 (KHTML, like Gecko) Chrome/118.0.0.0 Safari/537.36","WebKit","Chrome","118.0.0.0","Windows","10.0","null","en-US,en;q=0.9","true","851","tones/440hz_short.mp3","a","","","tone_number_task","1025","treinta y uno","tones/440hz_short.mp3","1175","60","2","20",""
"","","","","","html-keyboard-response","137","318781","0.0-147.0-0.0","43","1","2023-10-31 21:39:34","a725c3012b74bf33a1020a98cb69c237","181.31.144.122","Mozilla/5.0 (Windows NT 10.0; Win64; x64) AppleWebKit/537.36 (KHTML, like Gecko) Chrome/118.0.0.0 Safari/537.36","WebKit","Chrome","118.0.0.0","Windows","10.0","null","en-US,en;q=0.9","true","null","","null","","","delay_block","","","","","","2","20",""
"","","","","","html-keyboard-response","138","318940","0.0-147.0-1.0","43","1","2023-10-31 21:39:34","a725c3012b74bf33a1020a98cb69c237","181.31.144.122","Mozilla/5.0 (Windows NT 10.0; Win64; x64) AppleWebKit/537.36 (KHTML, like Gecko) Chrome/118.0.0.0 Safari/537.36","WebKit","Chrome","118.0.0.0","Windows","10.0","null","en-US,en;q=0.9","true","null","<p id=""stimulus"" style=""font-size:60px;"">treinta y uno</p>","null","","","tone_number_task_remaining_before_delay","","treinta y uno","","324","60","2","20",""
"","","","","","html-keyboard-response","139","319442","0.0-150.0-0.0","43","1","2023-10-31 21:39:34","a725c3012b74bf33a1020a98cb69c237","181.31.144.122","Mozilla/5.0 (Windows NT 10.0; Win64; x64) AppleWebKit/537.36 (KHTML, like Gecko) Chrome/118.0.0.0 Safari/537.36","WebKit","Chrome","118.0.0.0","Windows","10.0","null","en-US,en;q=0.9","true","495","<p id=""stimulus"" style=""font-size:60px;"">treinta y uno</p>","j","","","empty_block","","treinta y uno","","","","2","20",""
"","","","","","html-keyboard-response","140","322203","0.0-151.0","43","1","2023-10-31 21:39:34","a725c3012b74bf33a1020a98cb69c237","181.31.144.122","Mozilla/5.0 (Windows NT 10.0; Win64; x64) AppleWebKit/537.36 (KHTML, like Gecko) Chrome/118.0.0.0 Safari/537.36","WebKit","Chrome","118.0.0.0","Windows","10.0","null","en-US,en;q=0.9","true","null","<div style=""font-size:100px;"">X</div>","null","","","fixation","","","","","","","",""
"","","","","","audio-keyboard-response","141","322369","0.0-152.0","43","1","2023-10-31 21:39:34","a725c3012b74bf33a1020a98cb69c237","181.31.144.122","Mozilla/5.0 (Windows NT 10.0; Win64; x64) AppleWebKit/537.36 (KHTML, like Gecko) Chrome/118.0.0.0 Safari/537.36","WebKit","Chrome","118.0.0.0","Windows","10.0","null","en-US,en;q=0.9","true","null","tones/880hz_short.mp3","null","","","tone_number_task","0","treinta y tres","tones/880hz_short.mp3","150","60","2","21",""
"","","","","","html-keyboard-response","142","323034","0.0-155.0-0.0","43","1","2023-10-31 21:39:34","a725c3012b74bf33a1020a98cb69c237","181.31.144.122","Mozilla/5.0 (Windows NT 10.0; Win64; x64) AppleWebKit/537.36 (KHTML, like Gecko) Chrome/118.0.0.0 Safari/537.36","WebKit","Chrome","118.0.0.0","Windows","10.0","null","en-US,en;q=0.9","true","660","tones/880hz_short.mp3","s","","","empty_block","","treinta y tres","","","","2","21",""
"","","","","","html-keyboard-response","143","323497","0.0-155.0-1.0","43","1","2023-10-31 21:39:34","a725c3012b74bf33a1020a98cb69c237","181.31.144.122","Mozilla/5.0 (Windows NT 10.0; Win64; x64) AppleWebKit/537.36 (KHTML, like Gecko) Chrome/118.0.0.0 Safari/537.36","WebKit","Chrome","118.0.0.0","Windows","10.0","null","en-US,en;q=0.9","true","460","tones/880hz_short.mp3","j","","","empty_block","","treinta y tres","","","","2","21",""
"","","","","","html-keyboard-response","144","326262","0.0-157.0","43","1","2023-10-31 21:39:34","a725c3012b74bf33a1020a98cb69c237","181.31.144.122","Mozilla/5.0 (Windows NT 10.0; Win64; x64) AppleWebKit/537.36 (KHTML, like Gecko) Chrome/118.0.0.0 Safari/537.36","WebKit","Chrome","118.0.0.0","Windows","10.0","null","en-US,en;q=0.9","true","null","<div style=""font-size:100px;"">X</div>","null","","","fixation","","","","","","","",""
"","","","","","audio-keyboard-response","145","326968","0.0-158.0","43","1","2023-10-31 21:39:34","a725c3012b74bf33a1020a98cb69c237","181.31.144.122","Mozilla/5.0 (Windows NT 10.0; Win64; x64) AppleWebKit/537.36 (KHTML, like Gecko) Chrome/118.0.0.0 Safari/537.36","WebKit","Chrome","118.0.0.0","Windows","10.0","null","en-US,en;q=0.9","true","699","tones/440hz_short.mp3","a","","","tone_number_task","1025","sesenta y ocho","tones/440hz_short.mp3","1175","60","2","22",""
"","","","","","html-keyboard-response","146","327319","0.0-159.0-0.0","43","1","2023-10-31 21:39:34","a725c3012b74bf33a1020a98cb69c237","181.31.144.122","Mozilla/5.0 (Windows NT 10.0; Win64; x64) AppleWebKit/537.36 (KHTML, like Gecko) Chrome/118.0.0.0 Safari/537.36","WebKit","Chrome","118.0.0.0","Windows","10.0","null","en-US,en;q=0.9","true","null","","null","","","delay_block","","","","","","2","22",""
"","","","","","html-keyboard-response","147","327476","0.0-159.0-1.0","43","1","2023-10-31 21:39:34","a725c3012b74bf33a1020a98cb69c237","181.31.144.122","Mozilla/5.0 (Windows NT 10.0; Win64; x64) AppleWebKit/537.36 (KHTML, like Gecko) Chrome/118.0.0.0 Safari/537.36","WebKit","Chrome","118.0.0.0","Windows","10.0","null","en-US,en;q=0.9","true","null","<p id=""stimulus"" style=""font-size:60px;"">sesenta y ocho</p>","null","","","tone_number_task_remaining_before_delay","","sesenta y ocho","","476","60","2","22",""
"","","","","","html-keyboard-response","148","327957","0.0-162.0-0.0","43","1","2023-10-31 21:39:34","a725c3012b74bf33a1020a98cb69c237","181.31.144.122","Mozilla/5.0 (Windows NT 10.0; Win64; x64) AppleWebKit/537.36 (KHTML, like Gecko) Chrome/118.0.0.0 Safari/537.36","WebKit","Chrome","118.0.0.0","Windows","10.0","null","en-US,en;q=0.9","true","477","<p id=""stimulus"" style=""font-size:60px;"">sesenta y ocho</p>","k","","","empty_block","","sesenta y ocho","","","","2","22",""
"","","","","","html-keyboard-response","149","330730","0.0-163.0","43","1","2023-10-31 21:39:34","a725c3012b74bf33a1020a98cb69c237","181.31.144.122","Mozilla/5.0 (Windows NT 10.0; Win64; x64) AppleWebKit/537.36 (KHTML, like Gecko) Chrome/118.0.0.0 Safari/537.36","WebKit","Chrome","118.0.0.0","Windows","10.0","null","en-US,en;q=0.9","true","null","<div style=""font-size:100px;"">X</div>","null","","","fixation","","","","","","","",""
"","","","","","audio-keyboard-response","150","330887","0.0-164.0","43","1","2023-10-31 21:39:34","a725c3012b74bf33a1020a98cb69c237","181.31.144.122","Mozilla/5.0 (Windows NT 10.0; Win64; x64) AppleWebKit/537.36 (KHTML, like Gecko) Chrome/118.0.0.0 Safari/537.36","WebKit","Chrome","118.0.0.0","Windows","10.0","null","en-US,en;q=0.9","true","null","tones/880hz_short.mp3","null","","","tone_number_task","0","sesenta y uno","tones/880hz_short.mp3","150","60","2","23",""
"","","","","","html-keyboard-response","151","332106","0.0-167.0-0.0","43","1","2023-10-31 21:39:34","a725c3012b74bf33a1020a98cb69c237","181.31.144.122","Mozilla/5.0 (Windows NT 10.0; Win64; x64) AppleWebKit/537.36 (KHTML, like Gecko) Chrome/118.0.0.0 Safari/537.36","WebKit","Chrome","118.0.0.0","Windows","10.0","null","en-US,en;q=0.9","true","null","tones/880hz_short.mp3","null","","","empty_block","","sesenta y uno","","","","2","23",""
"","","","","","html-keyboard-response","152","332200","0.0-167.0-1.0","43","1","2023-10-31 21:39:34","a725c3012b74bf33a1020a98cb69c237","181.31.144.122","Mozilla/5.0 (Windows NT 10.0; Win64; x64) AppleWebKit/537.36 (KHTML, like Gecko) Chrome/118.0.0.0 Safari/537.36","WebKit","Chrome","118.0.0.0","Windows","10.0","null","en-US,en;q=0.9","true","90","tones/880hz_short.mp3","s","","","empty_block","","sesenta y uno","","","","2","23",""
"","","","","","html-keyboard-response","153","334966","0.0-169.0","43","1","2023-10-31 21:39:34","a725c3012b74bf33a1020a98cb69c237","181.31.144.122","Mozilla/5.0 (Windows NT 10.0; Win64; x64) AppleWebKit/537.36 (KHTML, like Gecko) Chrome/118.0.0.0 Safari/537.36","WebKit","Chrome","118.0.0.0","Windows","10.0","null","en-US,en;q=0.9","true","null","<div style=""font-size:100px;"">X</div>","null","","","fixation","","","","","","","",""
"","","","","","audio-keyboard-response","154","335131","0.0-170.0","43","1","2023-10-31 21:39:34","a725c3012b74bf33a1020a98cb69c237","181.31.144.122","Mozilla/5.0 (Windows NT 10.0; Win64; x64) AppleWebKit/537.36 (KHTML, like Gecko) Chrome/118.0.0.0 Safari/537.36","WebKit","Chrome","118.0.0.0","Windows","10.0","null","en-US,en;q=0.9","true","null","tones/880hz_short.mp3","null","","","tone_number_task","0","cincuenta y cuatro","tones/880hz_short.mp3","150","60","2","24",""
"","","","","","html-keyboard-response","155","336224","0.0-173.0-0.0","43","1","2023-10-31 21:39:34","a725c3012b74bf33a1020a98cb69c237","181.31.144.122","Mozilla/5.0 (Windows NT 10.0; Win64; x64) AppleWebKit/537.36 (KHTML, like Gecko) Chrome/118.0.0.0 Safari/537.36","WebKit","Chrome","118.0.0.0","Windows","10.0","null","en-US,en;q=0.9","true","1085","tones/880hz_short.mp3","a","","","empty_block","","cincuenta y cuatro","","","","2","24",""
"","","","","","html-keyboard-response","156","336700","0.0-173.0-1.0","43","1","2023-10-31 21:39:34","a725c3012b74bf33a1020a98cb69c237","181.31.144.122","Mozilla/5.0 (Windows NT 10.0; Win64; x64) AppleWebKit/537.36 (KHTML, like Gecko) Chrome/118.0.0.0 Safari/537.36","WebKit","Chrome","118.0.0.0","Windows","10.0","null","en-US,en;q=0.9","true","469","tones/880hz_short.mp3","j","","","empty_block","","cincuenta y cuatro","","","","2","24",""
"","","","","","html-keyboard-response","157","339471","0.0-175.0","43","1","2023-10-31 21:39:34","a725c3012b74bf33a1020a98cb69c237","181.31.144.122","Mozilla/5.0 (Windows NT 10.0; Win64; x64) AppleWebKit/537.36 (KHTML, like Gecko) Chrome/118.0.0.0 Safari/537.36","WebKit","Chrome","118.0.0.0","Windows","10.0","null","en-US,en;q=0.9","true","null","<div style=""font-size:100px;"">X</div>","null","","","fixation","","","","","","","",""
"","","","","","audio-keyboard-response","158","340119","0.0-176.0","43","1","2023-10-31 21:39:34","a725c3012b74bf33a1020a98cb69c237","181.31.144.122","Mozilla/5.0 (Windows NT 10.0; Win64; x64) AppleWebKit/537.36 (KHTML, like Gecko) Chrome/118.0.0.0 Safari/537.36","WebKit","Chrome","118.0.0.0","Windows","10.0","null","en-US,en;q=0.9","true","640","tones/880hz_short.mp3","s","","","tone_number_task","992.5","sesenta y siete","tones/880hz_short.mp3","1142.5","60","2","25",""
"","","","","","html-keyboard-response","159","340478","0.0-177.0-0.0","43","1","2023-10-31 21:39:34","a725c3012b74bf33a1020a98cb69c237","181.31.144.122","Mozilla/5.0 (Windows NT 10.0; Win64; x64) AppleWebKit/537.36 (KHTML, like Gecko) Chrome/118.0.0.0 Safari/537.36","WebKit","Chrome","118.0.0.0","Windows","10.0","null","en-US,en;q=0.9","true","null","","null","","","delay_block","","","","","","2","25",""
"","","","","","html-keyboard-response","160","340639","0.0-177.0-1.0","43","1","2023-10-31 21:39:34","a725c3012b74bf33a1020a98cb69c237","181.31.144.122","Mozilla/5.0 (Windows NT 10.0; Win64; x64) AppleWebKit/537.36 (KHTML, like Gecko) Chrome/118.0.0.0 Safari/537.36","WebKit","Chrome","118.0.0.0","Windows","10.0","null","en-US,en;q=0.9","true","null","<p id=""stimulus"" style=""font-size:60px;"">sesenta y siete</p>","null","","","tone_number_task_remaining_before_delay","","sesenta y siete","","502.5","60","2","25",""
"","","","","","html-keyboard-response","161","341380","0.0-180.0-0.0","43","1","2023-10-31 21:39:34","a725c3012b74bf33a1020a98cb69c237","181.31.144.122","Mozilla/5.0 (Windows NT 10.0; Win64; x64) AppleWebKit/537.36 (KHTML, like Gecko) Chrome/118.0.0.0 Safari/537.36","WebKit","Chrome","118.0.0.0","Windows","10.0","null","en-US,en;q=0.9","true","735","<p id=""stimulus"" style=""font-size:60px;"">sesenta y siete</p>","k","","","empty_block","","sesenta y siete","","","","2","25",""
"","","","","","html-keyboard-response","162","344148","0.0-181.0","43","1","2023-10-31 21:39:34","a725c3012b74bf33a1020a98cb69c237","181.31.144.122","Mozilla/5.0 (Windows NT 10.0; Win64; x64) AppleWebKit/537.36 (KHTML, like Gecko) Chrome/118.0.0.0 Safari/537.36","WebKit","Chrome","118.0.0.0","Windows","10.0","null","en-US,en;q=0.9","true","null","<div style=""font-size:100px;"">X</div>","null","","","fixation","","","","","","","",""
"","","","","","audio-keyboard-response","163","344914","0.0-182.0","43","1","2023-10-31 21:39:34","a725c3012b74bf33a1020a98cb69c237","181.31.144.122","Mozilla/5.0 (Windows NT 10.0; Win64; x64) AppleWebKit/537.36 (KHTML, like Gecko) Chrome/118.0.0.0 Safari/537.36","WebKit","Chrome","118.0.0.0","Windows","10.0","null","en-US,en;q=0.9","true","760","tones/440hz_short.mp3","a","","","tone_number_task","992.5","sesenta y siete","tones/440hz_short.mp3","1142.5","60","2","26",""
"","","","","","html-keyboard-response","164","345157","0.0-183.0-0.0","43","1","2023-10-31 21:39:34","a725c3012b74bf33a1020a98cb69c237","181.31.144.122","Mozilla/5.0 (Windows NT 10.0; Win64; x64) AppleWebKit/537.36 (KHTML, like Gecko) Chrome/118.0.0.0 Safari/537.36","WebKit","Chrome","118.0.0.0","Windows","10.0","null","en-US,en;q=0.9","true","null","","null","","","delay_block","","","","","","2","26",""
"","","","","","html-keyboard-response","165","345319","0.0-183.0-1.0","43","1","2023-10-31 21:39:34","a725c3012b74bf33a1020a98cb69c237","181.31.144.122","Mozilla/5.0 (Windows NT 10.0; Win64; x64) AppleWebKit/537.36 (KHTML, like Gecko) Chrome/118.0.0.0 Safari/537.36","WebKit","Chrome","118.0.0.0","Windows","10.0","null","en-US,en;q=0.9","true","null","<p id=""stimulus"" style=""font-size:60px;"">sesenta y siete</p>","null","","","tone_number_task_remaining_before_delay","","sesenta y siete","","382.5","60","2","26",""
"","","","","","html-keyboard-response","166","345878","0.0-186.0-0.0","43","1","2023-10-31 21:39:34","a725c3012b74bf33a1020a98cb69c237","181.31.144.122","Mozilla/5.0 (Windows NT 10.0; Win64; x64) AppleWebKit/537.36 (KHTML, like Gecko) Chrome/118.0.0.0 Safari/537.36","WebKit","Chrome","118.0.0.0","Windows","10.0","null","en-US,en;q=0.9","true","554","<p id=""stimulus"" style=""font-size:60px;"">sesenta y siete</p>","k","","","empty_block","","sesenta y siete","","","","2","26",""
"","","","","","html-keyboard-response","167","348641","0.0-187.0","43","1","2023-10-31 21:39:34","a725c3012b74bf33a1020a98cb69c237","181.31.144.122","Mozilla/5.0 (Windows NT 10.0; Win64; x64) AppleWebKit/537.36 (KHTML, like Gecko) Chrome/118.0.0.0 Safari/537.36","WebKit","Chrome","118.0.0.0","Windows","10.0","null","en-US,en;q=0.9","true","null","<div style=""font-size:100px;"">X</div>","null","","","fixation","","","","","","","",""
"","","","","","audio-keyboard-response","168","349328","0.0-188.0","43","1","2023-10-31 21:39:34","a725c3012b74bf33a1020a98cb69c237","181.31.144.122","Mozilla/5.0 (Windows NT 10.0; Win64; x64) AppleWebKit/537.36 (KHTML, like Gecko) Chrome/118.0.0.0 Safari/537.36","WebKit","Chrome","118.0.0.0","Windows","10.0","null","en-US,en;q=0.9","true","680","tones/440hz_short.mp3","a","","","tone_number_task","992.5","treinta y nueve","tones/440hz_short.mp3","1142.5","60","2","27",""
"","","","","","html-keyboard-response","169","349657","0.0-189.0-0.0","43","1","2023-10-31 21:39:34","a725c3012b74bf33a1020a98cb69c237","181.31.144.122","Mozilla/5.0 (Windows NT 10.0; Win64; x64) AppleWebKit/537.36 (KHTML, like Gecko) Chrome/118.0.0.0 Safari/537.36","WebKit","Chrome","118.0.0.0","Windows","10.0","null","en-US,en;q=0.9","true","null","","null","","","delay_block","","","","","","2","27",""
"","","","","","html-keyboard-response","170","349819","0.0-189.0-1.0","43","1","2023-10-31 21:39:34","a725c3012b74bf33a1020a98cb69c237","181.31.144.122","Mozilla/5.0 (Windows NT 10.0; Win64; x64) AppleWebKit/537.36 (KHTML, like Gecko) Chrome/118.0.0.0 Safari/537.36","WebKit","Chrome","118.0.0.0","Windows","10.0","null","en-US,en;q=0.9","true","null","<p id=""stimulus"" style=""font-size:60px;"">treinta y nueve</p>","null","","","tone_number_task_remaining_before_delay","","treinta y nueve","","462.5","60","2","27",""
"","","","","","html-keyboard-response","171","350220","0.0-192.0-0.0","43","1","2023-10-31 21:39:34","a725c3012b74bf33a1020a98cb69c237","181.31.144.122","Mozilla/5.0 (Windows NT 10.0; Win64; x64) AppleWebKit/537.36 (KHTML, like Gecko) Chrome/118.0.0.0 Safari/537.36","WebKit","Chrome","118.0.0.0","Windows","10.0","null","en-US,en;q=0.9","true","395","<p id=""stimulus"" style=""font-size:60px;"">treinta y nueve</p>","j","","","empty_block","","treinta y nueve","","","","2","27",""
"","","","","","html-keyboard-response","172","352990","0.0-193.0","43","1","2023-10-31 21:39:34","a725c3012b74bf33a1020a98cb69c237","181.31.144.122","Mozilla/5.0 (Windows NT 10.0; Win64; x64) AppleWebKit/537.36 (KHTML, like Gecko) Chrome/118.0.0.0 Safari/537.36","WebKit","Chrome","118.0.0.0","Windows","10.0","null","en-US,en;q=0.9","true","null","<div style=""font-size:100px;"">X</div>","null","","","fixation","","","","","","","",""
"","","","","","audio-keyboard-response","173","353660","0.0-194.0","43","1","2023-10-31 21:39:34","a725c3012b74bf33a1020a98cb69c237","181.31.144.122","Mozilla/5.0 (Windows NT 10.0; Win64; x64) AppleWebKit/537.36 (KHTML, like Gecko) Chrome/118.0.0.0 Safari/537.36","WebKit","Chrome","118.0.0.0","Windows","10.0","null","en-US,en;q=0.9","true","659","tones/880hz_short.mp3","a","","","tone_number_task","992.5","treinta","tones/880hz_short.mp3","1142.5","60","2","28",""
"","","","","","html-keyboard-response","174","354001","0.0-195.0-0.0","43","1","2023-10-31 21:39:34","a725c3012b74bf33a1020a98cb69c237","181.31.144.122","Mozilla/5.0 (Windows NT 10.0; Win64; x64) AppleWebKit/537.36 (KHTML, like Gecko) Chrome/118.0.0.0 Safari/537.36","WebKit","Chrome","118.0.0.0","Windows","10.0","null","en-US,en;q=0.9","true","null","","null","","","delay_block","","","","","","2","28",""
"","","","","","html-keyboard-response","175","354159","0.0-195.0-1.0","43","1","2023-10-31 21:39:34","a725c3012b74bf33a1020a98cb69c237","181.31.144.122","Mozilla/5.0 (Windows NT 10.0; Win64; x64) AppleWebKit/537.36 (KHTML, like Gecko) Chrome/118.0.0.0 Safari/537.36","WebKit","Chrome","118.0.0.0","Windows","10.0","null","en-US,en;q=0.9","true","null","<p id=""stimulus"" style=""font-size:60px;"">treinta</p>","null","","","tone_number_task_remaining_before_delay","","treinta","","483.5","60","2","28",""
"","","","","","html-keyboard-response","176","354914","0.0-198.0-0.0","43","1","2023-10-31 21:39:34","a725c3012b74bf33a1020a98cb69c237","181.31.144.122","Mozilla/5.0 (Windows NT 10.0; Win64; x64) AppleWebKit/537.36 (KHTML, like Gecko) Chrome/118.0.0.0 Safari/537.36","WebKit","Chrome","118.0.0.0","Windows","10.0","null","en-US,en;q=0.9","true","750","<p id=""stimulus"" style=""font-size:60px;"">treinta</p>","j","","","empty_block","","treinta","","","","2","28",""
"","","","","","html-keyboard-response","177","357680","0.0-199.0","43","1","2023-10-31 21:39:34","a725c3012b74bf33a1020a98cb69c237","181.31.144.122","Mozilla/5.0 (Windows NT 10.0; Win64; x64) AppleWebKit/537.36 (KHTML, like Gecko) Chrome/118.0.0.0 Safari/537.36","WebKit","Chrome","118.0.0.0","Windows","10.0","null","en-US,en;q=0.9","true","null","<div style=""font-size:100px;"">X</div>","null","","","fixation","","","","","","","",""
"","","","","","audio-keyboard-response","178","358430","0.0-200.0","43","1","2023-10-31 21:39:34","a725c3012b74bf33a1020a98cb69c237","181.31.144.122","Mozilla/5.0 (Windows NT 10.0; Win64; x64) AppleWebKit/537.36 (KHTML, like Gecko) Chrome/118.0.0.0 Safari/537.36","WebKit","Chrome","118.0.0.0","Windows","10.0","null","en-US,en;q=0.9","true","741","tones/880hz_short.mp3","s","","","tone_number_task","1025","cincuenta y cuatro","tones/880hz_short.mp3","1175","60","2","29",""
"","","","","","html-keyboard-response","179","358730","0.0-201.0-0.0","43","1","2023-10-31 21:39:34","a725c3012b74bf33a1020a98cb69c237","181.31.144.122","Mozilla/5.0 (Windows NT 10.0; Win64; x64) AppleWebKit/537.36 (KHTML, like Gecko) Chrome/118.0.0.0 Safari/537.36","WebKit","Chrome","118.0.0.0","Windows","10.0","null","en-US,en;q=0.9","true","null","","null","","","delay_block","","","","","","2","29",""
"","","","","","html-keyboard-response","180","358891","0.0-201.0-1.0","43","1","2023-10-31 21:39:34","a725c3012b74bf33a1020a98cb69c237","181.31.144.122","Mozilla/5.0 (Windows NT 10.0; Win64; x64) AppleWebKit/537.36 (KHTML, like Gecko) Chrome/118.0.0.0 Safari/537.36","WebKit","Chrome","118.0.0.0","Windows","10.0","null","en-US,en;q=0.9","true","null","<p id=""stimulus"" style=""font-size:60px;"">cincuenta y cuatro</p>","null","","","tone_number_task_remaining_before_delay","","cincuenta y cuatro","","434","60","2","29",""
"","","","","","html-keyboard-response","181","359791","0.0-204.0-0.0","43","1","2023-10-31 21:39:34","a725c3012b74bf33a1020a98cb69c237","181.31.144.122","Mozilla/5.0 (Windows NT 10.0; Win64; x64) AppleWebKit/537.36 (KHTML, like Gecko) Chrome/118.0.0.0 Safari/537.36","WebKit","Chrome","118.0.0.0","Windows","10.0","null","en-US,en;q=0.9","true","894","<p id=""stimulus"" style=""font-size:60px;"">cincuenta y cuatro</p>","k","","","empty_block","","cincuenta y cuatro","","","","2","29",""
"","","","","","html-keyboard-response","182","362554","0.0-205.0","43","1","2023-10-31 21:39:34","a725c3012b74bf33a1020a98cb69c237","181.31.144.122","Mozilla/5.0 (Windows NT 10.0; Win64; x64) AppleWebKit/537.36 (KHTML, like Gecko) Chrome/118.0.0.0 Safari/537.36","WebKit","Chrome","118.0.0.0","Windows","10.0","null","en-US,en;q=0.9","true","null","<div style=""font-size:100px;"">X</div>","null","","","fixation","","","","","","","",""
"","","","","","audio-keyboard-response","183","362820","0.0-206.0","43","1","2023-10-31 21:39:34","a725c3012b74bf33a1020a98cb69c237","181.31.144.122","Mozilla/5.0 (Windows NT 10.0; Win64; x64) AppleWebKit/537.36 (KHTML, like Gecko) Chrome/118.0.0.0 Safari/537.36","WebKit","Chrome","118.0.0.0","Windows","10.0","null","en-US,en;q=0.9","true","null","tones/440hz_short.mp3","null","","","tone_number_task","102.5","sesenta y dos","tones/440hz_short.mp3","252.5","60","2","30",""
"","","","","","html-keyboard-response","184","363722","0.0-209.0-0.0","43","1","2023-10-31 21:39:34","a725c3012b74bf33a1020a98cb69c237","181.31.144.122","Mozilla/5.0 (Windows NT 10.0; Win64; x64) AppleWebKit/537.36 (KHTML, like Gecko) Chrome/118.0.0.0 Safari/537.36","WebKit","Chrome","118.0.0.0","Windows","10.0","null","en-US,en;q=0.9","true","895","tones/440hz_short.mp3","a","","","empty_block","","sesenta y dos","","","","2","30",""
"","","","","","html-keyboard-response","185","364257","0.0-209.0-1.0","43","1","2023-10-31 21:39:34","a725c3012b74bf33a1020a98cb69c237","181.31.144.122","Mozilla/5.0 (Windows NT 10.0; Win64; x64) AppleWebKit/537.36 (KHTML, like Gecko) Chrome/118.0.0.0 Safari/537.36","WebKit","Chrome","118.0.0.0","Windows","10.0","null","en-US,en;q=0.9","true","529","tones/440hz_short.mp3","j","","","empty_block","","sesenta y dos","","","","2","30",""
"","","","","","html-keyboard-response","186","367027","0.0-211.0","43","1","2023-10-31 21:39:34","a725c3012b74bf33a1020a98cb69c237","181.31.144.122","Mozilla/5.0 (Windows NT 10.0; Win64; x64) AppleWebKit/537.36 (KHTML, like Gecko) Chrome/118.0.0.0 Safari/537.36","WebKit","Chrome","118.0.0.0","Windows","10.0","null","en-US,en;q=0.9","true","null","<div style=""font-size:100px;"">X</div>","null","","","fixation","","","","","","","",""
"","","","","","audio-keyboard-response","187","367288","0.0-212.0","43","1","2023-10-31 21:39:34","a725c3012b74bf33a1020a98cb69c237","181.31.144.122","Mozilla/5.0 (Windows NT 10.0; Win64; x64) AppleWebKit/537.36 (KHTML, like Gecko) Chrome/118.0.0.0 Safari/537.36","WebKit","Chrome","118.0.0.0","Windows","10.0","null","en-US,en;q=0.9","true","null","tones/880hz_short.mp3","null","","","tone_number_task","102.5","cuarenta y cuatro","tones/880hz_short.mp3","252.5","60","2","31",""
"","","","","","html-keyboard-response","188","368189","0.0-215.0-0.0","43","1","2023-10-31 21:39:34","a725c3012b74bf33a1020a98cb69c237","181.31.144.122","Mozilla/5.0 (Windows NT 10.0; Win64; x64) AppleWebKit/537.36 (KHTML, like Gecko) Chrome/118.0.0.0 Safari/537.36","WebKit","Chrome","118.0.0.0","Windows","10.0","null","en-US,en;q=0.9","true","894","tones/880hz_short.mp3","s","","","empty_block","","cuarenta y cuatro","","","","2","31",""
"","","","","","html-keyboard-response","189","369044","0.0-215.0-1.0","43","1","2023-10-31 21:39:34","a725c3012b74bf33a1020a98cb69c237","181.31.144.122","Mozilla/5.0 (Windows NT 10.0; Win64; x64) AppleWebKit/537.36 (KHTML, like Gecko) Chrome/118.0.0.0 Safari/537.36","WebKit","Chrome","118.0.0.0","Windows","10.0","null","en-US,en;q=0.9","true","844","tones/880hz_short.mp3","k","","","empty_block","","cuarenta y cuatro","","","","2","31",""
"","","","","","html-keyboard-response","190","371819","0.0-217.0","43","1","2023-10-31 21:39:34","a725c3012b74bf33a1020a98cb69c237","181.31.144.122","Mozilla/5.0 (Windows NT 10.0; Win64; x64) AppleWebKit/537.36 (KHTML, like Gecko) Chrome/118.0.0.0 Safari/537.36","WebKit","Chrome","118.0.0.0","Windows","10.0","null","en-US,en;q=0.9","true","null","<div style=""font-size:100px;"">X</div>","null","","","fixation","","","","","","","",""
"","","","","","audio-keyboard-response","191","372631","0.0-218.0","43","1","2023-10-31 21:39:34","a725c3012b74bf33a1020a98cb69c237","181.31.144.122","Mozilla/5.0 (Windows NT 10.0; Win64; x64) AppleWebKit/537.36 (KHTML, like Gecko) Chrome/118.0.0.0 Safari/537.36","WebKit","Chrome","118.0.0.0","Windows","10.0","null","en-US,en;q=0.9","true","800","tones/880hz_short.mp3","a","","","tone_number_task","992.5","cincuenta y cuatro","tones/880hz_short.mp3","1142.5","60","2","32",""
"","","","","","html-keyboard-response","192","372837","0.0-219.0-0.0","43","1","2023-10-31 21:39:34","a725c3012b74bf33a1020a98cb69c237","181.31.144.122","Mozilla/5.0 (Windows NT 10.0; Win64; x64) AppleWebKit/537.36 (KHTML, like Gecko) Chrome/118.0.0.0 Safari/537.36","WebKit","Chrome","118.0.0.0","Windows","10.0","null","en-US,en;q=0.9","true","null","","null","","","delay_block","","","","","","2","32",""
"","","","","","html-keyboard-response","193","372997","0.0-219.0-1.0","43","1","2023-10-31 21:39:34","a725c3012b74bf33a1020a98cb69c237","181.31.144.122","Mozilla/5.0 (Windows NT 10.0; Win64; x64) AppleWebKit/537.36 (KHTML, like Gecko) Chrome/118.0.0.0 Safari/537.36","WebKit","Chrome","118.0.0.0","Windows","10.0","null","en-US,en;q=0.9","true","null","<p id=""stimulus"" style=""font-size:60px;"">cincuenta y cuatro</p>","null","","","tone_number_task_remaining_before_delay","","cincuenta y cuatro","","342.5","60","2","32",""
"","","","","","html-keyboard-response","194","374211","0.0-222.0-0.0","43","1","2023-10-31 21:39:34","a725c3012b74bf33a1020a98cb69c237","181.31.144.122","Mozilla/5.0 (Windows NT 10.0; Win64; x64) AppleWebKit/537.36 (KHTML, like Gecko) Chrome/118.0.0.0 Safari/537.36","WebKit","Chrome","118.0.0.0","Windows","10.0","null","en-US,en;q=0.9","true","null","<p id=""stimulus"" style=""font-size:60px;"">cincuenta y cuatro</p>","null","","","empty_block","","cincuenta y cuatro","","","","2","32",""
"","","","","","html-keyboard-response","195","376981","0.0-223.0","43","1","2023-10-31 21:39:34","a725c3012b74bf33a1020a98cb69c237","181.31.144.122","Mozilla/5.0 (Windows NT 10.0; Win64; x64) AppleWebKit/537.36 (KHTML, like Gecko) Chrome/118.0.0.0 Safari/537.36","WebKit","Chrome","118.0.0.0","Windows","10.0","null","en-US,en;q=0.9","true","null","<div style=""font-size:100px;"">X</div>","null","","","fixation","","","","","","","",""
"","","","","","audio-keyboard-response","196","377143","0.0-224.0","43","1","2023-10-31 21:39:34","a725c3012b74bf33a1020a98cb69c237","181.31.144.122","Mozilla/5.0 (Windows NT 10.0; Win64; x64) AppleWebKit/537.36 (KHTML, like Gecko) Chrome/118.0.0.0 Safari/537.36","WebKit","Chrome","118.0.0.0","Windows","10.0","null","en-US,en;q=0.9","true","null","tones/880hz_short.mp3","null","","","tone_number_task","0","cincuenta y dos","tones/880hz_short.mp3","150","60","2","33",""
"","","","","","html-keyboard-response","197","377686","0.0-227.0-0.0","43","1","2023-10-31 21:39:34","a725c3012b74bf33a1020a98cb69c237","181.31.144.122","Mozilla/5.0 (Windows NT 10.0; Win64; x64) AppleWebKit/537.36 (KHTML, like Gecko) Chrome/118.0.0.0 Safari/537.36","WebKit","Chrome","118.0.0.0","Windows","10.0","null","en-US,en;q=0.9","true","536","tones/880hz_short.mp3","s","","","empty_block","","cincuenta y dos","","","","2","33",""
"","","","","","html-keyboard-response","198","378032","0.0-227.0-1.0","43","1","2023-10-31 21:39:34","a725c3012b74bf33a1020a98cb69c237","181.31.144.122","Mozilla/5.0 (Windows NT 10.0; Win64; x64) AppleWebKit/537.36 (KHTML, like Gecko) Chrome/118.0.0.0 Safari/537.36","WebKit","Chrome","118.0.0.0","Windows","10.0","null","en-US,en;q=0.9","true","340","tones/880hz_short.mp3","k","","","empty_block","","cincuenta y dos","","","","2","33",""
"","","","","","html-keyboard-response","199","380795","0.0-229.0","43","1","2023-10-31 21:39:34","a725c3012b74bf33a1020a98cb69c237","181.31.144.122","Mozilla/5.0 (Windows NT 10.0; Win64; x64) AppleWebKit/537.36 (KHTML, like Gecko) Chrome/118.0.0.0 Safari/537.36","WebKit","Chrome","118.0.0.0","Windows","10.0","null","en-US,en;q=0.9","true","null","<div style=""font-size:100px;"">X</div>","null","","","fixation","","","","","","","",""
"","","","","","audio-keyboard-response","200","380962","0.0-230.0","43","1","2023-10-31 21:39:34","a725c3012b74bf33a1020a98cb69c237","181.31.144.122","Mozilla/5.0 (Windows NT 10.0; Win64; x64) AppleWebKit/537.36 (KHTML, like Gecko) Chrome/118.0.0.0 Safari/537.36","WebKit","Chrome","118.0.0.0","Windows","10.0","null","en-US,en;q=0.9","true","null","tones/440hz_short.mp3","null","","","tone_number_task","0","veintiuno","tones/440hz_short.mp3","150","60","2","34",""
"","","","","","html-keyboard-response","201","381935","0.0-233.0-0.0","43","1","2023-10-31 21:39:34","a725c3012b74bf33a1020a98cb69c237","181.31.144.122","Mozilla/5.0 (Windows NT 10.0; Win64; x64) AppleWebKit/537.36 (KHTML, like Gecko) Chrome/118.0.0.0 Safari/537.36","WebKit","Chrome","118.0.0.0","Windows","10.0","null","en-US,en;q=0.9","true","967","tones/440hz_short.mp3","a","","","empty_block","","veintiuno","","","","2","34",""
"","","","","","html-keyboard-response","202","382290","0.0-233.0-1.0","43","1","2023-10-31 21:39:34","a725c3012b74bf33a1020a98cb69c237","181.31.144.122","Mozilla/5.0 (Windows NT 10.0; Win64; x64) AppleWebKit/537.36 (KHTML, like Gecko) Chrome/118.0.0.0 Safari/537.36","WebKit","Chrome","118.0.0.0","Windows","10.0","null","en-US,en;q=0.9","true","342","tones/440hz_short.mp3","j","","","empty_block","","veintiuno","","","","2","34",""
"","","","","","html-keyboard-response","203","385054","0.0-235.0","43","1","2023-10-31 21:39:34","a725c3012b74bf33a1020a98cb69c237","181.31.144.122","Mozilla/5.0 (Windows NT 10.0; Win64; x64) AppleWebKit/537.36 (KHTML, like Gecko) Chrome/118.0.0.0 Safari/537.36","WebKit","Chrome","118.0.0.0","Windows","10.0","null","en-US,en;q=0.9","true","null","<div style=""font-size:100px;"">X</div>","null","","","fixation","","","","","","","",""
"","","","","","audio-keyboard-response","204","385218","0.0-236.0","43","1","2023-10-31 21:39:34","a725c3012b74bf33a1020a98cb69c237","181.31.144.122","Mozilla/5.0 (Windows NT 10.0; Win64; x64) AppleWebKit/537.36 (KHTML, like Gecko) Chrome/118.0.0.0 Safari/537.36","WebKit","Chrome","118.0.0.0","Windows","10.0","null","en-US,en;q=0.9","true","null","tones/440hz_short.mp3","null","","","tone_number_task","0","veintitres","tones/440hz_short.mp3","150","60","2","35",""
"","","","","","html-keyboard-response","205","385984","0.0-239.0-0.0","43","1","2023-10-31 21:39:34","a725c3012b74bf33a1020a98cb69c237","181.31.144.122","Mozilla/5.0 (Windows NT 10.0; Win64; x64) AppleWebKit/537.36 (KHTML, like Gecko) Chrome/118.0.0.0 Safari/537.36","WebKit","Chrome","118.0.0.0","Windows","10.0","null","en-US,en;q=0.9","true","752","tones/440hz_short.mp3","a","","","empty_block","","veintitres","","","","2","35",""
"","","","","","html-keyboard-response","206","386340","0.0-239.0-1.0","43","1","2023-10-31 21:39:34","a725c3012b74bf33a1020a98cb69c237","181.31.144.122","Mozilla/5.0 (Windows NT 10.0; Win64; x64) AppleWebKit/537.36 (KHTML, like Gecko) Chrome/118.0.0.0 Safari/537.36","WebKit","Chrome","118.0.0.0","Windows","10.0","null","en-US,en;q=0.9","true","348","tones/440hz_short.mp3","j","","","empty_block","","veintitres","","","","2","35",""
"","","","","","html-keyboard-response","207","389108","0.0-241.0","43","1","2023-10-31 21:39:34","a725c3012b74bf33a1020a98cb69c237","181.31.144.122","Mozilla/5.0 (Windows NT 10.0; Win64; x64) AppleWebKit/537.36 (KHTML, like Gecko) Chrome/118.0.0.0 Safari/537.36","WebKit","Chrome","118.0.0.0","Windows","10.0","null","en-US,en;q=0.9","true","null","<div style=""font-size:100px;"">X</div>","null","","","fixation","","","","","","","",""
"","","","","","audio-keyboard-response","208","389270","0.0-242.0","43","1","2023-10-31 21:39:34","a725c3012b74bf33a1020a98cb69c237","181.31.144.122","Mozilla/5.0 (Windows NT 10.0; Win64; x64) AppleWebKit/537.36 (KHTML, like Gecko) Chrome/118.0.0.0 Safari/537.36","WebKit","Chrome","118.0.0.0","Windows","10.0","null","en-US,en;q=0.9","true","null","tones/440hz_short.mp3","null","","","tone_number_task","0","cincuenta y cuatro","tones/440hz_short.mp3","150","60","2","36",""
"","","","","","html-keyboard-response","209","389866","0.0-245.0-0.0","43","1","2023-10-31 21:39:34","a725c3012b74bf33a1020a98cb69c237","181.31.144.122","Mozilla/5.0 (Windows NT 10.0; Win64; x64) AppleWebKit/537.36 (KHTML, like Gecko) Chrome/118.0.0.0 Safari/537.36","WebKit","Chrome","118.0.0.0","Windows","10.0","null","en-US,en;q=0.9","true","589","tones/440hz_short.mp3","a","","","empty_block","","cincuenta y cuatro","","","","2","36",""
"","","","","","html-keyboard-response","210","390722","0.0-245.0-1.0","43","1","2023-10-31 21:39:34","a725c3012b74bf33a1020a98cb69c237","181.31.144.122","Mozilla/5.0 (Windows NT 10.0; Win64; x64) AppleWebKit/537.36 (KHTML, like Gecko) Chrome/118.0.0.0 Safari/537.36","WebKit","Chrome","118.0.0.0","Windows","10.0","null","en-US,en;q=0.9","true","849","tones/440hz_short.mp3","j","","","empty_block","","cincuenta y cuatro","","","","2","36",""
"","","","","","html-keyboard-response","211","393490","0.0-247.0","43","1","2023-10-31 21:39:34","a725c3012b74bf33a1020a98cb69c237","181.31.144.122","Mozilla/5.0 (Windows NT 10.0; Win64; x64) AppleWebKit/537.36 (KHTML, like Gecko) Chrome/118.0.0.0 Safari/537.36","WebKit","Chrome","118.0.0.0","Windows","10.0","null","en-US,en;q=0.9","true","null","<div style=""font-size:100px;"">X</div>","null","","","fixation","","","","","","","",""
"","","","","","audio-keyboard-response","212","394101","0.0-248.0","43","1","2023-10-31 21:39:34","a725c3012b74bf33a1020a98cb69c237","181.31.144.122","Mozilla/5.0 (Windows NT 10.0; Win64; x64) AppleWebKit/537.36 (KHTML, like Gecko) Chrome/118.0.0.0 Safari/537.36","WebKit","Chrome","118.0.0.0","Windows","10.0","null","en-US,en;q=0.9","true","600","tones/880hz_short.mp3","s","","","tone_number_task","992.5","cincuenta y dos","tones/880hz_short.mp3","1142.5","60","2","37",""
"","","","","","html-keyboard-response","213","394509","0.0-249.0-0.0","43","1","2023-10-31 21:39:34","a725c3012b74bf33a1020a98cb69c237","181.31.144.122","Mozilla/5.0 (Windows NT 10.0; Win64; x64) AppleWebKit/537.36 (KHTML, like Gecko) Chrome/118.0.0.0 Safari/537.36","WebKit","Chrome","118.0.0.0","Windows","10.0","null","en-US,en;q=0.9","true","null","","null","","","delay_block","","","","","","2","37",""
"","","","","","html-keyboard-response","214","394675","0.0-249.0-1.0","43","1","2023-10-31 21:39:34","a725c3012b74bf33a1020a98cb69c237","181.31.144.122","Mozilla/5.0 (Windows NT 10.0; Win64; x64) AppleWebKit/537.36 (KHTML, like Gecko) Chrome/118.0.0.0 Safari/537.36","WebKit","Chrome","118.0.0.0","Windows","10.0","null","en-US,en;q=0.9","true","null","<p id=""stimulus"" style=""font-size:60px;"">cincuenta y dos</p>","null","","","tone_number_task_remaining_before_delay","","cincuenta y dos","","542.5","60","2","37",""
"","","","","","html-keyboard-response","215","395378","0.0-252.0-0.0","43","1","2023-10-31 21:39:34","a725c3012b74bf33a1020a98cb69c237","181.31.144.122","Mozilla/5.0 (Windows NT 10.0; Win64; x64) AppleWebKit/537.36 (KHTML, like Gecko) Chrome/118.0.0.0 Safari/537.36","WebKit","Chrome","118.0.0.0","Windows","10.0","null","en-US,en;q=0.9","true","691","<p id=""stimulus"" style=""font-size:60px;"">cincuenta y dos</p>","k","","","empty_block","","cincuenta y dos","","","","2","37",""
