"success","timeout","failed_images","failed_audio","failed_video","trial_type","trial_index","time_elapsed","internal_node_id","run_id","condition","recorded_at","source_code_version","ip","user_agent","device","browser","browser_version","platform","platform_version","referer","accept_language","check","rt","stimulus","response","question_order","url","task","delay","number","audioFile","trial_duration","font_size","block","round","value"
"true","false","[]","[]","[]","preload","0","164","0.0-0.0","66","1","2023-11-01 18:52:58","a725c3012b74bf33a1020a98cb69c237","186.22.17.230","Mozilla/5.0 (Windows NT 10.0; Win64; x64) AppleWebKit/537.36 (KHTML, like Gecko) Chrome/118.0.0.0 Safari/537.36","WebKit","Chrome","118.0.0.0","Windows","10.0","null","es-ES,es;q=0.9,en;q=0.8","true","","","","","","","","","","","","","",""
"true","","","","","fullscreen","1","583035","0.0-1.0","66","1","2023-11-01 18:52:58","a725c3012b74bf33a1020a98cb69c237","186.22.17.230","Mozilla/5.0 (Windows NT 10.0; Win64; x64) AppleWebKit/537.36 (KHTML, like Gecko) Chrome/118.0.0.0 Safari/537.36","WebKit","Chrome","118.0.0.0","Windows","10.0","null","es-ES,es;q=0.9,en;q=0.8","true","","","","","","","","","","","","","",""
"","","","","","html-button-response","2","584908","0.0-2.0","66","1","2023-11-01 18:52:58","a725c3012b74bf33a1020a98cb69c237","186.22.17.230","Mozilla/5.0 (Windows NT 10.0; Win64; x64) AppleWebKit/537.36 (KHTML, like Gecko) Chrome/118.0.0.0 Safari/537.36","WebKit","Chrome","118.0.0.0","Windows","10.0","null","es-ES,es;q=0.9,en;q=0.8","true","1871","<p style=""font-size:24px; color:red;"">Cosas importantes a tener en cuenta antes de comenzar el experimento:</p>","0","","","","","","","","","","",""
"","","","","","html-button-response","3","588890","0.0-3.0","66","1","2023-11-01 18:52:58","a725c3012b74bf33a1020a98cb69c237","186.22.17.230","Mozilla/5.0 (Windows NT 10.0; Win64; x64) AppleWebKit/537.36 (KHTML, like Gecko) Chrome/118.0.0.0 Safari/537.36","WebKit","Chrome","118.0.0.0","Windows","10.0","null","es-ES,es;q=0.9,en;q=0.8","true","3981","<p style=""font-size:24px;"">El experimento dura aproximadamente 15 minutos.</p><p style=""font-size:24px;"">Por favor, no cierres la ventana del navegador durante el experimento.</p><p style=""font-size:24px;"">Si se completa de forma parcial, no se guardará ningún resultado.</p>","0","","","","","","","","","","",""
"","","","","","html-button-response","4","591965","0.0-4.0","66","1","2023-11-01 18:52:58","a725c3012b74bf33a1020a98cb69c237","186.22.17.230","Mozilla/5.0 (Windows NT 10.0; Win64; x64) AppleWebKit/537.36 (KHTML, like Gecko) Chrome/118.0.0.0 Safari/537.36","WebKit","Chrome","118.0.0.0","Windows","10.0","null","es-ES,es;q=0.9,en;q=0.8","true","3074","<p style=""font-size:24px;"">El experimento contiene estímulos sonoros.</p>","0","","","","","","","","","","",""
"","","","","","audio-button-response","5","594860","0.0-5.0-0.0","66","1","2023-11-01 18:52:58","a725c3012b74bf33a1020a98cb69c237","186.22.17.230","Mozilla/5.0 (Windows NT 10.0; Win64; x64) AppleWebKit/537.36 (KHTML, like Gecko) Chrome/118.0.0.0 Safari/537.36","WebKit","Chrome","118.0.0.0","Windows","10.0","null","es-ES,es;q=0.9,en;q=0.8","true","2891","tones/440hz_short.mp3","1","","","","","","","","","","",""
"","","","","","audio-button-response","6","595933","0.0-6.0-0.0","66","1","2023-11-01 18:52:58","a725c3012b74bf33a1020a98cb69c237","186.22.17.230","Mozilla/5.0 (Windows NT 10.0; Win64; x64) AppleWebKit/537.36 (KHTML, like Gecko) Chrome/118.0.0.0 Safari/537.36","WebKit","Chrome","118.0.0.0","Windows","10.0","null","es-ES,es;q=0.9,en;q=0.8","true","1069","tones/880hz_short.mp3","1","","","","","","","","","","",""
"","","","","","survey-html-form","7","598130","0.0-7.0","66","1","2023-11-01 18:52:58","a725c3012b74bf33a1020a98cb69c237","186.22.17.230","Mozilla/5.0 (Windows NT 10.0; Win64; x64) AppleWebKit/537.36 (KHTML, like Gecko) Chrome/118.0.0.0 Safari/537.36","WebKit","Chrome","118.0.0.0","Windows","10.0","null","es-ES,es;q=0.9,en;q=0.8","true","2195","","{""response"":""38""}","","","","","","","","","","",""
"","","","","","survey-multi-choice","8","601835","0.0-8.0","66","1","2023-11-01 18:52:58","a725c3012b74bf33a1020a98cb69c237","186.22.17.230","Mozilla/5.0 (Windows NT 10.0; Win64; x64) AppleWebKit/537.36 (KHTML, like Gecko) Chrome/118.0.0.0 Safari/537.36","WebKit","Chrome","118.0.0.0","Windows","10.0","null","es-ES,es;q=0.9,en;q=0.8","true","3703","","{""gender"":""Mujer"",""hand"":""Derecha""}","[0,1]","","","","","","","","","",""
"","","","","","external-html","9","641189","0.0-9.0","66","1","2023-11-01 18:52:58","a725c3012b74bf33a1020a98cb69c237","186.22.17.230","Mozilla/5.0 (Windows NT 10.0; Win64; x64) AppleWebKit/537.36 (KHTML, like Gecko) Chrome/118.0.0.0 Safari/537.36","WebKit","Chrome","118.0.0.0","Windows","10.0","null","es-ES,es;q=0.9,en;q=0.8","true","38949","","","","instructions/instructions.html","","","","","","","","",""
"","","","","","external-html","10","667072","0.0-10.0","66","1","2023-11-01 18:52:58","a725c3012b74bf33a1020a98cb69c237","186.22.17.230","Mozilla/5.0 (Windows NT 10.0; Win64; x64) AppleWebKit/537.36 (KHTML, like Gecko) Chrome/118.0.0.0 Safari/537.36","WebKit","Chrome","118.0.0.0","Windows","10.0","null","es-ES,es;q=0.9,en;q=0.8","true","25561","","","","instructions/animation.html","","","","","","","","",""
"","","","","","html-keyboard-response","11","669745","0.0-11.0-0.0","66","1","2023-11-01 18:52:58","a725c3012b74bf33a1020a98cb69c237","186.22.17.230","Mozilla/5.0 (Windows NT 10.0; Win64; x64) AppleWebKit/537.36 (KHTML, like Gecko) Chrome/118.0.0.0 Safari/537.36","WebKit","Chrome","118.0.0.0","Windows","10.0","null","es-ES,es;q=0.9,en;q=0.8","true","null","<div style=""font-size:100px;"">X</div>","null","","","fixation","","","","","","","",""
"","","","","","audio-keyboard-response","12","670428","0.0-11.0-1.0","66","1","2023-11-01 18:52:58","a725c3012b74bf33a1020a98cb69c237","186.22.17.230","Mozilla/5.0 (Windows NT 10.0; Win64; x64) AppleWebKit/537.36 (KHTML, like Gecko) Chrome/118.0.0.0 Safari/537.36","WebKit","Chrome","118.0.0.0","Windows","10.0","null","es-ES,es;q=0.9,en;q=0.8","true","680","tones/880hz_short.mp3","s","","","tone_number_task","1000","23","tones/880hz_short.mp3","1150","100","null","null",""
"","","","","","html-keyboard-response","13","670749","0.0-11.0-2.0-0.0","66","1","2023-11-01 18:52:58","a725c3012b74bf33a1020a98cb69c237","186.22.17.230","Mozilla/5.0 (Windows NT 10.0; Win64; x64) AppleWebKit/537.36 (KHTML, like Gecko) Chrome/118.0.0.0 Safari/537.36","WebKit","Chrome","118.0.0.0","Windows","10.0","null","es-ES,es;q=0.9,en;q=0.8","true","null","","null","","","delay_block","","","","","","null","null",""
"","","","","","html-keyboard-response","14","670900","0.0-11.0-2.0-1.0","66","1","2023-11-01 18:52:58","a725c3012b74bf33a1020a98cb69c237","186.22.17.230","Mozilla/5.0 (Windows NT 10.0; Win64; x64) AppleWebKit/537.36 (KHTML, like Gecko) Chrome/118.0.0.0 Safari/537.36","WebKit","Chrome","118.0.0.0","Windows","10.0","null","es-ES,es;q=0.9,en;q=0.8","true","null","<p id=""stimulus"" style=""font-size:100px;"">23</p>","null","","","tone_number_task_remaining_before_delay","","23","","470","100","null","null",""
"","","","","","html-keyboard-response","15","671643","0.0-11.0-5.0-0.0","66","1","2023-11-01 18:52:58","a725c3012b74bf33a1020a98cb69c237","186.22.17.230","Mozilla/5.0 (Windows NT 10.0; Win64; x64) AppleWebKit/537.36 (KHTML, like Gecko) Chrome/118.0.0.0 Safari/537.36","WebKit","Chrome","118.0.0.0","Windows","10.0","null","es-ES,es;q=0.9,en;q=0.8","true","742","<p id=""stimulus"" style=""font-size:100px;"">23</p>","j","","","empty_block","","23","","","","null","null",""
"","","","","","html-keyboard-response","16","674316","0.0-13.0-0.0","66","1","2023-11-01 18:52:58","a725c3012b74bf33a1020a98cb69c237","186.22.17.230","Mozilla/5.0 (Windows NT 10.0; Win64; x64) AppleWebKit/537.36 (KHTML, like Gecko) Chrome/118.0.0.0 Safari/537.36","WebKit","Chrome","118.0.0.0","Windows","10.0","null","es-ES,es;q=0.9,en;q=0.8","true","null","<div style=""font-size:100px;"">X</div>","null","","","fixation","","","","","","","",""
"","","","","","audio-keyboard-response","17","674967","0.0-13.0-1.0","66","1","2023-11-01 18:52:58","a725c3012b74bf33a1020a98cb69c237","186.22.17.230","Mozilla/5.0 (Windows NT 10.0; Win64; x64) AppleWebKit/537.36 (KHTML, like Gecko) Chrome/118.0.0.0 Safari/537.36","WebKit","Chrome","118.0.0.0","Windows","10.0","null","es-ES,es;q=0.9,en;q=0.8","true","null","tones/880hz_short.mp3","null","","","tone_number_task","500","56","tones/880hz_short.mp3","650","100","null","null",""
"","","","","","html-keyboard-response","18","675051","0.0-13.0-4.0-0.0","66","1","2023-11-01 18:52:58","a725c3012b74bf33a1020a98cb69c237","186.22.17.230","Mozilla/5.0 (Windows NT 10.0; Win64; x64) AppleWebKit/537.36 (KHTML, like Gecko) Chrome/118.0.0.0 Safari/537.36","WebKit","Chrome","118.0.0.0","Windows","10.0","null","es-ES,es;q=0.9,en;q=0.8","true","83","tones/880hz_short.mp3","s","","","empty_block","","56","","","","null","null",""
"","","","","","html-keyboard-response","19","675356","0.0-13.0-4.0-1.0","66","1","2023-11-01 18:52:58","a725c3012b74bf33a1020a98cb69c237","186.22.17.230","Mozilla/5.0 (Windows NT 10.0; Win64; x64) AppleWebKit/537.36 (KHTML, like Gecko) Chrome/118.0.0.0 Safari/537.36","WebKit","Chrome","118.0.0.0","Windows","10.0","null","es-ES,es;q=0.9,en;q=0.8","true","304","tones/880hz_short.mp3","j","","","empty_block","","56","","","","null","null",""
"","","","","","html-button-response","20","678420","0.0-13.0-6.0-0.0","66","1","2023-11-01 18:52:58","a725c3012b74bf33a1020a98cb69c237","186.22.17.230","Mozilla/5.0 (Windows NT 10.0; Win64; x64) AppleWebKit/537.36 (KHTML, like Gecko) Chrome/118.0.0.0 Safari/537.36","WebKit","Chrome","118.0.0.0","Windows","10.0","null","es-ES,es;q=0.9,en;q=0.8","true","3064","
  '<p style=""font-size:24px; color:red;"">Incorrecto</p><p> Respondiste alguno de los estímulos de manera incorrecta.</p><p>Por favor, repasá las instrucciones y seguimos desde donde nos quedamos. </p>
  ","0","","","","","","","","","","",""
"","","","","","external-html","21","682777","0.0-13.0-6.0-1.0","66","1","2023-11-01 18:52:58","a725c3012b74bf33a1020a98cb69c237","186.22.17.230","Mozilla/5.0 (Windows NT 10.0; Win64; x64) AppleWebKit/537.36 (KHTML, like Gecko) Chrome/118.0.0.0 Safari/537.36","WebKit","Chrome","118.0.0.0","Windows","10.0","null","es-ES,es;q=0.9,en;q=0.8","true","4068","","","","instructions/instructions_B.html","","","","","","","","",""
"","","","","","html-keyboard-response","22","685451","0.0-13.1-0.1","66","1","2023-11-01 18:52:58","a725c3012b74bf33a1020a98cb69c237","186.22.17.230","Mozilla/5.0 (Windows NT 10.0; Win64; x64) AppleWebKit/537.36 (KHTML, like Gecko) Chrome/118.0.0.0 Safari/537.36","WebKit","Chrome","118.0.0.0","Windows","10.0","null","es-ES,es;q=0.9,en;q=0.8","true","null","<div style=""font-size:100px;"">X</div>","null","","","fixation","","","","","","","",""
"","","","","","audio-keyboard-response","23","686103","0.0-13.1-1.1","66","1","2023-11-01 18:52:58","a725c3012b74bf33a1020a98cb69c237","186.22.17.230","Mozilla/5.0 (Windows NT 10.0; Win64; x64) AppleWebKit/537.36 (KHTML, like Gecko) Chrome/118.0.0.0 Safari/537.36","WebKit","Chrome","118.0.0.0","Windows","10.0","null","es-ES,es;q=0.9,en;q=0.8","true","null","tones/880hz_short.mp3","null","","","tone_number_task","500","56","tones/880hz_short.mp3","650","100","null","null",""
"","","","","","html-keyboard-response","24","686251","0.0-13.1-4.1-0.1","66","1","2023-11-01 18:52:58","a725c3012b74bf33a1020a98cb69c237","186.22.17.230","Mozilla/5.0 (Windows NT 10.0; Win64; x64) AppleWebKit/537.36 (KHTML, like Gecko) Chrome/118.0.0.0 Safari/537.36","WebKit","Chrome","118.0.0.0","Windows","10.0","null","es-ES,es;q=0.9,en;q=0.8","true","148","tones/880hz_short.mp3","s","","","empty_block","","56","","","","null","null",""
"","","","","","html-keyboard-response","25","686683","0.0-13.1-4.1-1.1","66","1","2023-11-01 18:52:58","a725c3012b74bf33a1020a98cb69c237","186.22.17.230","Mozilla/5.0 (Windows NT 10.0; Win64; x64) AppleWebKit/537.36 (KHTML, like Gecko) Chrome/118.0.0.0 Safari/537.36","WebKit","Chrome","118.0.0.0","Windows","10.0","null","es-ES,es;q=0.9,en;q=0.8","true","432","tones/880hz_short.mp3","k","","","empty_block","","56","","","","null","null",""
"","","","","","html-keyboard-response","26","689355","0.0-15.0-0.0","66","1","2023-11-01 18:52:58","a725c3012b74bf33a1020a98cb69c237","186.22.17.230","Mozilla/5.0 (Windows NT 10.0; Win64; x64) AppleWebKit/537.36 (KHTML, like Gecko) Chrome/118.0.0.0 Safari/537.36","WebKit","Chrome","118.0.0.0","Windows","10.0","null","es-ES,es;q=0.9,en;q=0.8","true","null","<div style=""font-size:100px;"">X</div>","null","","","fixation","","","","","","","",""
"","","","","","audio-keyboard-response","27","689657","0.0-15.0-1.0","66","1","2023-11-01 18:52:58","a725c3012b74bf33a1020a98cb69c237","186.22.17.230","Mozilla/5.0 (Windows NT 10.0; Win64; x64) AppleWebKit/537.36 (KHTML, like Gecko) Chrome/118.0.0.0 Safari/537.36","WebKit","Chrome","118.0.0.0","Windows","10.0","null","es-ES,es;q=0.9,en;q=0.8","true","null","tones/880hz_short.mp3","null","","","tone_number_task","150","58","tones/880hz_short.mp3","300","100","null","null",""
"","","","","","html-keyboard-response","28","689867","0.0-15.0-4.0-0.0","66","1","2023-11-01 18:52:58","a725c3012b74bf33a1020a98cb69c237","186.22.17.230","Mozilla/5.0 (Windows NT 10.0; Win64; x64) AppleWebKit/537.36 (KHTML, like Gecko) Chrome/118.0.0.0 Safari/537.36","WebKit","Chrome","118.0.0.0","Windows","10.0","null","es-ES,es;q=0.9,en;q=0.8","true","209","tones/880hz_short.mp3","s","","","empty_block","","58","","","","null","null",""
"","","","","","html-keyboard-response","29","690243","0.0-15.0-4.0-1.0","66","1","2023-11-01 18:52:58","a725c3012b74bf33a1020a98cb69c237","186.22.17.230","Mozilla/5.0 (Windows NT 10.0; Win64; x64) AppleWebKit/537.36 (KHTML, like Gecko) Chrome/118.0.0.0 Safari/537.36","WebKit","Chrome","118.0.0.0","Windows","10.0","null","es-ES,es;q=0.9,en;q=0.8","true","375","tones/880hz_short.mp3","k","","","empty_block","","58","","","","null","null",""
"","","","","","html-keyboard-response","30","692916","0.0-17.0-0.0","66","1","2023-11-01 18:52:58","a725c3012b74bf33a1020a98cb69c237","186.22.17.230","Mozilla/5.0 (Windows NT 10.0; Win64; x64) AppleWebKit/537.36 (KHTML, like Gecko) Chrome/118.0.0.0 Safari/537.36","WebKit","Chrome","118.0.0.0","Windows","10.0","null","es-ES,es;q=0.9,en;q=0.8","true","null","<div style=""font-size:100px;"">X</div>","null","","","fixation","","","","","","","",""
"","","","","","audio-keyboard-response","31","693117","0.0-17.0-1.0","66","1","2023-11-01 18:52:58","a725c3012b74bf33a1020a98cb69c237","186.22.17.230","Mozilla/5.0 (Windows NT 10.0; Win64; x64) AppleWebKit/537.36 (KHTML, like Gecko) Chrome/118.0.0.0 Safari/537.36","WebKit","Chrome","118.0.0.0","Windows","10.0","null","es-ES,es;q=0.9,en;q=0.8","true","null","tones/880hz_short.mp3","null","","","tone_number_task","50","44","tones/880hz_short.mp3","200","100","null","null",""
"","","","","","html-keyboard-response","32","693876","0.0-17.0-4.0-0.0","66","1","2023-11-01 18:52:58","a725c3012b74bf33a1020a98cb69c237","186.22.17.230","Mozilla/5.0 (Windows NT 10.0; Win64; x64) AppleWebKit/537.36 (KHTML, like Gecko) Chrome/118.0.0.0 Safari/537.36","WebKit","Chrome","118.0.0.0","Windows","10.0","null","es-ES,es;q=0.9,en;q=0.8","true","757","tones/880hz_short.mp3","s","","","empty_block","","44","","","","null","null",""
"","","","","","html-keyboard-response","33","694315","0.0-17.0-4.0-1.0","66","1","2023-11-01 18:52:58","a725c3012b74bf33a1020a98cb69c237","186.22.17.230","Mozilla/5.0 (Windows NT 10.0; Win64; x64) AppleWebKit/537.36 (KHTML, like Gecko) Chrome/118.0.0.0 Safari/537.36","WebKit","Chrome","118.0.0.0","Windows","10.0","null","es-ES,es;q=0.9,en;q=0.8","true","439","tones/880hz_short.mp3","k","","","empty_block","","44","","","","null","null",""
"","","","","","html-button-response","34","697155","0.0-17.0-6.0-0.0","66","1","2023-11-01 18:52:58","a725c3012b74bf33a1020a98cb69c237","186.22.17.230","Mozilla/5.0 (Windows NT 10.0; Win64; x64) AppleWebKit/537.36 (KHTML, like Gecko) Chrome/118.0.0.0 Safari/537.36","WebKit","Chrome","118.0.0.0","Windows","10.0","null","es-ES,es;q=0.9,en;q=0.8","true","2839","
  '<p style=""font-size:24px; color:red;"">Incorrecto</p><p> Respondiste alguno de los estímulos de manera incorrecta.</p><p>Por favor, repasá las instrucciones y seguimos desde donde nos quedamos. </p>
  ","0","","","","","","","","","","",""
"","","","","","external-html","35","699615","0.0-17.0-6.0-1.0","66","1","2023-11-01 18:52:58","a725c3012b74bf33a1020a98cb69c237","186.22.17.230","Mozilla/5.0 (Windows NT 10.0; Win64; x64) AppleWebKit/537.36 (KHTML, like Gecko) Chrome/118.0.0.0 Safari/537.36","WebKit","Chrome","118.0.0.0","Windows","10.0","null","es-ES,es;q=0.9,en;q=0.8","true","2174","","","","instructions/instructions_B.html","","","","","","","","",""
"","","","","","html-keyboard-response","36","702289","0.0-17.1-0.1","66","1","2023-11-01 18:52:58","a725c3012b74bf33a1020a98cb69c237","186.22.17.230","Mozilla/5.0 (Windows NT 10.0; Win64; x64) AppleWebKit/537.36 (KHTML, like Gecko) Chrome/118.0.0.0 Safari/537.36","WebKit","Chrome","118.0.0.0","Windows","10.0","null","es-ES,es;q=0.9,en;q=0.8","true","null","<div style=""font-size:100px;"">X</div>","null","","","fixation","","","","","","","",""
"","","","","","audio-keyboard-response","37","702490","0.0-17.1-1.1","66","1","2023-11-01 18:52:58","a725c3012b74bf33a1020a98cb69c237","186.22.17.230","Mozilla/5.0 (Windows NT 10.0; Win64; x64) AppleWebKit/537.36 (KHTML, like Gecko) Chrome/118.0.0.0 Safari/537.36","WebKit","Chrome","118.0.0.0","Windows","10.0","null","es-ES,es;q=0.9,en;q=0.8","true","null","tones/880hz_short.mp3","null","","","tone_number_task","50","44","tones/880hz_short.mp3","200","100","null","null",""
"","","","","","html-keyboard-response","38","703236","0.0-17.1-4.1-0.1","66","1","2023-11-01 18:52:58","a725c3012b74bf33a1020a98cb69c237","186.22.17.230","Mozilla/5.0 (Windows NT 10.0; Win64; x64) AppleWebKit/537.36 (KHTML, like Gecko) Chrome/118.0.0.0 Safari/537.36","WebKit","Chrome","118.0.0.0","Windows","10.0","null","es-ES,es;q=0.9,en;q=0.8","true","745","tones/880hz_short.mp3","s","","","empty_block","","44","","","","null","null",""
"","","","","","html-keyboard-response","39","703755","0.0-17.1-4.1-1.1","66","1","2023-11-01 18:52:58","a725c3012b74bf33a1020a98cb69c237","186.22.17.230","Mozilla/5.0 (Windows NT 10.0; Win64; x64) AppleWebKit/537.36 (KHTML, like Gecko) Chrome/118.0.0.0 Safari/537.36","WebKit","Chrome","118.0.0.0","Windows","10.0","null","es-ES,es;q=0.9,en;q=0.8","true","519","tones/880hz_short.mp3","k","","","empty_block","","44","","","","null","null",""
"","","","","","html-button-response","40","705662","0.0-17.1-6.1-0.1","66","1","2023-11-01 18:52:58","a725c3012b74bf33a1020a98cb69c237","186.22.17.230","Mozilla/5.0 (Windows NT 10.0; Win64; x64) AppleWebKit/537.36 (KHTML, like Gecko) Chrome/118.0.0.0 Safari/537.36","WebKit","Chrome","118.0.0.0","Windows","10.0","null","es-ES,es;q=0.9,en;q=0.8","true","1905","
  '<p style=""font-size:24px; color:red;"">Incorrecto</p><p> Respondiste alguno de los estímulos de manera incorrecta.</p><p>Por favor, repasá las instrucciones y seguimos desde donde nos quedamos. </p>
  ","0","","","","","","","","","","",""
"","","","","","external-html","41","707987","0.0-17.1-6.1-1.1","66","1","2023-11-01 18:52:58","a725c3012b74bf33a1020a98cb69c237","186.22.17.230","Mozilla/5.0 (Windows NT 10.0; Win64; x64) AppleWebKit/537.36 (KHTML, like Gecko) Chrome/118.0.0.0 Safari/537.36","WebKit","Chrome","118.0.0.0","Windows","10.0","null","es-ES,es;q=0.9,en;q=0.8","true","2049","","","","instructions/instructions_B.html","","","","","","","","",""
"","","","","","html-keyboard-response","42","710661","0.0-17.2-0.2","66","1","2023-11-01 18:52:58","a725c3012b74bf33a1020a98cb69c237","186.22.17.230","Mozilla/5.0 (Windows NT 10.0; Win64; x64) AppleWebKit/537.36 (KHTML, like Gecko) Chrome/118.0.0.0 Safari/537.36","WebKit","Chrome","118.0.0.0","Windows","10.0","null","es-ES,es;q=0.9,en;q=0.8","true","null","<div style=""font-size:100px;"">X</div>","null","","","fixation","","","","","","","",""
"","","","","","audio-keyboard-response","43","710864","0.0-17.2-1.2","66","1","2023-11-01 18:52:58","a725c3012b74bf33a1020a98cb69c237","186.22.17.230","Mozilla/5.0 (Windows NT 10.0; Win64; x64) AppleWebKit/537.36 (KHTML, like Gecko) Chrome/118.0.0.0 Safari/537.36","WebKit","Chrome","118.0.0.0","Windows","10.0","null","es-ES,es;q=0.9,en;q=0.8","true","null","tones/880hz_short.mp3","null","","","tone_number_task","50","44","tones/880hz_short.mp3","200","100","null","null",""
"","","","","","html-keyboard-response","44","711868","0.0-17.2-4.2-0.2","66","1","2023-11-01 18:52:58","a725c3012b74bf33a1020a98cb69c237","186.22.17.230","Mozilla/5.0 (Windows NT 10.0; Win64; x64) AppleWebKit/537.36 (KHTML, like Gecko) Chrome/118.0.0.0 Safari/537.36","WebKit","Chrome","118.0.0.0","Windows","10.0","null","es-ES,es;q=0.9,en;q=0.8","true","1003","tones/880hz_short.mp3","s","","","empty_block","","44","","","","null","null",""
"","","","","","html-keyboard-response","45","712164","0.0-17.2-4.2-1.2","66","1","2023-11-01 18:52:58","a725c3012b74bf33a1020a98cb69c237","186.22.17.230","Mozilla/5.0 (Windows NT 10.0; Win64; x64) AppleWebKit/537.36 (KHTML, like Gecko) Chrome/118.0.0.0 Safari/537.36","WebKit","Chrome","118.0.0.0","Windows","10.0","null","es-ES,es;q=0.9,en;q=0.8","true","295","tones/880hz_short.mp3","j","","","empty_block","","44","","","","null","null",""
"","","","","","html-button-response","46","715553","0.0-19.0","66","1","2023-11-01 18:52:58","a725c3012b74bf33a1020a98cb69c237","186.22.17.230","Mozilla/5.0 (Windows NT 10.0; Win64; x64) AppleWebKit/537.36 (KHTML, like Gecko) Chrome/118.0.0.0 Safari/537.36","WebKit","Chrome","118.0.0.0","Windows","10.0","null","es-ES,es;q=0.9,en;q=0.8","true","3389","
  <h1> Muy bien </h1>
  <p> Ahora, en vez de ser presentados en dígitos, los números vendrán escritos en palabras. </p>
  <p> Por ejemplo, en vez de 44 te aparecerá ""cuarenta y cuatro"". </p>
  ","0","","","","","","","","","","",""
"","","","","","html-keyboard-response","47","718226","0.0-20.0-0.0","66","1","2023-11-01 18:52:58","a725c3012b74bf33a1020a98cb69c237","186.22.17.230","Mozilla/5.0 (Windows NT 10.0; Win64; x64) AppleWebKit/537.36 (KHTML, like Gecko) Chrome/118.0.0.0 Safari/537.36","WebKit","Chrome","118.0.0.0","Windows","10.0","null","es-ES,es;q=0.9,en;q=0.8","true","null","<div style=""font-size:100px;"">X</div>","null","","","fixation","","","","","","","",""
"","","","","","audio-keyboard-response","48","718756","0.0-20.0-1.0","66","1","2023-11-01 18:52:58","a725c3012b74bf33a1020a98cb69c237","186.22.17.230","Mozilla/5.0 (Windows NT 10.0; Win64; x64) AppleWebKit/537.36 (KHTML, like Gecko) Chrome/118.0.0.0 Safari/537.36","WebKit","Chrome","118.0.0.0","Windows","10.0","null","es-ES,es;q=0.9,en;q=0.8","true","531","tones/440hz_short.mp3","a","","","tone_number_task","1000","sesenta y uno","tones/440hz_short.mp3","1150","60","null","null",""
"","","","","","html-keyboard-response","49","719227","0.0-20.0-2.0-0.0","66","1","2023-11-01 18:52:58","a725c3012b74bf33a1020a98cb69c237","186.22.17.230","Mozilla/5.0 (Windows NT 10.0; Win64; x64) AppleWebKit/537.36 (KHTML, like Gecko) Chrome/118.0.0.0 Safari/537.36","WebKit","Chrome","118.0.0.0","Windows","10.0","null","es-ES,es;q=0.9,en;q=0.8","true","null","","null","","","delay_block","","","","","","null","null",""
"","","","","","html-keyboard-response","50","719378","0.0-20.0-2.0-1.0","66","1","2023-11-01 18:52:58","a725c3012b74bf33a1020a98cb69c237","186.22.17.230","Mozilla/5.0 (Windows NT 10.0; Win64; x64) AppleWebKit/537.36 (KHTML, like Gecko) Chrome/118.0.0.0 Safari/537.36","WebKit","Chrome","118.0.0.0","Windows","10.0","null","es-ES,es;q=0.9,en;q=0.8","true","null","<p id=""stimulus"" style=""font-size:60px;"">sesenta y uno</p>","null","","","tone_number_task_remaining_before_delay","","sesenta y uno","","619","60","null","null",""
"","","","","","html-keyboard-response","51","719900","0.0-20.0-5.0-0.0","66","1","2023-11-01 18:52:58","a725c3012b74bf33a1020a98cb69c237","186.22.17.230","Mozilla/5.0 (Windows NT 10.0; Win64; x64) AppleWebKit/537.36 (KHTML, like Gecko) Chrome/118.0.0.0 Safari/537.36","WebKit","Chrome","118.0.0.0","Windows","10.0","null","es-ES,es;q=0.9,en;q=0.8","true","520","<p id=""stimulus"" style=""font-size:60px;"">sesenta y uno</p>","k","","","empty_block","","sesenta y uno","","","","null","null",""
"","","","","","html-button-response","52","726647","0.0-22.0","66","1","2023-11-01 18:52:58","a725c3012b74bf33a1020a98cb69c237","186.22.17.230","Mozilla/5.0 (Windows NT 10.0; Win64; x64) AppleWebKit/537.36 (KHTML, like Gecko) Chrome/118.0.0.0 Safari/537.36","WebKit","Chrome","118.0.0.0","Windows","10.0","null","es-ES,es;q=0.9,en;q=0.8","true","6746","
  <h1> Fin del Entrenamiento </h1>
  <p> ¡Felicitaciones, terminaste el entrenamiento! Ahora vamos a comenzar con el experimento. </p>
  <p> Es importante tener en cuenta que consta de cuatro bloques.</p>
  <p> Podés aprovechar los momentos entre bloques para tomar un breve descanso o tomar agua entre cada uno</p>
  <p> Recordá que tenés que responder lo más rápido que puedas, pero sin equivocarte. </p>
  ","0","","","","","","","","","","",""
"","","","","","external-html","53","732415","0.0-23.0","66","1","2023-11-01 18:52:58","a725c3012b74bf33a1020a98cb69c237","186.22.17.230","Mozilla/5.0 (Windows NT 10.0; Win64; x64) AppleWebKit/537.36 (KHTML, like Gecko) Chrome/118.0.0.0 Safari/537.36","WebKit","Chrome","118.0.0.0","Windows","10.0","null","es-ES,es;q=0.9,en;q=0.8","true","5452","","","","instructions/instructions_digits_first.html","","","","","","","","",""
"","","","","","call-function","54","732417","0.0-24.0","66","1","2023-11-01 18:52:58","a725c3012b74bf33a1020a98cb69c237","186.22.17.230","Mozilla/5.0 (Windows NT 10.0; Win64; x64) AppleWebKit/537.36 (KHTML, like Gecko) Chrome/118.0.0.0 Safari/537.36","WebKit","Chrome","118.0.0.0","Windows","10.0","null","es-ES,es;q=0.9,en;q=0.8","true","","","","","","","","","","","","","",""
"","","","","","html-keyboard-response","55","735090","0.0-25.0","66","1","2023-11-01 18:52:58","a725c3012b74bf33a1020a98cb69c237","186.22.17.230","Mozilla/5.0 (Windows NT 10.0; Win64; x64) AppleWebKit/537.36 (KHTML, like Gecko) Chrome/118.0.0.0 Safari/537.36","WebKit","Chrome","118.0.0.0","Windows","10.0","null","es-ES,es;q=0.9,en;q=0.8","true","null","<div style=""font-size:100px;"">X</div>","null","","","fixation","","","","","","","",""
"","","","","","audio-keyboard-response","56","735344","0.0-26.0","66","1","2023-11-01 18:52:58","a725c3012b74bf33a1020a98cb69c237","186.22.17.230","Mozilla/5.0 (Windows NT 10.0; Win64; x64) AppleWebKit/537.36 (KHTML, like Gecko) Chrome/118.0.0.0 Safari/537.36","WebKit","Chrome","118.0.0.0","Windows","10.0","null","es-ES,es;q=0.9,en;q=0.8","true","null","tones/440hz_short.mp3","null","","","tone_number_task","102.5","55","tones/440hz_short.mp3","252.5","100","0","0",""
"","","","","","html-keyboard-response","57","735876","0.0-29.0-0.0","66","1","2023-11-01 18:52:58","a725c3012b74bf33a1020a98cb69c237","186.22.17.230","Mozilla/5.0 (Windows NT 10.0; Win64; x64) AppleWebKit/537.36 (KHTML, like Gecko) Chrome/118.0.0.0 Safari/537.36","WebKit","Chrome","118.0.0.0","Windows","10.0","null","es-ES,es;q=0.9,en;q=0.8","true","530","tones/440hz_short.mp3","a","","","empty_block","","55","","","","0","0",""
"","","","","","html-keyboard-response","58","736115","0.0-29.0-1.0","66","1","2023-11-01 18:52:58","a725c3012b74bf33a1020a98cb69c237","186.22.17.230","Mozilla/5.0 (Windows NT 10.0; Win64; x64) AppleWebKit/537.36 (KHTML, like Gecko) Chrome/118.0.0.0 Safari/537.36","WebKit","Chrome","118.0.0.0","Windows","10.0","null","es-ES,es;q=0.9,en;q=0.8","true","239","tones/440hz_short.mp3","k","","","empty_block","","55","","","","0","0",""
"","","","","","html-keyboard-response","59","738788","0.0-31.0","66","1","2023-11-01 18:52:58","a725c3012b74bf33a1020a98cb69c237","186.22.17.230","Mozilla/5.0 (Windows NT 10.0; Win64; x64) AppleWebKit/537.36 (KHTML, like Gecko) Chrome/118.0.0.0 Safari/537.36","WebKit","Chrome","118.0.0.0","Windows","10.0","null","es-ES,es;q=0.9,en;q=0.8","true","null","<div style=""font-size:100px;"">X</div>","null","","","fixation","","","","","","","",""
"","","","","","audio-keyboard-response","60","738940","0.0-32.0","66","1","2023-11-01 18:52:58","a725c3012b74bf33a1020a98cb69c237","186.22.17.230","Mozilla/5.0 (Windows NT 10.0; Win64; x64) AppleWebKit/537.36 (KHTML, like Gecko) Chrome/118.0.0.0 Safari/537.36","WebKit","Chrome","118.0.0.0","Windows","10.0","null","es-ES,es;q=0.9,en;q=0.8","true","null","tones/440hz_short.mp3","null","","","tone_number_task","0","33","tones/440hz_short.mp3","150","100","0","1",""
"","","","","","html-keyboard-response","61","739284","0.0-35.0-0.0","66","1","2023-11-01 18:52:58","a725c3012b74bf33a1020a98cb69c237","186.22.17.230","Mozilla/5.0 (Windows NT 10.0; Win64; x64) AppleWebKit/537.36 (KHTML, like Gecko) Chrome/118.0.0.0 Safari/537.36","WebKit","Chrome","118.0.0.0","Windows","10.0","null","es-ES,es;q=0.9,en;q=0.8","true","343","tones/440hz_short.mp3","a","","","empty_block","","33","","","","0","1",""
"","","","","","html-keyboard-response","62","739716","0.0-35.0-1.0","66","1","2023-11-01 18:52:58","a725c3012b74bf33a1020a98cb69c237","186.22.17.230","Mozilla/5.0 (Windows NT 10.0; Win64; x64) AppleWebKit/537.36 (KHTML, like Gecko) Chrome/118.0.0.0 Safari/537.36","WebKit","Chrome","118.0.0.0","Windows","10.0","null","es-ES,es;q=0.9,en;q=0.8","true","431","tones/440hz_short.mp3","j","","","empty_block","","33","","","","0","1",""
"","","","","","html-keyboard-response","63","742388","0.0-37.0","66","1","2023-11-01 18:52:58","a725c3012b74bf33a1020a98cb69c237","186.22.17.230","Mozilla/5.0 (Windows NT 10.0; Win64; x64) AppleWebKit/537.36 (KHTML, like Gecko) Chrome/118.0.0.0 Safari/537.36","WebKit","Chrome","118.0.0.0","Windows","10.0","null","es-ES,es;q=0.9,en;q=0.8","true","null","<div style=""font-size:100px;"">X</div>","null","","","fixation","","","","","","","",""
"","","","","","audio-keyboard-response","64","742980","0.0-38.0","66","1","2023-11-01 18:52:58","a725c3012b74bf33a1020a98cb69c237","186.22.17.230","Mozilla/5.0 (Windows NT 10.0; Win64; x64) AppleWebKit/537.36 (KHTML, like Gecko) Chrome/118.0.0.0 Safari/537.36","WebKit","Chrome","118.0.0.0","Windows","10.0","null","es-ES,es;q=0.9,en;q=0.8","true","600","tones/440hz_short.mp3","a","","","tone_number_task","1025","44","tones/440hz_short.mp3","1175","100","0","2",""
"","","","","","html-keyboard-response","65","743407","0.0-39.0-0.0","66","1","2023-11-01 18:52:58","a725c3012b74bf33a1020a98cb69c237","186.22.17.230","Mozilla/5.0 (Windows NT 10.0; Win64; x64) AppleWebKit/537.36 (KHTML, like Gecko) Chrome/118.0.0.0 Safari/537.36","WebKit","Chrome","118.0.0.0","Windows","10.0","null","es-ES,es;q=0.9,en;q=0.8","true","null","","null","","","delay_block","","","","","","0","2",""
"","","","","","html-keyboard-response","66","743558","0.0-39.0-1.0","66","1","2023-11-01 18:52:58","a725c3012b74bf33a1020a98cb69c237","186.22.17.230","Mozilla/5.0 (Windows NT 10.0; Win64; x64) AppleWebKit/537.36 (KHTML, like Gecko) Chrome/118.0.0.0 Safari/537.36","WebKit","Chrome","118.0.0.0","Windows","10.0","null","es-ES,es;q=0.9,en;q=0.8","true","null","<p id=""stimulus"" style=""font-size:100px;"">44</p>","null","","","tone_number_task_remaining_before_delay","","44","","575","100","0","2",""
"","","","","","html-keyboard-response","67","744100","0.0-42.0-0.0","66","1","2023-11-01 18:52:58","a725c3012b74bf33a1020a98cb69c237","186.22.17.230","Mozilla/5.0 (Windows NT 10.0; Win64; x64) AppleWebKit/537.36 (KHTML, like Gecko) Chrome/118.0.0.0 Safari/537.36","WebKit","Chrome","118.0.0.0","Windows","10.0","null","es-ES,es;q=0.9,en;q=0.8","true","540","<p id=""stimulus"" style=""font-size:100px;"">44</p>","j","","","empty_block","","44","","","","0","2",""
"","","","","","html-keyboard-response","68","746773","0.0-43.0","66","1","2023-11-01 18:52:58","a725c3012b74bf33a1020a98cb69c237","186.22.17.230","Mozilla/5.0 (Windows NT 10.0; Win64; x64) AppleWebKit/537.36 (KHTML, like Gecko) Chrome/118.0.0.0 Safari/537.36","WebKit","Chrome","118.0.0.0","Windows","10.0","null","es-ES,es;q=0.9,en;q=0.8","true","null","<div style=""font-size:100px;"">X</div>","null","","","fixation","","","","","","","",""
"","","","","","audio-keyboard-response","69","746925","0.0-44.0","66","1","2023-11-01 18:52:58","a725c3012b74bf33a1020a98cb69c237","186.22.17.230","Mozilla/5.0 (Windows NT 10.0; Win64; x64) AppleWebKit/537.36 (KHTML, like Gecko) Chrome/118.0.0.0 Safari/537.36","WebKit","Chrome","118.0.0.0","Windows","10.0","null","es-ES,es;q=0.9,en;q=0.8","true","null","tones/880hz_short.mp3","null","","","tone_number_task","0","58","tones/880hz_short.mp3","150","100","0","3",""
"","","","","","html-keyboard-response","70","747211","0.0-47.0-0.0","66","1","2023-11-01 18:52:58","a725c3012b74bf33a1020a98cb69c237","186.22.17.230","Mozilla/5.0 (Windows NT 10.0; Win64; x64) AppleWebKit/537.36 (KHTML, like Gecko) Chrome/118.0.0.0 Safari/537.36","WebKit","Chrome","118.0.0.0","Windows","10.0","null","es-ES,es;q=0.9,en;q=0.8","true","286","tones/880hz_short.mp3","s","","","empty_block","","58","","","","0","3",""
"","","","","","html-keyboard-response","71","747483","0.0-47.0-1.0","66","1","2023-11-01 18:52:58","a725c3012b74bf33a1020a98cb69c237","186.22.17.230","Mozilla/5.0 (Windows NT 10.0; Win64; x64) AppleWebKit/537.36 (KHTML, like Gecko) Chrome/118.0.0.0 Safari/537.36","WebKit","Chrome","118.0.0.0","Windows","10.0","null","es-ES,es;q=0.9,en;q=0.8","true","271","tones/880hz_short.mp3","k","","","empty_block","","58","","","","0","3",""
"","","","","","html-keyboard-response","72","750156","0.0-49.0","66","1","2023-11-01 18:52:58","a725c3012b74bf33a1020a98cb69c237","186.22.17.230","Mozilla/5.0 (Windows NT 10.0; Win64; x64) AppleWebKit/537.36 (KHTML, like Gecko) Chrome/118.0.0.0 Safari/537.36","WebKit","Chrome","118.0.0.0","Windows","10.0","null","es-ES,es;q=0.9,en;q=0.8","true","null","<div style=""font-size:100px;"">X</div>","null","","","fixation","","","","","","","",""
"","","","","","audio-keyboard-response","73","751334","0.0-50.0","66","1","2023-11-01 18:52:58","a725c3012b74bf33a1020a98cb69c237","186.22.17.230","Mozilla/5.0 (Windows NT 10.0; Win64; x64) AppleWebKit/537.36 (KHTML, like Gecko) Chrome/118.0.0.0 Safari/537.36","WebKit","Chrome","118.0.0.0","Windows","10.0","null","es-ES,es;q=0.9,en;q=0.8","true","null","tones/440hz_short.mp3","null","","","tone_number_task","1025","60","tones/440hz_short.mp3","1175","100","0","4",""
"","","","","","html-keyboard-response","74","751428","0.0-53.0-0.0","66","1","2023-11-01 18:52:58","a725c3012b74bf33a1020a98cb69c237","186.22.17.230","Mozilla/5.0 (Windows NT 10.0; Win64; x64) AppleWebKit/537.36 (KHTML, like Gecko) Chrome/118.0.0.0 Safari/537.36","WebKit","Chrome","118.0.0.0","Windows","10.0","null","es-ES,es;q=0.9,en;q=0.8","true","93","tones/440hz_short.mp3","a","","","empty_block","","60","","","","0","4",""
"","","","","","html-keyboard-response","75","751691","0.0-53.0-1.0","66","1","2023-11-01 18:52:58","a725c3012b74bf33a1020a98cb69c237","186.22.17.230","Mozilla/5.0 (Windows NT 10.0; Win64; x64) AppleWebKit/537.36 (KHTML, like Gecko) Chrome/118.0.0.0 Safari/537.36","WebKit","Chrome","118.0.0.0","Windows","10.0","null","es-ES,es;q=0.9,en;q=0.8","true","263","tones/440hz_short.mp3","k","","","empty_block","","60","","","","0","4",""
"","","","","","html-keyboard-response","76","754364","0.0-55.0","66","1","2023-11-01 18:52:58","a725c3012b74bf33a1020a98cb69c237","186.22.17.230","Mozilla/5.0 (Windows NT 10.0; Win64; x64) AppleWebKit/537.36 (KHTML, like Gecko) Chrome/118.0.0.0 Safari/537.36","WebKit","Chrome","118.0.0.0","Windows","10.0","null","es-ES,es;q=0.9,en;q=0.8","true","null","<div style=""font-size:100px;"">X</div>","null","","","fixation","","","","","","","",""
"","","","","","audio-keyboard-response","77","754517","0.0-56.0","66","1","2023-11-01 18:52:58","a725c3012b74bf33a1020a98cb69c237","186.22.17.230","Mozilla/5.0 (Windows NT 10.0; Win64; x64) AppleWebKit/537.36 (KHTML, like Gecko) Chrome/118.0.0.0 Safari/537.36","WebKit","Chrome","118.0.0.0","Windows","10.0","null","es-ES,es;q=0.9,en;q=0.8","true","null","tones/880hz_short.mp3","null","","","tone_number_task","0","30","tones/880hz_short.mp3","150","100","0","5",""
"","","","","","html-keyboard-response","78","754995","0.0-59.0-0.0","66","1","2023-11-01 18:52:58","a725c3012b74bf33a1020a98cb69c237","186.22.17.230","Mozilla/5.0 (Windows NT 10.0; Win64; x64) AppleWebKit/537.36 (KHTML, like Gecko) Chrome/118.0.0.0 Safari/537.36","WebKit","Chrome","118.0.0.0","Windows","10.0","null","es-ES,es;q=0.9,en;q=0.8","true","478","tones/880hz_short.mp3","s","","","empty_block","","30","","","","0","5",""
"","","","","","html-keyboard-response","79","755203","0.0-59.0-1.0","66","1","2023-11-01 18:52:58","a725c3012b74bf33a1020a98cb69c237","186.22.17.230","Mozilla/5.0 (Windows NT 10.0; Win64; x64) AppleWebKit/537.36 (KHTML, like Gecko) Chrome/118.0.0.0 Safari/537.36","WebKit","Chrome","118.0.0.0","Windows","10.0","null","es-ES,es;q=0.9,en;q=0.8","true","206","tones/880hz_short.mp3","j","","","empty_block","","30","","","","0","5",""
"","","","","","html-keyboard-response","80","757876","0.0-61.0","66","1","2023-11-01 18:52:58","a725c3012b74bf33a1020a98cb69c237","186.22.17.230","Mozilla/5.0 (Windows NT 10.0; Win64; x64) AppleWebKit/537.36 (KHTML, like Gecko) Chrome/118.0.0.0 Safari/537.36","WebKit","Chrome","118.0.0.0","Windows","10.0","null","es-ES,es;q=0.9,en;q=0.8","true","null","<div style=""font-size:100px;"">X</div>","null","","","fixation","","","","","","","",""
"","","","","","audio-keyboard-response","81","758427","0.0-62.0","66","1","2023-11-01 18:52:58","a725c3012b74bf33a1020a98cb69c237","186.22.17.230","Mozilla/5.0 (Windows NT 10.0; Win64; x64) AppleWebKit/537.36 (KHTML, like Gecko) Chrome/118.0.0.0 Safari/537.36","WebKit","Chrome","118.0.0.0","Windows","10.0","null","es-ES,es;q=0.9,en;q=0.8","true","549","tones/440hz_short.mp3","a","","","tone_number_task","1025","59","tones/440hz_short.mp3","1175","100","0","6",""
"","","","","","html-keyboard-response","82","758906","0.0-63.0-0.0","66","1","2023-11-01 18:52:58","a725c3012b74bf33a1020a98cb69c237","186.22.17.230","Mozilla/5.0 (Windows NT 10.0; Win64; x64) AppleWebKit/537.36 (KHTML, like Gecko) Chrome/118.0.0.0 Safari/537.36","WebKit","Chrome","118.0.0.0","Windows","10.0","null","es-ES,es;q=0.9,en;q=0.8","true","null","","null","","","delay_block","","","","","","0","6",""
"","","","","","html-keyboard-response","83","759057","0.0-63.0-1.0","66","1","2023-11-01 18:52:58","a725c3012b74bf33a1020a98cb69c237","186.22.17.230","Mozilla/5.0 (Windows NT 10.0; Win64; x64) AppleWebKit/537.36 (KHTML, like Gecko) Chrome/118.0.0.0 Safari/537.36","WebKit","Chrome","118.0.0.0","Windows","10.0","null","es-ES,es;q=0.9,en;q=0.8","true","null","<p id=""stimulus"" style=""font-size:100px;"">59</p>","null","","","tone_number_task_remaining_before_delay","","59","","626","100","0","6",""
"","","","","","html-keyboard-response","84","759428","0.0-66.0-0.0","66","1","2023-11-01 18:52:58","a725c3012b74bf33a1020a98cb69c237","186.22.17.230","Mozilla/5.0 (Windows NT 10.0; Win64; x64) AppleWebKit/537.36 (KHTML, like Gecko) Chrome/118.0.0.0 Safari/537.36","WebKit","Chrome","118.0.0.0","Windows","10.0","null","es-ES,es;q=0.9,en;q=0.8","true","369","<p id=""stimulus"" style=""font-size:100px;"">59</p>","k","","","empty_block","","59","","","","0","6",""
"","","","","","html-keyboard-response","85","762102","0.0-67.0","66","1","2023-11-01 18:52:58","a725c3012b74bf33a1020a98cb69c237","186.22.17.230","Mozilla/5.0 (Windows NT 10.0; Win64; x64) AppleWebKit/537.36 (KHTML, like Gecko) Chrome/118.0.0.0 Safari/537.36","WebKit","Chrome","118.0.0.0","Windows","10.0","null","es-ES,es;q=0.9,en;q=0.8","true","null","<div style=""font-size:100px;"">X</div>","null","","","fixation","","","","","","","",""
"","","","","","audio-keyboard-response","86","762357","0.0-68.0","66","1","2023-11-01 18:52:58","a725c3012b74bf33a1020a98cb69c237","186.22.17.230","Mozilla/5.0 (Windows NT 10.0; Win64; x64) AppleWebKit/537.36 (KHTML, like Gecko) Chrome/118.0.0.0 Safari/537.36","WebKit","Chrome","118.0.0.0","Windows","10.0","null","es-ES,es;q=0.9,en;q=0.8","true","null","tones/880hz_short.mp3","null","","","tone_number_task","102.5","66","tones/880hz_short.mp3","252.5","100","0","7",""
"","","","","","html-keyboard-response","87","762660","0.0-71.0-0.0","66","1","2023-11-01 18:52:58","a725c3012b74bf33a1020a98cb69c237","186.22.17.230","Mozilla/5.0 (Windows NT 10.0; Win64; x64) AppleWebKit/537.36 (KHTML, like Gecko) Chrome/118.0.0.0 Safari/537.36","WebKit","Chrome","118.0.0.0","Windows","10.0","null","es-ES,es;q=0.9,en;q=0.8","true","302","tones/880hz_short.mp3","s","","","empty_block","","66","","","","0","7",""
"","","","","","html-keyboard-response","88","762956","0.0-71.0-1.0","66","1","2023-11-01 18:52:58","a725c3012b74bf33a1020a98cb69c237","186.22.17.230","Mozilla/5.0 (Windows NT 10.0; Win64; x64) AppleWebKit/537.36 (KHTML, like Gecko) Chrome/118.0.0.0 Safari/537.36","WebKit","Chrome","118.0.0.0","Windows","10.0","null","es-ES,es;q=0.9,en;q=0.8","true","295","tones/880hz_short.mp3","k","","","empty_block","","66","","","","0","7",""
"","","","","","html-keyboard-response","89","765628","0.0-73.0","66","1","2023-11-01 18:52:58","a725c3012b74bf33a1020a98cb69c237","186.22.17.230","Mozilla/5.0 (Windows NT 10.0; Win64; x64) AppleWebKit/537.36 (KHTML, like Gecko) Chrome/118.0.0.0 Safari/537.36","WebKit","Chrome","118.0.0.0","Windows","10.0","null","es-ES,es;q=0.9,en;q=0.8","true","null","<div style=""font-size:100px;"">X</div>","null","","","fixation","","","","","","","",""
"","","","","","audio-keyboard-response","90","765780","0.0-74.0","66","1","2023-11-01 18:52:58","a725c3012b74bf33a1020a98cb69c237","186.22.17.230","Mozilla/5.0 (Windows NT 10.0; Win64; x64) AppleWebKit/537.36 (KHTML, like Gecko) Chrome/118.0.0.0 Safari/537.36","WebKit","Chrome","118.0.0.0","Windows","10.0","null","es-ES,es;q=0.9,en;q=0.8","true","null","tones/440hz_short.mp3","null","","","tone_number_task","0","63","tones/440hz_short.mp3","150","100","0","8",""
"","","","","","html-keyboard-response","91","766259","0.0-77.0-0.0","66","1","2023-11-01 18:52:58","a725c3012b74bf33a1020a98cb69c237","186.22.17.230","Mozilla/5.0 (Windows NT 10.0; Win64; x64) AppleWebKit/537.36 (KHTML, like Gecko) Chrome/118.0.0.0 Safari/537.36","WebKit","Chrome","118.0.0.0","Windows","10.0","null","es-ES,es;q=0.9,en;q=0.8","true","478","tones/440hz_short.mp3","a","","","empty_block","","63","","","","0","8",""
"","","","","","html-keyboard-response","92","766475","0.0-77.0-1.0","66","1","2023-11-01 18:52:58","a725c3012b74bf33a1020a98cb69c237","186.22.17.230","Mozilla/5.0 (Windows NT 10.0; Win64; x64) AppleWebKit/537.36 (KHTML, like Gecko) Chrome/118.0.0.0 Safari/537.36","WebKit","Chrome","118.0.0.0","Windows","10.0","null","es-ES,es;q=0.9,en;q=0.8","true","215","tones/440hz_short.mp3","k","","","empty_block","","63","","","","0","8",""
"","","","","","html-keyboard-response","93","769148","0.0-79.0","66","1","2023-11-01 18:52:58","a725c3012b74bf33a1020a98cb69c237","186.22.17.230","Mozilla/5.0 (Windows NT 10.0; Win64; x64) AppleWebKit/537.36 (KHTML, like Gecko) Chrome/118.0.0.0 Safari/537.36","WebKit","Chrome","118.0.0.0","Windows","10.0","null","es-ES,es;q=0.9,en;q=0.8","true","null","<div style=""font-size:100px;"">X</div>","null","","","fixation","","","","","","","",""
"","","","","","audio-keyboard-response","94","769715","0.0-80.0","66","1","2023-11-01 18:52:58","a725c3012b74bf33a1020a98cb69c237","186.22.17.230","Mozilla/5.0 (Windows NT 10.0; Win64; x64) AppleWebKit/537.36 (KHTML, like Gecko) Chrome/118.0.0.0 Safari/537.36","WebKit","Chrome","118.0.0.0","Windows","10.0","null","es-ES,es;q=0.9,en;q=0.8","true","571","tones/440hz_short.mp3","a","","","tone_number_task","992.5","25","tones/440hz_short.mp3","1142.5","100","0","9",""
"","","","","","html-keyboard-response","95","770139","0.0-81.0-0.0","66","1","2023-11-01 18:52:58","a725c3012b74bf33a1020a98cb69c237","186.22.17.230","Mozilla/5.0 (Windows NT 10.0; Win64; x64) AppleWebKit/537.36 (KHTML, like Gecko) Chrome/118.0.0.0 Safari/537.36","WebKit","Chrome","118.0.0.0","Windows","10.0","null","es-ES,es;q=0.9,en;q=0.8","true","null","","null","","","delay_block","","","","","","0","9",""
"","","","","","html-keyboard-response","96","770292","0.0-81.0-1.0","66","1","2023-11-01 18:52:58","a725c3012b74bf33a1020a98cb69c237","186.22.17.230","Mozilla/5.0 (Windows NT 10.0; Win64; x64) AppleWebKit/537.36 (KHTML, like Gecko) Chrome/118.0.0.0 Safari/537.36","WebKit","Chrome","118.0.0.0","Windows","10.0","null","es-ES,es;q=0.9,en;q=0.8","true","null","<p id=""stimulus"" style=""font-size:100px;"">25</p>","null","","","tone_number_task_remaining_before_delay","","25","","571.5","100","0","9",""
"","","","","","html-keyboard-response","97","770731","0.0-84.0-0.0","66","1","2023-11-01 18:52:58","a725c3012b74bf33a1020a98cb69c237","186.22.17.230","Mozilla/5.0 (Windows NT 10.0; Win64; x64) AppleWebKit/537.36 (KHTML, like Gecko) Chrome/118.0.0.0 Safari/537.36","WebKit","Chrome","118.0.0.0","Windows","10.0","null","es-ES,es;q=0.9,en;q=0.8","true","438","<p id=""stimulus"" style=""font-size:100px;"">25</p>","j","","","empty_block","","25","","","","0","9",""
"","","","","","html-keyboard-response","98","773405","0.0-85.0","66","1","2023-11-01 18:52:58","a725c3012b74bf33a1020a98cb69c237","186.22.17.230","Mozilla/5.0 (Windows NT 10.0; Win64; x64) AppleWebKit/537.36 (KHTML, like Gecko) Chrome/118.0.0.0 Safari/537.36","WebKit","Chrome","118.0.0.0","Windows","10.0","null","es-ES,es;q=0.9,en;q=0.8","true","null","<div style=""font-size:100px;"">X</div>","null","","","fixation","","","","","","","",""
"","","","","","audio-keyboard-response","99","773915","0.0-86.0","66","1","2023-11-01 18:52:58","a725c3012b74bf33a1020a98cb69c237","186.22.17.230","Mozilla/5.0 (Windows NT 10.0; Win64; x64) AppleWebKit/537.36 (KHTML, like Gecko) Chrome/118.0.0.0 Safari/537.36","WebKit","Chrome","118.0.0.0","Windows","10.0","null","es-ES,es;q=0.9,en;q=0.8","true","512","tones/880hz_short.mp3","s","","","tone_number_task","992.5","41","tones/880hz_short.mp3","1142.5","100","0","10",""
"","","","","","html-keyboard-response","100","774397","0.0-87.0-0.0","66","1","2023-11-01 18:52:58","a725c3012b74bf33a1020a98cb69c237","186.22.17.230","Mozilla/5.0 (Windows NT 10.0; Win64; x64) AppleWebKit/537.36 (KHTML, like Gecko) Chrome/118.0.0.0 Safari/537.36","WebKit","Chrome","118.0.0.0","Windows","10.0","null","es-ES,es;q=0.9,en;q=0.8","true","null","","null","","","delay_block","","","","","","0","10",""
"","","","","","html-keyboard-response","101","774549","0.0-87.0-1.0","66","1","2023-11-01 18:52:58","a725c3012b74bf33a1020a98cb69c237","186.22.17.230","Mozilla/5.0 (Windows NT 10.0; Win64; x64) AppleWebKit/537.36 (KHTML, like Gecko) Chrome/118.0.0.0 Safari/537.36","WebKit","Chrome","118.0.0.0","Windows","10.0","null","es-ES,es;q=0.9,en;q=0.8","true","null","<p id=""stimulus"" style=""font-size:100px;"">41</p>","null","","","tone_number_task_remaining_before_delay","","41","","630.5","100","0","10",""
"","","","","","html-keyboard-response","102","774923","0.0-90.0-0.0","66","1","2023-11-01 18:52:58","a725c3012b74bf33a1020a98cb69c237","186.22.17.230","Mozilla/5.0 (Windows NT 10.0; Win64; x64) AppleWebKit/537.36 (KHTML, like Gecko) Chrome/118.0.0.0 Safari/537.36","WebKit","Chrome","118.0.0.0","Windows","10.0","null","es-ES,es;q=0.9,en;q=0.8","true","372","<p id=""stimulus"" style=""font-size:100px;"">41</p>","j","","","empty_block","","41","","","","0","10",""
"","","","","","html-keyboard-response","103","777597","0.0-91.0","66","1","2023-11-01 18:52:58","a725c3012b74bf33a1020a98cb69c237","186.22.17.230","Mozilla/5.0 (Windows NT 10.0; Win64; x64) AppleWebKit/537.36 (KHTML, like Gecko) Chrome/118.0.0.0 Safari/537.36","WebKit","Chrome","118.0.0.0","Windows","10.0","null","es-ES,es;q=0.9,en;q=0.8","true","null","<div style=""font-size:100px;"">X</div>","null","","","fixation","","","","","","","",""
"","","","","","audio-keyboard-response","104","778203","0.0-92.0","66","1","2023-11-01 18:52:58","a725c3012b74bf33a1020a98cb69c237","186.22.17.230","Mozilla/5.0 (Windows NT 10.0; Win64; x64) AppleWebKit/537.36 (KHTML, like Gecko) Chrome/118.0.0.0 Safari/537.36","WebKit","Chrome","118.0.0.0","Windows","10.0","null","es-ES,es;q=0.9,en;q=0.8","true","608","tones/880hz_short.mp3","s","","","tone_number_task","1025","67","tones/880hz_short.mp3","1175","100","0","11",""
"","","","","","html-keyboard-response","105","778623","0.0-93.0-0.0","66","1","2023-11-01 18:52:58","a725c3012b74bf33a1020a98cb69c237","186.22.17.230","Mozilla/5.0 (Windows NT 10.0; Win64; x64) AppleWebKit/537.36 (KHTML, like Gecko) Chrome/118.0.0.0 Safari/537.36","WebKit","Chrome","118.0.0.0","Windows","10.0","null","es-ES,es;q=0.9,en;q=0.8","true","null","","null","","","delay_block","","","","","","0","11",""
"","","","","","html-keyboard-response","106","778775","0.0-93.0-1.0","66","1","2023-11-01 18:52:58","a725c3012b74bf33a1020a98cb69c237","186.22.17.230","Mozilla/5.0 (Windows NT 10.0; Win64; x64) AppleWebKit/537.36 (KHTML, like Gecko) Chrome/118.0.0.0 Safari/537.36","WebKit","Chrome","118.0.0.0","Windows","10.0","null","es-ES,es;q=0.9,en;q=0.8","true","null","<p id=""stimulus"" style=""font-size:100px;"">67</p>","null","","","tone_number_task_remaining_before_delay","","67","","567","100","0","11",""
"","","","","","html-keyboard-response","107","779075","0.0-96.0-0.0","66","1","2023-11-01 18:52:58","a725c3012b74bf33a1020a98cb69c237","186.22.17.230","Mozilla/5.0 (Windows NT 10.0; Win64; x64) AppleWebKit/537.36 (KHTML, like Gecko) Chrome/118.0.0.0 Safari/537.36","WebKit","Chrome","118.0.0.0","Windows","10.0","null","es-ES,es;q=0.9,en;q=0.8","true","298","<p id=""stimulus"" style=""font-size:100px;"">67</p>","k","","","empty_block","","67","","","","0","11",""
"","","","","","html-keyboard-response","108","781749","0.0-97.0","66","1","2023-11-01 18:52:58","a725c3012b74bf33a1020a98cb69c237","186.22.17.230","Mozilla/5.0 (Windows NT 10.0; Win64; x64) AppleWebKit/537.36 (KHTML, like Gecko) Chrome/118.0.0.0 Safari/537.36","WebKit","Chrome","118.0.0.0","Windows","10.0","null","es-ES,es;q=0.9,en;q=0.8","true","null","<div style=""font-size:100px;"">X</div>","null","","","fixation","","","","","","","",""
"","","","","","audio-keyboard-response","109","781902","0.0-98.0","66","1","2023-11-01 18:52:58","a725c3012b74bf33a1020a98cb69c237","186.22.17.230","Mozilla/5.0 (Windows NT 10.0; Win64; x64) AppleWebKit/537.36 (KHTML, like Gecko) Chrome/118.0.0.0 Safari/537.36","WebKit","Chrome","118.0.0.0","Windows","10.0","null","es-ES,es;q=0.9,en;q=0.8","true","null","tones/440hz_short.mp3","null","","","tone_number_task","0","50","tones/440hz_short.mp3","150","100","0","12",""
"","","","","","html-keyboard-response","110","782948","0.0-101.0-0.0","66","1","2023-11-01 18:52:58","a725c3012b74bf33a1020a98cb69c237","186.22.17.230","Mozilla/5.0 (Windows NT 10.0; Win64; x64) AppleWebKit/537.36 (KHTML, like Gecko) Chrome/118.0.0.0 Safari/537.36","WebKit","Chrome","118.0.0.0","Windows","10.0","null","es-ES,es;q=0.9,en;q=0.8","true","1044","tones/440hz_short.mp3","a","","","empty_block","","50","","","","0","12",""
"","","","","","html-keyboard-response","111","783195","0.0-101.0-1.0","66","1","2023-11-01 18:52:58","a725c3012b74bf33a1020a98cb69c237","186.22.17.230","Mozilla/5.0 (Windows NT 10.0; Win64; x64) AppleWebKit/537.36 (KHTML, like Gecko) Chrome/118.0.0.0 Safari/537.36","WebKit","Chrome","118.0.0.0","Windows","10.0","null","es-ES,es;q=0.9,en;q=0.8","true","246","tones/440hz_short.mp3","k","","","empty_block","","50","","","","0","12",""
"","","","","","html-keyboard-response","112","785869","0.0-103.0","66","1","2023-11-01 18:52:58","a725c3012b74bf33a1020a98cb69c237","186.22.17.230","Mozilla/5.0 (Windows NT 10.0; Win64; x64) AppleWebKit/537.36 (KHTML, like Gecko) Chrome/118.0.0.0 Safari/537.36","WebKit","Chrome","118.0.0.0","Windows","10.0","null","es-ES,es;q=0.9,en;q=0.8","true","null","<div style=""font-size:100px;"">X</div>","null","","","fixation","","","","","","","",""
"","","","","","audio-keyboard-response","113","786707","0.0-104.0","66","1","2023-11-01 18:52:58","a725c3012b74bf33a1020a98cb69c237","186.22.17.230","Mozilla/5.0 (Windows NT 10.0; Win64; x64) AppleWebKit/537.36 (KHTML, like Gecko) Chrome/118.0.0.0 Safari/537.36","WebKit","Chrome","118.0.0.0","Windows","10.0","null","es-ES,es;q=0.9,en;q=0.8","true","840","tones/440hz_short.mp3","a","","","tone_number_task","1025","24","tones/440hz_short.mp3","1175","100","0","13",""
"","","","","","html-keyboard-response","114","786894","0.0-105.0-0.0","66","1","2023-11-01 18:52:58","a725c3012b74bf33a1020a98cb69c237","186.22.17.230","Mozilla/5.0 (Windows NT 10.0; Win64; x64) AppleWebKit/537.36 (KHTML, like Gecko) Chrome/118.0.0.0 Safari/537.36","WebKit","Chrome","118.0.0.0","Windows","10.0","null","es-ES,es;q=0.9,en;q=0.8","true","null","","null","","","delay_block","","","","","","0","13",""
"","","","","","html-keyboard-response","115","787046","0.0-105.0-1.0","66","1","2023-11-01 18:52:58","a725c3012b74bf33a1020a98cb69c237","186.22.17.230","Mozilla/5.0 (Windows NT 10.0; Win64; x64) AppleWebKit/537.36 (KHTML, like Gecko) Chrome/118.0.0.0 Safari/537.36","WebKit","Chrome","118.0.0.0","Windows","10.0","null","es-ES,es;q=0.9,en;q=0.8","true","null","<p id=""stimulus"" style=""font-size:100px;"">24</p>","null","","","tone_number_task_remaining_before_delay","","24","","335","100","0","13",""
"","","","","","html-keyboard-response","116","787475","0.0-108.0-0.0","66","1","2023-11-01 18:52:58","a725c3012b74bf33a1020a98cb69c237","186.22.17.230","Mozilla/5.0 (Windows NT 10.0; Win64; x64) AppleWebKit/537.36 (KHTML, like Gecko) Chrome/118.0.0.0 Safari/537.36","WebKit","Chrome","118.0.0.0","Windows","10.0","null","es-ES,es;q=0.9,en;q=0.8","true","427","<p id=""stimulus"" style=""font-size:100px;"">24</p>","j","","","empty_block","","24","","","","0","13",""
"","","","","","html-keyboard-response","117","790148","0.0-109.0","66","1","2023-11-01 18:52:58","a725c3012b74bf33a1020a98cb69c237","186.22.17.230","Mozilla/5.0 (Windows NT 10.0; Win64; x64) AppleWebKit/537.36 (KHTML, like Gecko) Chrome/118.0.0.0 Safari/537.36","WebKit","Chrome","118.0.0.0","Windows","10.0","null","es-ES,es;q=0.9,en;q=0.8","true","null","<div style=""font-size:100px;"">X</div>","null","","","fixation","","","","","","","",""
"","","","","","audio-keyboard-response","118","790795","0.0-110.0","66","1","2023-11-01 18:52:58","a725c3012b74bf33a1020a98cb69c237","186.22.17.230","Mozilla/5.0 (Windows NT 10.0; Win64; x64) AppleWebKit/537.36 (KHTML, like Gecko) Chrome/118.0.0.0 Safari/537.36","WebKit","Chrome","118.0.0.0","Windows","10.0","null","es-ES,es;q=0.9,en;q=0.8","true","651","tones/440hz_short.mp3","a","","","tone_number_task","992.5","61","tones/440hz_short.mp3","1142.5","100","0","14",""
"","","","","","html-keyboard-response","119","791139","0.0-111.0-0.0","66","1","2023-11-01 18:52:58","a725c3012b74bf33a1020a98cb69c237","186.22.17.230","Mozilla/5.0 (Windows NT 10.0; Win64; x64) AppleWebKit/537.36 (KHTML, like Gecko) Chrome/118.0.0.0 Safari/537.36","WebKit","Chrome","118.0.0.0","Windows","10.0","null","es-ES,es;q=0.9,en;q=0.8","true","null","","null","","","delay_block","","","","","","0","14",""
"","","","","","html-keyboard-response","120","791293","0.0-111.0-1.0","66","1","2023-11-01 18:52:58","a725c3012b74bf33a1020a98cb69c237","186.22.17.230","Mozilla/5.0 (Windows NT 10.0; Win64; x64) AppleWebKit/537.36 (KHTML, like Gecko) Chrome/118.0.0.0 Safari/537.36","WebKit","Chrome","118.0.0.0","Windows","10.0","null","es-ES,es;q=0.9,en;q=0.8","true","null","<p id=""stimulus"" style=""font-size:100px;"">61</p>","null","","","tone_number_task_remaining_before_delay","","61","","491.5","100","0","14",""
"","","","","","html-keyboard-response","121","791571","0.0-114.0-0.0","66","1","2023-11-01 18:52:58","a725c3012b74bf33a1020a98cb69c237","186.22.17.230","Mozilla/5.0 (Windows NT 10.0; Win64; x64) AppleWebKit/537.36 (KHTML, like Gecko) Chrome/118.0.0.0 Safari/537.36","WebKit","Chrome","118.0.0.0","Windows","10.0","null","es-ES,es;q=0.9,en;q=0.8","true","277","<p id=""stimulus"" style=""font-size:100px;"">61</p>","k","","","empty_block","","61","","","","0","14",""
"","","","","","html-keyboard-response","122","794244","0.0-115.0","66","1","2023-11-01 18:52:58","a725c3012b74bf33a1020a98cb69c237","186.22.17.230","Mozilla/5.0 (Windows NT 10.0; Win64; x64) AppleWebKit/537.36 (KHTML, like Gecko) Chrome/118.0.0.0 Safari/537.36","WebKit","Chrome","118.0.0.0","Windows","10.0","null","es-ES,es;q=0.9,en;q=0.8","true","null","<div style=""font-size:100px;"">X</div>","null","","","fixation","","","","","","","",""
"","","","","","audio-keyboard-response","123","794963","0.0-116.0","66","1","2023-11-01 18:52:58","a725c3012b74bf33a1020a98cb69c237","186.22.17.230","Mozilla/5.0 (Windows NT 10.0; Win64; x64) AppleWebKit/537.36 (KHTML, like Gecko) Chrome/118.0.0.0 Safari/537.36","WebKit","Chrome","118.0.0.0","Windows","10.0","null","es-ES,es;q=0.9,en;q=0.8","true","731","tones/880hz_short.mp3","s","","","tone_number_task","992.5","50","tones/880hz_short.mp3","1142.5","100","0","15",""
"","","","","","html-keyboard-response","124","795226","0.0-117.0-0.0","66","1","2023-11-01 18:52:58","a725c3012b74bf33a1020a98cb69c237","186.22.17.230","Mozilla/5.0 (Windows NT 10.0; Win64; x64) AppleWebKit/537.36 (KHTML, like Gecko) Chrome/118.0.0.0 Safari/537.36","WebKit","Chrome","118.0.0.0","Windows","10.0","null","es-ES,es;q=0.9,en;q=0.8","true","null","","null","","","delay_block","","","","","","0","15",""
"","","","","","html-keyboard-response","125","795379","0.0-117.0-1.0","66","1","2023-11-01 18:52:58","a725c3012b74bf33a1020a98cb69c237","186.22.17.230","Mozilla/5.0 (Windows NT 10.0; Win64; x64) AppleWebKit/537.36 (KHTML, like Gecko) Chrome/118.0.0.0 Safari/537.36","WebKit","Chrome","118.0.0.0","Windows","10.0","null","es-ES,es;q=0.9,en;q=0.8","true","null","<p id=""stimulus"" style=""font-size:100px;"">50</p>","null","","","tone_number_task_remaining_before_delay","","50","","411.5","100","0","15",""
"","","","","","html-keyboard-response","126","795835","0.0-120.0-0.0","66","1","2023-11-01 18:52:58","a725c3012b74bf33a1020a98cb69c237","186.22.17.230","Mozilla/5.0 (Windows NT 10.0; Win64; x64) AppleWebKit/537.36 (KHTML, like Gecko) Chrome/118.0.0.0 Safari/537.36","WebKit","Chrome","118.0.0.0","Windows","10.0","null","es-ES,es;q=0.9,en;q=0.8","true","454","<p id=""stimulus"" style=""font-size:100px;"">50</p>","k","","","empty_block","","50","","","","0","15",""
"","","","","","html-keyboard-response","127","798509","0.0-121.0","66","1","2023-11-01 18:52:58","a725c3012b74bf33a1020a98cb69c237","186.22.17.230","Mozilla/5.0 (Windows NT 10.0; Win64; x64) AppleWebKit/537.36 (KHTML, like Gecko) Chrome/118.0.0.0 Safari/537.36","WebKit","Chrome","118.0.0.0","Windows","10.0","null","es-ES,es;q=0.9,en;q=0.8","true","null","<div style=""font-size:100px;"">X</div>","null","","","fixation","","","","","","","",""
"","","","","","audio-keyboard-response","128","798764","0.0-122.0","66","1","2023-11-01 18:52:58","a725c3012b74bf33a1020a98cb69c237","186.22.17.230","Mozilla/5.0 (Windows NT 10.0; Win64; x64) AppleWebKit/537.36 (KHTML, like Gecko) Chrome/118.0.0.0 Safari/537.36","WebKit","Chrome","118.0.0.0","Windows","10.0","null","es-ES,es;q=0.9,en;q=0.8","true","null","tones/440hz_short.mp3","null","","","tone_number_task","102.5","30","tones/440hz_short.mp3","252.5","100","0","16",""
"","","","","","html-keyboard-response","129","799364","0.0-125.0-0.0","66","1","2023-11-01 18:52:58","a725c3012b74bf33a1020a98cb69c237","186.22.17.230","Mozilla/5.0 (Windows NT 10.0; Win64; x64) AppleWebKit/537.36 (KHTML, like Gecko) Chrome/118.0.0.0 Safari/537.36","WebKit","Chrome","118.0.0.0","Windows","10.0","null","es-ES,es;q=0.9,en;q=0.8","true","598","tones/440hz_short.mp3","a","","","empty_block","","30","","","","0","16",""
"","","","","","html-keyboard-response","130","799787","0.0-125.0-1.0","66","1","2023-11-01 18:52:58","a725c3012b74bf33a1020a98cb69c237","186.22.17.230","Mozilla/5.0 (Windows NT 10.0; Win64; x64) AppleWebKit/537.36 (KHTML, like Gecko) Chrome/118.0.0.0 Safari/537.36","WebKit","Chrome","118.0.0.0","Windows","10.0","null","es-ES,es;q=0.9,en;q=0.8","true","422","tones/440hz_short.mp3","j","","","empty_block","","30","","","","0","16",""
"","","","","","html-keyboard-response","131","802462","0.0-127.0","66","1","2023-11-01 18:52:58","a725c3012b74bf33a1020a98cb69c237","186.22.17.230","Mozilla/5.0 (Windows NT 10.0; Win64; x64) AppleWebKit/537.36 (KHTML, like Gecko) Chrome/118.0.0.0 Safari/537.36","WebKit","Chrome","118.0.0.0","Windows","10.0","null","es-ES,es;q=0.9,en;q=0.8","true","null","<div style=""font-size:100px;"">X</div>","null","","","fixation","","","","","","","",""
"","","","","","audio-keyboard-response","132","802716","0.0-128.0","66","1","2023-11-01 18:52:58","a725c3012b74bf33a1020a98cb69c237","186.22.17.230","Mozilla/5.0 (Windows NT 10.0; Win64; x64) AppleWebKit/537.36 (KHTML, like Gecko) Chrome/118.0.0.0 Safari/537.36","WebKit","Chrome","118.0.0.0","Windows","10.0","null","es-ES,es;q=0.9,en;q=0.8","true","null","tones/440hz_short.mp3","null","","","tone_number_task","102.5","33","tones/440hz_short.mp3","252.5","100","0","17",""
"","","","","","html-keyboard-response","133","803123","0.0-131.0-0.0","66","1","2023-11-01 18:52:58","a725c3012b74bf33a1020a98cb69c237","186.22.17.230","Mozilla/5.0 (Windows NT 10.0; Win64; x64) AppleWebKit/537.36 (KHTML, like Gecko) Chrome/118.0.0.0 Safari/537.36","WebKit","Chrome","118.0.0.0","Windows","10.0","null","es-ES,es;q=0.9,en;q=0.8","true","406","tones/440hz_short.mp3","a","","","empty_block","","33","","","","0","17",""
"","","","","","html-keyboard-response","134","803443","0.0-131.0-1.0","66","1","2023-11-01 18:52:58","a725c3012b74bf33a1020a98cb69c237","186.22.17.230","Mozilla/5.0 (Windows NT 10.0; Win64; x64) AppleWebKit/537.36 (KHTML, like Gecko) Chrome/118.0.0.0 Safari/537.36","WebKit","Chrome","118.0.0.0","Windows","10.0","null","es-ES,es;q=0.9,en;q=0.8","true","318","tones/440hz_short.mp3","j","","","empty_block","","33","","","","0","17",""
"","","","","","html-keyboard-response","135","806117","0.0-133.0","66","1","2023-11-01 18:52:58","a725c3012b74bf33a1020a98cb69c237","186.22.17.230","Mozilla/5.0 (Windows NT 10.0; Win64; x64) AppleWebKit/537.36 (KHTML, like Gecko) Chrome/118.0.0.0 Safari/537.36","WebKit","Chrome","118.0.0.0","Windows","10.0","null","es-ES,es;q=0.9,en;q=0.8","true","null","<div style=""font-size:100px;"">X</div>","null","","","fixation","","","","","","","",""
"","","","","","audio-keyboard-response","136","806269","0.0-134.0","66","1","2023-11-01 18:52:58","a725c3012b74bf33a1020a98cb69c237","186.22.17.230","Mozilla/5.0 (Windows NT 10.0; Win64; x64) AppleWebKit/537.36 (KHTML, like Gecko) Chrome/118.0.0.0 Safari/537.36","WebKit","Chrome","118.0.0.0","Windows","10.0","null","es-ES,es;q=0.9,en;q=0.8","true","null","tones/880hz_short.mp3","null","","","tone_number_task","0","61","tones/880hz_short.mp3","150","100","0","18",""
"","","","","","html-keyboard-response","137","806843","0.0-137.0-0.0","66","1","2023-11-01 18:52:58","a725c3012b74bf33a1020a98cb69c237","186.22.17.230","Mozilla/5.0 (Windows NT 10.0; Win64; x64) AppleWebKit/537.36 (KHTML, like Gecko) Chrome/118.0.0.0 Safari/537.36","WebKit","Chrome","118.0.0.0","Windows","10.0","null","es-ES,es;q=0.9,en;q=0.8","true","572","tones/880hz_short.mp3","a","","","empty_block","","61","","","","0","18",""
"","","","","","html-keyboard-response","138","807084","0.0-137.0-1.0","66","1","2023-11-01 18:52:58","a725c3012b74bf33a1020a98cb69c237","186.22.17.230","Mozilla/5.0 (Windows NT 10.0; Win64; x64) AppleWebKit/537.36 (KHTML, like Gecko) Chrome/118.0.0.0 Safari/537.36","WebKit","Chrome","118.0.0.0","Windows","10.0","null","es-ES,es;q=0.9,en;q=0.8","true","239","tones/880hz_short.mp3","k","","","empty_block","","61","","","","0","18",""
"","","","","","html-keyboard-response","139","809757","0.0-139.0","66","1","2023-11-01 18:52:58","a725c3012b74bf33a1020a98cb69c237","186.22.17.230","Mozilla/5.0 (Windows NT 10.0; Win64; x64) AppleWebKit/537.36 (KHTML, like Gecko) Chrome/118.0.0.0 Safari/537.36","WebKit","Chrome","118.0.0.0","Windows","10.0","null","es-ES,es;q=0.9,en;q=0.8","true","null","<div style=""font-size:100px;"">X</div>","null","","","fixation","","","","","","","",""
"","","","","","audio-keyboard-response","140","810795","0.0-140.0","66","1","2023-11-01 18:52:58","a725c3012b74bf33a1020a98cb69c237","186.22.17.230","Mozilla/5.0 (Windows NT 10.0; Win64; x64) AppleWebKit/537.36 (KHTML, like Gecko) Chrome/118.0.0.0 Safari/537.36","WebKit","Chrome","118.0.0.0","Windows","10.0","null","es-ES,es;q=0.9,en;q=0.8","true","1040","tones/440hz_short.mp3","a","","","tone_number_task","1025","42","tones/440hz_short.mp3","1175","100","0","19",""
"","","","","","html-keyboard-response","141","810933","0.0-142.0-0.0","66","1","2023-11-01 18:52:58","a725c3012b74bf33a1020a98cb69c237","186.22.17.230","Mozilla/5.0 (Windows NT 10.0; Win64; x64) AppleWebKit/537.36 (KHTML, like Gecko) Chrome/118.0.0.0 Safari/537.36","WebKit","Chrome","118.0.0.0","Windows","10.0","null","es-ES,es;q=0.9,en;q=0.8","true","null","<p id=""stimulus"" style=""font-size:100px;"">42</p>","null","","","tone_number_task_remaining_after_delay","","42","","","100","0","19",""
"","","","","","html-keyboard-response","142","811467","0.0-144.0-0.0","66","1","2023-11-01 18:52:58","a725c3012b74bf33a1020a98cb69c237","186.22.17.230","Mozilla/5.0 (Windows NT 10.0; Win64; x64) AppleWebKit/537.36 (KHTML, like Gecko) Chrome/118.0.0.0 Safari/537.36","WebKit","Chrome","118.0.0.0","Windows","10.0","null","es-ES,es;q=0.9,en;q=0.8","true","532","<p id=""stimulus"" style=""font-size:100px;"">42</p>","j","","","empty_block","","42","","","","0","19",""
"","","","","","html-keyboard-response","143","814141","0.0-145.0","66","1","2023-11-01 18:52:58","a725c3012b74bf33a1020a98cb69c237","186.22.17.230","Mozilla/5.0 (Windows NT 10.0; Win64; x64) AppleWebKit/537.36 (KHTML, like Gecko) Chrome/118.0.0.0 Safari/537.36","WebKit","Chrome","118.0.0.0","Windows","10.0","null","es-ES,es;q=0.9,en;q=0.8","true","null","<div style=""font-size:100px;"">X</div>","null","","","fixation","","","","","","","",""
"","","","","","audio-keyboard-response","144","814963","0.0-146.0","66","1","2023-11-01 18:52:58","a725c3012b74bf33a1020a98cb69c237","186.22.17.230","Mozilla/5.0 (Windows NT 10.0; Win64; x64) AppleWebKit/537.36 (KHTML, like Gecko) Chrome/118.0.0.0 Safari/537.36","WebKit","Chrome","118.0.0.0","Windows","10.0","null","es-ES,es;q=0.9,en;q=0.8","true","819","tones/440hz_short.mp3","a","","","tone_number_task","992.5","67","tones/440hz_short.mp3","1142.5","100","0","20",""
"","","","","","html-keyboard-response","145","815139","0.0-147.0-0.0","66","1","2023-11-01 18:52:58","a725c3012b74bf33a1020a98cb69c237","186.22.17.230","Mozilla/5.0 (Windows NT 10.0; Win64; x64) AppleWebKit/537.36 (KHTML, like Gecko) Chrome/118.0.0.0 Safari/537.36","WebKit","Chrome","118.0.0.0","Windows","10.0","null","es-ES,es;q=0.9,en;q=0.8","true","null","","null","","","delay_block","","","","","","0","20",""
"","","","","","html-keyboard-response","146","815292","0.0-147.0-1.0","66","1","2023-11-01 18:52:58","a725c3012b74bf33a1020a98cb69c237","186.22.17.230","Mozilla/5.0 (Windows NT 10.0; Win64; x64) AppleWebKit/537.36 (KHTML, like Gecko) Chrome/118.0.0.0 Safari/537.36","WebKit","Chrome","118.0.0.0","Windows","10.0","null","es-ES,es;q=0.9,en;q=0.8","true","null","<p id=""stimulus"" style=""font-size:100px;"">67</p>","null","","","tone_number_task_remaining_before_delay","","67","","323.5","100","0","20",""
"","","","","","html-keyboard-response","147","815539","0.0-150.0-0.0","66","1","2023-11-01 18:52:58","a725c3012b74bf33a1020a98cb69c237","186.22.17.230","Mozilla/5.0 (Windows NT 10.0; Win64; x64) AppleWebKit/537.36 (KHTML, like Gecko) Chrome/118.0.0.0 Safari/537.36","WebKit","Chrome","118.0.0.0","Windows","10.0","null","es-ES,es;q=0.9,en;q=0.8","true","245","<p id=""stimulus"" style=""font-size:100px;"">67</p>","k","","","empty_block","","67","","","","0","20",""
"","","","","","html-keyboard-response","148","818213","0.0-151.0","66","1","2023-11-01 18:52:58","a725c3012b74bf33a1020a98cb69c237","186.22.17.230","Mozilla/5.0 (Windows NT 10.0; Win64; x64) AppleWebKit/537.36 (KHTML, like Gecko) Chrome/118.0.0.0 Safari/537.36","WebKit","Chrome","118.0.0.0","Windows","10.0","null","es-ES,es;q=0.9,en;q=0.8","true","null","<div style=""font-size:100px;"">X</div>","null","","","fixation","","","","","","","",""
"","","","","","audio-keyboard-response","149","818867","0.0-152.0","66","1","2023-11-01 18:52:58","a725c3012b74bf33a1020a98cb69c237","186.22.17.230","Mozilla/5.0 (Windows NT 10.0; Win64; x64) AppleWebKit/537.36 (KHTML, like Gecko) Chrome/118.0.0.0 Safari/537.36","WebKit","Chrome","118.0.0.0","Windows","10.0","null","es-ES,es;q=0.9,en;q=0.8","true","651","tones/440hz_short.mp3","a","","","tone_number_task","992.5","61","tones/440hz_short.mp3","1142.5","100","0","21",""
"","","","","","html-keyboard-response","150","819212","0.0-153.0-0.0","66","1","2023-11-01 18:52:58","a725c3012b74bf33a1020a98cb69c237","186.22.17.230","Mozilla/5.0 (Windows NT 10.0; Win64; x64) AppleWebKit/537.36 (KHTML, like Gecko) Chrome/118.0.0.0 Safari/537.36","WebKit","Chrome","118.0.0.0","Windows","10.0","null","es-ES,es;q=0.9,en;q=0.8","true","null","","null","","","delay_block","","","","","","0","21",""
"","","","","","html-keyboard-response","151","819364","0.0-153.0-1.0","66","1","2023-11-01 18:52:58","a725c3012b74bf33a1020a98cb69c237","186.22.17.230","Mozilla/5.0 (Windows NT 10.0; Win64; x64) AppleWebKit/537.36 (KHTML, like Gecko) Chrome/118.0.0.0 Safari/537.36","WebKit","Chrome","118.0.0.0","Windows","10.0","null","es-ES,es;q=0.9,en;q=0.8","true","null","<p id=""stimulus"" style=""font-size:100px;"">61</p>","null","","","tone_number_task_remaining_before_delay","","61","","491.5","100","0","21",""
"","","","","","html-keyboard-response","152","820043","0.0-156.0-0.0","66","1","2023-11-01 18:52:58","a725c3012b74bf33a1020a98cb69c237","186.22.17.230","Mozilla/5.0 (Windows NT 10.0; Win64; x64) AppleWebKit/537.36 (KHTML, like Gecko) Chrome/118.0.0.0 Safari/537.36","WebKit","Chrome","118.0.0.0","Windows","10.0","null","es-ES,es;q=0.9,en;q=0.8","true","677","<p id=""stimulus"" style=""font-size:100px;"">61</p>","k","","","empty_block","","61","","","","0","21",""
"","","","","","html-keyboard-response","153","822716","0.0-157.0","66","1","2023-11-01 18:52:58","a725c3012b74bf33a1020a98cb69c237","186.22.17.230","Mozilla/5.0 (Windows NT 10.0; Win64; x64) AppleWebKit/537.36 (KHTML, like Gecko) Chrome/118.0.0.0 Safari/537.36","WebKit","Chrome","118.0.0.0","Windows","10.0","null","es-ES,es;q=0.9,en;q=0.8","true","null","<div style=""font-size:100px;"">X</div>","null","","","fixation","","","","","","","",""
"","","","","","audio-keyboard-response","154","822971","0.0-158.0","66","1","2023-11-01 18:52:58","a725c3012b74bf33a1020a98cb69c237","186.22.17.230","Mozilla/5.0 (Windows NT 10.0; Win64; x64) AppleWebKit/537.36 (KHTML, like Gecko) Chrome/118.0.0.0 Safari/537.36","WebKit","Chrome","118.0.0.0","Windows","10.0","null","es-ES,es;q=0.9,en;q=0.8","true","null","tones/440hz_short.mp3","null","","","tone_number_task","102.5","40","tones/440hz_short.mp3","252.5","100","0","22",""
"","","","","","html-keyboard-response","155","823020","0.0-161.0-0.0","66","1","2023-11-01 18:52:58","a725c3012b74bf33a1020a98cb69c237","186.22.17.230","Mozilla/5.0 (Windows NT 10.0; Win64; x64) AppleWebKit/537.36 (KHTML, like Gecko) Chrome/118.0.0.0 Safari/537.36","WebKit","Chrome","118.0.0.0","Windows","10.0","null","es-ES,es;q=0.9,en;q=0.8","true","47","tones/440hz_short.mp3","a","","","empty_block","","40","","","","0","22",""
"","","","","","html-keyboard-response","156","823451","0.0-161.0-1.0","66","1","2023-11-01 18:52:58","a725c3012b74bf33a1020a98cb69c237","186.22.17.230","Mozilla/5.0 (Windows NT 10.0; Win64; x64) AppleWebKit/537.36 (KHTML, like Gecko) Chrome/118.0.0.0 Safari/537.36","WebKit","Chrome","118.0.0.0","Windows","10.0","null","es-ES,es;q=0.9,en;q=0.8","true","430","tones/440hz_short.mp3","j","","","empty_block","","40","","","","0","22",""
"","","","","","html-keyboard-response","157","826126","0.0-163.0","66","1","2023-11-01 18:52:58","a725c3012b74bf33a1020a98cb69c237","186.22.17.230","Mozilla/5.0 (Windows NT 10.0; Win64; x64) AppleWebKit/537.36 (KHTML, like Gecko) Chrome/118.0.0.0 Safari/537.36","WebKit","Chrome","118.0.0.0","Windows","10.0","null","es-ES,es;q=0.9,en;q=0.8","true","null","<div style=""font-size:100px;"">X</div>","null","","","fixation","","","","","","","",""
"","","","","","audio-keyboard-response","158","826579","0.0-164.0","66","1","2023-11-01 18:52:58","a725c3012b74bf33a1020a98cb69c237","186.22.17.230","Mozilla/5.0 (Windows NT 10.0; Win64; x64) AppleWebKit/537.36 (KHTML, like Gecko) Chrome/118.0.0.0 Safari/537.36","WebKit","Chrome","118.0.0.0","Windows","10.0","null","es-ES,es;q=0.9,en;q=0.8","true","461","tones/880hz_short.mp3","s","","","tone_number_task","1025","60","tones/880hz_short.mp3","1175","100","0","23",""
"","","","","","html-keyboard-response","159","827146","0.0-165.0-0.0","66","1","2023-11-01 18:52:58","a725c3012b74bf33a1020a98cb69c237","186.22.17.230","Mozilla/5.0 (Windows NT 10.0; Win64; x64) AppleWebKit/537.36 (KHTML, like Gecko) Chrome/118.0.0.0 Safari/537.36","WebKit","Chrome","118.0.0.0","Windows","10.0","null","es-ES,es;q=0.9,en;q=0.8","true","null","","null","","","delay_block","","","","","","0","23",""
"","","","","","html-keyboard-response","160","827299","0.0-165.0-1.0","66","1","2023-11-01 18:52:58","a725c3012b74bf33a1020a98cb69c237","186.22.17.230","Mozilla/5.0 (Windows NT 10.0; Win64; x64) AppleWebKit/537.36 (KHTML, like Gecko) Chrome/118.0.0.0 Safari/537.36","WebKit","Chrome","118.0.0.0","Windows","10.0","null","es-ES,es;q=0.9,en;q=0.8","true","null","<p id=""stimulus"" style=""font-size:100px;"">60</p>","null","","","tone_number_task_remaining_before_delay","","60","","714","100","0","23",""
"","","","","","html-keyboard-response","161","827619","0.0-168.0-0.0","66","1","2023-11-01 18:52:58","a725c3012b74bf33a1020a98cb69c237","186.22.17.230","Mozilla/5.0 (Windows NT 10.0; Win64; x64) AppleWebKit/537.36 (KHTML, like Gecko) Chrome/118.0.0.0 Safari/537.36","WebKit","Chrome","118.0.0.0","Windows","10.0","null","es-ES,es;q=0.9,en;q=0.8","true","318","<p id=""stimulus"" style=""font-size:100px;"">60</p>","k","","","empty_block","","60","","","","0","23",""
"","","","","","html-keyboard-response","162","830294","0.0-169.0","66","1","2023-11-01 18:52:58","a725c3012b74bf33a1020a98cb69c237","186.22.17.230","Mozilla/5.0 (Windows NT 10.0; Win64; x64) AppleWebKit/537.36 (KHTML, like Gecko) Chrome/118.0.0.0 Safari/537.36","WebKit","Chrome","118.0.0.0","Windows","10.0","null","es-ES,es;q=0.9,en;q=0.8","true","null","<div style=""font-size:100px;"">X</div>","null","","","fixation","","","","","","","",""
"","","","","","audio-keyboard-response","163","830447","0.0-170.0","66","1","2023-11-01 18:52:58","a725c3012b74bf33a1020a98cb69c237","186.22.17.230","Mozilla/5.0 (Windows NT 10.0; Win64; x64) AppleWebKit/537.36 (KHTML, like Gecko) Chrome/118.0.0.0 Safari/537.36","WebKit","Chrome","118.0.0.0","Windows","10.0","null","es-ES,es;q=0.9,en;q=0.8","true","null","tones/440hz_short.mp3","null","","","tone_number_task","0","22","tones/440hz_short.mp3","150","100","0","24",""
"","","","","","html-keyboard-response","164","830651","0.0-173.0-0.0","66","1","2023-11-01 18:52:58","a725c3012b74bf33a1020a98cb69c237","186.22.17.230","Mozilla/5.0 (Windows NT 10.0; Win64; x64) AppleWebKit/537.36 (KHTML, like Gecko) Chrome/118.0.0.0 Safari/537.36","WebKit","Chrome","118.0.0.0","Windows","10.0","null","es-ES,es;q=0.9,en;q=0.8","true","202","tones/440hz_short.mp3","a","","","empty_block","","22","","","","0","24",""
"","","","","","html-keyboard-response","165","831755","0.0-173.0-1.0","66","1","2023-11-01 18:52:58","a725c3012b74bf33a1020a98cb69c237","186.22.17.230","Mozilla/5.0 (Windows NT 10.0; Win64; x64) AppleWebKit/537.36 (KHTML, like Gecko) Chrome/118.0.0.0 Safari/537.36","WebKit","Chrome","118.0.0.0","Windows","10.0","null","es-ES,es;q=0.9,en;q=0.8","true","1102","tones/440hz_short.mp3","j","","","empty_block","","22","","","","0","24",""
"","","","","","html-keyboard-response","166","834431","0.0-175.0","66","1","2023-11-01 18:52:58","a725c3012b74bf33a1020a98cb69c237","186.22.17.230","Mozilla/5.0 (Windows NT 10.0; Win64; x64) AppleWebKit/537.36 (KHTML, like Gecko) Chrome/118.0.0.0 Safari/537.36","WebKit","Chrome","118.0.0.0","Windows","10.0","null","es-ES,es;q=0.9,en;q=0.8","true","null","<div style=""font-size:100px;"">X</div>","null","","","fixation","","","","","","","",""
"","","","","","audio-keyboard-response","167","835268","0.0-176.0","66","1","2023-11-01 18:52:58","a725c3012b74bf33a1020a98cb69c237","186.22.17.230","Mozilla/5.0 (Windows NT 10.0; Win64; x64) AppleWebKit/537.36 (KHTML, like Gecko) Chrome/118.0.0.0 Safari/537.36","WebKit","Chrome","118.0.0.0","Windows","10.0","null","es-ES,es;q=0.9,en;q=0.8","true","829","tones/880hz_short.mp3","s","","","tone_number_task","1025","38","tones/880hz_short.mp3","1175","100","0","25",""
"","","","","","html-keyboard-response","168","835466","0.0-177.0-0.0","66","1","2023-11-01 18:52:58","a725c3012b74bf33a1020a98cb69c237","186.22.17.230","Mozilla/5.0 (Windows NT 10.0; Win64; x64) AppleWebKit/537.36 (KHTML, like Gecko) Chrome/118.0.0.0 Safari/537.36","WebKit","Chrome","118.0.0.0","Windows","10.0","null","es-ES,es;q=0.9,en;q=0.8","true","null","","null","","","delay_block","","","","","","0","25",""
"","","","","","html-keyboard-response","169","835619","0.0-177.0-1.0","66","1","2023-11-01 18:52:58","a725c3012b74bf33a1020a98cb69c237","186.22.17.230","Mozilla/5.0 (Windows NT 10.0; Win64; x64) AppleWebKit/537.36 (KHTML, like Gecko) Chrome/118.0.0.0 Safari/537.36","WebKit","Chrome","118.0.0.0","Windows","10.0","null","es-ES,es;q=0.9,en;q=0.8","true","null","<p id=""stimulus"" style=""font-size:100px;"">38</p>","null","","","tone_number_task_remaining_before_delay","","38","","346","100","0","25",""
"","","","","","html-keyboard-response","170","835939","0.0-180.0-0.0","66","1","2023-11-01 18:52:58","a725c3012b74bf33a1020a98cb69c237","186.22.17.230","Mozilla/5.0 (Windows NT 10.0; Win64; x64) AppleWebKit/537.36 (KHTML, like Gecko) Chrome/118.0.0.0 Safari/537.36","WebKit","Chrome","118.0.0.0","Windows","10.0","null","es-ES,es;q=0.9,en;q=0.8","true","318","<p id=""stimulus"" style=""font-size:100px;"">38</p>","k","","","empty_block","","38","","","","0","25",""
"","","","","","html-keyboard-response","171","838613","0.0-181.0","66","1","2023-11-01 18:52:58","a725c3012b74bf33a1020a98cb69c237","186.22.17.230","Mozilla/5.0 (Windows NT 10.0; Win64; x64) AppleWebKit/537.36 (KHTML, like Gecko) Chrome/118.0.0.0 Safari/537.36","WebKit","Chrome","118.0.0.0","Windows","10.0","null","es-ES,es;q=0.9,en;q=0.8","true","null","<div style=""font-size:100px;"">X</div>","null","","","fixation","","","","","","","",""
"","","","","","audio-keyboard-response","172","838868","0.0-182.0","66","1","2023-11-01 18:52:58","a725c3012b74bf33a1020a98cb69c237","186.22.17.230","Mozilla/5.0 (Windows NT 10.0; Win64; x64) AppleWebKit/537.36 (KHTML, like Gecko) Chrome/118.0.0.0 Safari/537.36","WebKit","Chrome","118.0.0.0","Windows","10.0","null","es-ES,es;q=0.9,en;q=0.8","true","null","tones/440hz_short.mp3","null","","","tone_number_task","102.5","43","tones/440hz_short.mp3","252.5","100","0","26",""
"","","","","","html-keyboard-response","173","839436","0.0-185.0-0.0","66","1","2023-11-01 18:52:58","a725c3012b74bf33a1020a98cb69c237","186.22.17.230","Mozilla/5.0 (Windows NT 10.0; Win64; x64) AppleWebKit/537.36 (KHTML, like Gecko) Chrome/118.0.0.0 Safari/537.36","WebKit","Chrome","118.0.0.0","Windows","10.0","null","es-ES,es;q=0.9,en;q=0.8","true","566","tones/440hz_short.mp3","a","","","empty_block","","43","","","","0","26",""
"","","","","","html-keyboard-response","174","839659","0.0-185.0-1.0","66","1","2023-11-01 18:52:58","a725c3012b74bf33a1020a98cb69c237","186.22.17.230","Mozilla/5.0 (Windows NT 10.0; Win64; x64) AppleWebKit/537.36 (KHTML, like Gecko) Chrome/118.0.0.0 Safari/537.36","WebKit","Chrome","118.0.0.0","Windows","10.0","null","es-ES,es;q=0.9,en;q=0.8","true","222","tones/440hz_short.mp3","j","","","empty_block","","43","","","","0","26",""
"","","","","","html-keyboard-response","175","842334","0.0-187.0","66","1","2023-11-01 18:52:58","a725c3012b74bf33a1020a98cb69c237","186.22.17.230","Mozilla/5.0 (Windows NT 10.0; Win64; x64) AppleWebKit/537.36 (KHTML, like Gecko) Chrome/118.0.0.0 Safari/537.36","WebKit","Chrome","118.0.0.0","Windows","10.0","null","es-ES,es;q=0.9,en;q=0.8","true","null","<div style=""font-size:100px;"">X</div>","null","","","fixation","","","","","","","",""
"","","","","","audio-keyboard-response","176","842811","0.0-188.0","66","1","2023-11-01 18:52:58","a725c3012b74bf33a1020a98cb69c237","186.22.17.230","Mozilla/5.0 (Windows NT 10.0; Win64; x64) AppleWebKit/537.36 (KHTML, like Gecko) Chrome/118.0.0.0 Safari/537.36","WebKit","Chrome","118.0.0.0","Windows","10.0","null","es-ES,es;q=0.9,en;q=0.8","true","480","tones/440hz_short.mp3","a","","","tone_number_task","992.5","50","tones/440hz_short.mp3","1142.5","100","0","27",""
"","","","","","html-keyboard-response","177","843326","0.0-189.0-0.0","66","1","2023-11-01 18:52:58","a725c3012b74bf33a1020a98cb69c237","186.22.17.230","Mozilla/5.0 (Windows NT 10.0; Win64; x64) AppleWebKit/537.36 (KHTML, like Gecko) Chrome/118.0.0.0 Safari/537.36","WebKit","Chrome","118.0.0.0","Windows","10.0","null","es-ES,es;q=0.9,en;q=0.8","true","null","","null","","","delay_block","","","","","","0","27",""
"","","","","","html-keyboard-response","178","843479","0.0-189.0-1.0","66","1","2023-11-01 18:52:58","a725c3012b74bf33a1020a98cb69c237","186.22.17.230","Mozilla/5.0 (Windows NT 10.0; Win64; x64) AppleWebKit/537.36 (KHTML, like Gecko) Chrome/118.0.0.0 Safari/537.36","WebKit","Chrome","118.0.0.0","Windows","10.0","null","es-ES,es;q=0.9,en;q=0.8","true","null","<p id=""stimulus"" style=""font-size:100px;"">50</p>","null","","","tone_number_task_remaining_before_delay","","50","","662.5","100","0","27",""
"","","","","","html-keyboard-response","179","843812","0.0-192.0-0.0","66","1","2023-11-01 18:52:58","a725c3012b74bf33a1020a98cb69c237","186.22.17.230","Mozilla/5.0 (Windows NT 10.0; Win64; x64) AppleWebKit/537.36 (KHTML, like Gecko) Chrome/118.0.0.0 Safari/537.36","WebKit","Chrome","118.0.0.0","Windows","10.0","null","es-ES,es;q=0.9,en;q=0.8","true","330","<p id=""stimulus"" style=""font-size:100px;"">50</p>","k","","","empty_block","","50","","","","0","27",""
"","","","","","html-keyboard-response","180","846485","0.0-193.0","66","1","2023-11-01 18:52:58","a725c3012b74bf33a1020a98cb69c237","186.22.17.230","Mozilla/5.0 (Windows NT 10.0; Win64; x64) AppleWebKit/537.36 (KHTML, like Gecko) Chrome/118.0.0.0 Safari/537.36","WebKit","Chrome","118.0.0.0","Windows","10.0","null","es-ES,es;q=0.9,en;q=0.8","true","null","<div style=""font-size:100px;"">X</div>","null","","","fixation","","","","","","","",""
"","","","","","audio-keyboard-response","181","846741","0.0-194.0","66","1","2023-11-01 18:52:58","a725c3012b74bf33a1020a98cb69c237","186.22.17.230","Mozilla/5.0 (Windows NT 10.0; Win64; x64) AppleWebKit/537.36 (KHTML, like Gecko) Chrome/118.0.0.0 Safari/537.36","WebKit","Chrome","118.0.0.0","Windows","10.0","null","es-ES,es;q=0.9,en;q=0.8","true","null","tones/440hz_short.mp3","null","","","tone_number_task","102.5","58","tones/440hz_short.mp3","252.5","100","0","28",""
"","","","","","html-keyboard-response","182","847180","0.0-197.0-0.0","66","1","2023-11-01 18:52:58","a725c3012b74bf33a1020a98cb69c237","186.22.17.230","Mozilla/5.0 (Windows NT 10.0; Win64; x64) AppleWebKit/537.36 (KHTML, like Gecko) Chrome/118.0.0.0 Safari/537.36","WebKit","Chrome","118.0.0.0","Windows","10.0","null","es-ES,es;q=0.9,en;q=0.8","true","435","tones/440hz_short.mp3","a","","","empty_block","","58","","","","0","28",""
"","","","","","html-keyboard-response","183","847371","0.0-197.0-1.0","66","1","2023-11-01 18:52:58","a725c3012b74bf33a1020a98cb69c237","186.22.17.230","Mozilla/5.0 (Windows NT 10.0; Win64; x64) AppleWebKit/537.36 (KHTML, like Gecko) Chrome/118.0.0.0 Safari/537.36","WebKit","Chrome","118.0.0.0","Windows","10.0","null","es-ES,es;q=0.9,en;q=0.8","true","189","tones/440hz_short.mp3","k","","","empty_block","","58","","","","0","28",""
"","","","","","html-keyboard-response","184","850045","0.0-199.0","66","1","2023-11-01 18:52:58","a725c3012b74bf33a1020a98cb69c237","186.22.17.230","Mozilla/5.0 (Windows NT 10.0; Win64; x64) AppleWebKit/537.36 (KHTML, like Gecko) Chrome/118.0.0.0 Safari/537.36","WebKit","Chrome","118.0.0.0","Windows","10.0","null","es-ES,es;q=0.9,en;q=0.8","true","null","<div style=""font-size:100px;"">X</div>","null","","","fixation","","","","","","","",""
"","","","","","audio-keyboard-response","185","850198","0.0-200.0","66","1","2023-11-01 18:52:58","a725c3012b74bf33a1020a98cb69c237","186.22.17.230","Mozilla/5.0 (Windows NT 10.0; Win64; x64) AppleWebKit/537.36 (KHTML, like Gecko) Chrome/118.0.0.0 Safari/537.36","WebKit","Chrome","118.0.0.0","Windows","10.0","null","es-ES,es;q=0.9,en;q=0.8","true","null","tones/880hz_short.mp3","null","","","tone_number_task","0","22","tones/880hz_short.mp3","150","100","0","29",""
"","","","","","html-keyboard-response","186","850907","0.0-203.0-0.0","66","1","2023-11-01 18:52:58","a725c3012b74bf33a1020a98cb69c237","186.22.17.230","Mozilla/5.0 (Windows NT 10.0; Win64; x64) AppleWebKit/537.36 (KHTML, like Gecko) Chrome/118.0.0.0 Safari/537.36","WebKit","Chrome","118.0.0.0","Windows","10.0","null","es-ES,es;q=0.9,en;q=0.8","true","707","tones/880hz_short.mp3","a","","","empty_block","","22","","","","0","29",""
"","","","","","html-keyboard-response","187","851572","0.0-203.0-1.0","66","1","2023-11-01 18:52:58","a725c3012b74bf33a1020a98cb69c237","186.22.17.230","Mozilla/5.0 (Windows NT 10.0; Win64; x64) AppleWebKit/537.36 (KHTML, like Gecko) Chrome/118.0.0.0 Safari/537.36","WebKit","Chrome","118.0.0.0","Windows","10.0","null","es-ES,es;q=0.9,en;q=0.8","true","662","tones/880hz_short.mp3","k","","","empty_block","","22","","","","0","29",""
"","","","","","html-keyboard-response","188","854246","0.0-205.0","66","1","2023-11-01 18:52:58","a725c3012b74bf33a1020a98cb69c237","186.22.17.230","Mozilla/5.0 (Windows NT 10.0; Win64; x64) AppleWebKit/537.36 (KHTML, like Gecko) Chrome/118.0.0.0 Safari/537.36","WebKit","Chrome","118.0.0.0","Windows","10.0","null","es-ES,es;q=0.9,en;q=0.8","true","null","<div style=""font-size:100px;"">X</div>","null","","","fixation","","","","","","","",""
"","","","","","audio-keyboard-response","189","855179","0.0-206.0","66","1","2023-11-01 18:52:58","a725c3012b74bf33a1020a98cb69c237","186.22.17.230","Mozilla/5.0 (Windows NT 10.0; Win64; x64) AppleWebKit/537.36 (KHTML, like Gecko) Chrome/118.0.0.0 Safari/537.36","WebKit","Chrome","118.0.0.0","Windows","10.0","null","es-ES,es;q=0.9,en;q=0.8","true","941","tones/440hz_short.mp3","a","","","tone_number_task","992.5","42","tones/440hz_short.mp3","1142.5","100","0","30",""
"","","","","","html-keyboard-response","190","855234","0.0-207.0-0.0","66","1","2023-11-01 18:52:58","a725c3012b74bf33a1020a98cb69c237","186.22.17.230","Mozilla/5.0 (Windows NT 10.0; Win64; x64) AppleWebKit/537.36 (KHTML, like Gecko) Chrome/118.0.0.0 Safari/537.36","WebKit","Chrome","118.0.0.0","Windows","10.0","null","es-ES,es;q=0.9,en;q=0.8","true","null","","null","","","delay_block","","","","","","0","30",""
"","","","","","html-keyboard-response","191","855386","0.0-207.0-1.0","66","1","2023-11-01 18:52:58","a725c3012b74bf33a1020a98cb69c237","186.22.17.230","Mozilla/5.0 (Windows NT 10.0; Win64; x64) AppleWebKit/537.36 (KHTML, like Gecko) Chrome/118.0.0.0 Safari/537.36","WebKit","Chrome","118.0.0.0","Windows","10.0","null","es-ES,es;q=0.9,en;q=0.8","true","null","<p id=""stimulus"" style=""font-size:100px;"">42</p>","null","","","tone_number_task_remaining_before_delay","","42","","201.5","100","0","30",""
"","","","","","html-keyboard-response","192","855787","0.0-210.0-0.0","66","1","2023-11-01 18:52:58","a725c3012b74bf33a1020a98cb69c237","186.22.17.230","Mozilla/5.0 (Windows NT 10.0; Win64; x64) AppleWebKit/537.36 (KHTML, like Gecko) Chrome/118.0.0.0 Safari/537.36","WebKit","Chrome","118.0.0.0","Windows","10.0","null","es-ES,es;q=0.9,en;q=0.8","true","399","<p id=""stimulus"" style=""font-size:100px;"">42</p>","j","","","empty_block","","42","","","","0","30",""
"","","","","","html-keyboard-response","193","858463","0.0-211.0","66","1","2023-11-01 18:52:58","a725c3012b74bf33a1020a98cb69c237","186.22.17.230","Mozilla/5.0 (Windows NT 10.0; Win64; x64) AppleWebKit/537.36 (KHTML, like Gecko) Chrome/118.0.0.0 Safari/537.36","WebKit","Chrome","118.0.0.0","Windows","10.0","null","es-ES,es;q=0.9,en;q=0.8","true","null","<div style=""font-size:100px;"">X</div>","null","","","fixation","","","","","","","",""
"","","","","","audio-keyboard-response","194","858719","0.0-212.0","66","1","2023-11-01 18:52:58","a725c3012b74bf33a1020a98cb69c237","186.22.17.230","Mozilla/5.0 (Windows NT 10.0; Win64; x64) AppleWebKit/537.36 (KHTML, like Gecko) Chrome/118.0.0.0 Safari/537.36","WebKit","Chrome","118.0.0.0","Windows","10.0","null","es-ES,es;q=0.9,en;q=0.8","true","null","tones/440hz_short.mp3","null","","","tone_number_task","102.5","58","tones/440hz_short.mp3","252.5","100","0","31",""
"","","","","","html-keyboard-response","195","859628","0.0-215.0-0.0","66","1","2023-11-01 18:52:58","a725c3012b74bf33a1020a98cb69c237","186.22.17.230","Mozilla/5.0 (Windows NT 10.0; Win64; x64) AppleWebKit/537.36 (KHTML, like Gecko) Chrome/118.0.0.0 Safari/537.36","WebKit","Chrome","118.0.0.0","Windows","10.0","null","es-ES,es;q=0.9,en;q=0.8","true","906","tones/440hz_short.mp3","a","","","empty_block","","58","","","","0","31",""
"","","","","","html-keyboard-response","196","859843","0.0-215.0-1.0","66","1","2023-11-01 18:52:58","a725c3012b74bf33a1020a98cb69c237","186.22.17.230","Mozilla/5.0 (Windows NT 10.0; Win64; x64) AppleWebKit/537.36 (KHTML, like Gecko) Chrome/118.0.0.0 Safari/537.36","WebKit","Chrome","118.0.0.0","Windows","10.0","null","es-ES,es;q=0.9,en;q=0.8","true","213","tones/440hz_short.mp3","k","","","empty_block","","58","","","","0","31",""
"","","","","","html-keyboard-response","197","862518","0.0-217.0","66","1","2023-11-01 18:52:58","a725c3012b74bf33a1020a98cb69c237","186.22.17.230","Mozilla/5.0 (Windows NT 10.0; Win64; x64) AppleWebKit/537.36 (KHTML, like Gecko) Chrome/118.0.0.0 Safari/537.36","WebKit","Chrome","118.0.0.0","Windows","10.0","null","es-ES,es;q=0.9,en;q=0.8","true","null","<div style=""font-size:100px;"">X</div>","null","","","fixation","","","","","","","",""
"","","","","","audio-keyboard-response","198","863419","0.0-218.0","66","1","2023-11-01 18:52:58","a725c3012b74bf33a1020a98cb69c237","186.22.17.230","Mozilla/5.0 (Windows NT 10.0; Win64; x64) AppleWebKit/537.36 (KHTML, like Gecko) Chrome/118.0.0.0 Safari/537.36","WebKit","Chrome","118.0.0.0","Windows","10.0","null","es-ES,es;q=0.9,en;q=0.8","true","899","tones/440hz_short.mp3","a","","","tone_number_task","1025","50","tones/440hz_short.mp3","1175","100","0","32",""
"","","","","","html-keyboard-response","199","863549","0.0-219.0-0.0","66","1","2023-11-01 18:52:58","a725c3012b74bf33a1020a98cb69c237","186.22.17.230","Mozilla/5.0 (Windows NT 10.0; Win64; x64) AppleWebKit/537.36 (KHTML, like Gecko) Chrome/118.0.0.0 Safari/537.36","WebKit","Chrome","118.0.0.0","Windows","10.0","null","es-ES,es;q=0.9,en;q=0.8","true","null","","null","","","delay_block","","","","","","0","32",""
"","","","","","html-keyboard-response","200","863702","0.0-219.0-1.0","66","1","2023-11-01 18:52:58","a725c3012b74bf33a1020a98cb69c237","186.22.17.230","Mozilla/5.0 (Windows NT 10.0; Win64; x64) AppleWebKit/537.36 (KHTML, like Gecko) Chrome/118.0.0.0 Safari/537.36","WebKit","Chrome","118.0.0.0","Windows","10.0","null","es-ES,es;q=0.9,en;q=0.8","true","null","<p id=""stimulus"" style=""font-size:100px;"">50</p>","null","","","tone_number_task_remaining_before_delay","","50","","276","100","0","32",""
"","","","","","html-keyboard-response","201","864059","0.0-222.0-0.0","66","1","2023-11-01 18:52:58","a725c3012b74bf33a1020a98cb69c237","186.22.17.230","Mozilla/5.0 (Windows NT 10.0; Win64; x64) AppleWebKit/537.36 (KHTML, like Gecko) Chrome/118.0.0.0 Safari/537.36","WebKit","Chrome","118.0.0.0","Windows","10.0","null","es-ES,es;q=0.9,en;q=0.8","true","355","<p id=""stimulus"" style=""font-size:100px;"">50</p>","k","","","empty_block","","50","","","","0","32",""
"","","","","","html-keyboard-response","202","866734","0.0-223.0","66","1","2023-11-01 18:52:58","a725c3012b74bf33a1020a98cb69c237","186.22.17.230","Mozilla/5.0 (Windows NT 10.0; Win64; x64) AppleWebKit/537.36 (KHTML, like Gecko) Chrome/118.0.0.0 Safari/537.36","WebKit","Chrome","118.0.0.0","Windows","10.0","null","es-ES,es;q=0.9,en;q=0.8","true","null","<div style=""font-size:100px;"">X</div>","null","","","fixation","","","","","","","",""
"","","","","","audio-keyboard-response","203","866887","0.0-224.0","66","1","2023-11-01 18:52:58","a725c3012b74bf33a1020a98cb69c237","186.22.17.230","Mozilla/5.0 (Windows NT 10.0; Win64; x64) AppleWebKit/537.36 (KHTML, like Gecko) Chrome/118.0.0.0 Safari/537.36","WebKit","Chrome","118.0.0.0","Windows","10.0","null","es-ES,es;q=0.9,en;q=0.8","true","null","tones/440hz_short.mp3","null","","","tone_number_task","0","64","tones/440hz_short.mp3","150","100","0","33",""
"","","","","","html-keyboard-response","204","867499","0.0-227.0-0.0","66","1","2023-11-01 18:52:58","a725c3012b74bf33a1020a98cb69c237","186.22.17.230","Mozilla/5.0 (Windows NT 10.0; Win64; x64) AppleWebKit/537.36 (KHTML, like Gecko) Chrome/118.0.0.0 Safari/537.36","WebKit","Chrome","118.0.0.0","Windows","10.0","null","es-ES,es;q=0.9,en;q=0.8","true","611","tones/440hz_short.mp3","a","","","empty_block","","64","","","","0","33",""
"","","","","","html-keyboard-response","205","867691","0.0-227.0-1.0","66","1","2023-11-01 18:52:58","a725c3012b74bf33a1020a98cb69c237","186.22.17.230","Mozilla/5.0 (Windows NT 10.0; Win64; x64) AppleWebKit/537.36 (KHTML, like Gecko) Chrome/118.0.0.0 Safari/537.36","WebKit","Chrome","118.0.0.0","Windows","10.0","null","es-ES,es;q=0.9,en;q=0.8","true","190","tones/440hz_short.mp3","k","","","empty_block","","64","","","","0","33",""
"","","","","","html-keyboard-response","206","870365","0.0-229.0","66","1","2023-11-01 18:52:58","a725c3012b74bf33a1020a98cb69c237","186.22.17.230","Mozilla/5.0 (Windows NT 10.0; Win64; x64) AppleWebKit/537.36 (KHTML, like Gecko) Chrome/118.0.0.0 Safari/537.36","WebKit","Chrome","118.0.0.0","Windows","10.0","null","es-ES,es;q=0.9,en;q=0.8","true","null","<div style=""font-size:100px;"">X</div>","null","","","fixation","","","","","","","",""
"","","","","","audio-keyboard-response","207","870519","0.0-230.0","66","1","2023-11-01 18:52:58","a725c3012b74bf33a1020a98cb69c237","186.22.17.230","Mozilla/5.0 (Windows NT 10.0; Win64; x64) AppleWebKit/537.36 (KHTML, like Gecko) Chrome/118.0.0.0 Safari/537.36","WebKit","Chrome","118.0.0.0","Windows","10.0","null","es-ES,es;q=0.9,en;q=0.8","true","null","tones/880hz_short.mp3","null","","","tone_number_task","0","25","tones/880hz_short.mp3","150","100","0","34",""
"","","","","","html-keyboard-response","208","871060","0.0-233.0-0.0","66","1","2023-11-01 18:52:58","a725c3012b74bf33a1020a98cb69c237","186.22.17.230","Mozilla/5.0 (Windows NT 10.0; Win64; x64) AppleWebKit/537.36 (KHTML, like Gecko) Chrome/118.0.0.0 Safari/537.36","WebKit","Chrome","118.0.0.0","Windows","10.0","null","es-ES,es;q=0.9,en;q=0.8","true","538","tones/880hz_short.mp3","a","","","empty_block","","25","","","","0","34",""
"","","","","","html-keyboard-response","209","871299","0.0-233.0-1.0","66","1","2023-11-01 18:52:58","a725c3012b74bf33a1020a98cb69c237","186.22.17.230","Mozilla/5.0 (Windows NT 10.0; Win64; x64) AppleWebKit/537.36 (KHTML, like Gecko) Chrome/118.0.0.0 Safari/537.36","WebKit","Chrome","118.0.0.0","Windows","10.0","null","es-ES,es;q=0.9,en;q=0.8","true","237","tones/880hz_short.mp3","j","","","empty_block","","25","","","","0","34",""
"","","","","","html-keyboard-response","210","873973","0.0-235.0","66","1","2023-11-01 18:52:58","a725c3012b74bf33a1020a98cb69c237","186.22.17.230","Mozilla/5.0 (Windows NT 10.0; Win64; x64) AppleWebKit/537.36 (KHTML, like Gecko) Chrome/118.0.0.0 Safari/537.36","WebKit","Chrome","118.0.0.0","Windows","10.0","null","es-ES,es;q=0.9,en;q=0.8","true","null","<div style=""font-size:100px;"">X</div>","null","","","fixation","","","","","","","",""
"","","","","","audio-keyboard-response","211","874427","0.0-236.0","66","1","2023-11-01 18:52:58","a725c3012b74bf33a1020a98cb69c237","186.22.17.230","Mozilla/5.0 (Windows NT 10.0; Win64; x64) AppleWebKit/537.36 (KHTML, like Gecko) Chrome/118.0.0.0 Safari/537.36","WebKit","Chrome","118.0.0.0","Windows","10.0","null","es-ES,es;q=0.9,en;q=0.8","true","440","tones/880hz_short.mp3","s","","","tone_number_task","992.5","34","tones/880hz_short.mp3","1142.5","100","0","35",""
"","","","","","html-keyboard-response","212","874983","0.0-237.0-0.0","66","1","2023-11-01 18:52:58","a725c3012b74bf33a1020a98cb69c237","186.22.17.230","Mozilla/5.0 (Windows NT 10.0; Win64; x64) AppleWebKit/537.36 (KHTML, like Gecko) Chrome/118.0.0.0 Safari/537.36","WebKit","Chrome","118.0.0.0","Windows","10.0","null","es-ES,es;q=0.9,en;q=0.8","true","null","","null","","","delay_block","","","","","","0","35",""
"","","","","","html-keyboard-response","213","875136","0.0-237.0-1.0","66","1","2023-11-01 18:52:58","a725c3012b74bf33a1020a98cb69c237","186.22.17.230","Mozilla/5.0 (Windows NT 10.0; Win64; x64) AppleWebKit/537.36 (KHTML, like Gecko) Chrome/118.0.0.0 Safari/537.36","WebKit","Chrome","118.0.0.0","Windows","10.0","null","es-ES,es;q=0.9,en;q=0.8","true","null","<p id=""stimulus"" style=""font-size:100px;"">34</p>","null","","","tone_number_task_remaining_before_delay","","34","","702.5","100","0","35",""
"","","","","","html-keyboard-response","214","875396","0.0-240.0-0.0","66","1","2023-11-01 18:52:58","a725c3012b74bf33a1020a98cb69c237","186.22.17.230","Mozilla/5.0 (Windows NT 10.0; Win64; x64) AppleWebKit/537.36 (KHTML, like Gecko) Chrome/118.0.0.0 Safari/537.36","WebKit","Chrome","118.0.0.0","Windows","10.0","null","es-ES,es;q=0.9,en;q=0.8","true","257","<p id=""stimulus"" style=""font-size:100px;"">34</p>","j","","","empty_block","","34","","","","0","35",""
"","","","","","html-keyboard-response","215","878069","0.0-241.0","66","1","2023-11-01 18:52:58","a725c3012b74bf33a1020a98cb69c237","186.22.17.230","Mozilla/5.0 (Windows NT 10.0; Win64; x64) AppleWebKit/537.36 (KHTML, like Gecko) Chrome/118.0.0.0 Safari/537.36","WebKit","Chrome","118.0.0.0","Windows","10.0","null","es-ES,es;q=0.9,en;q=0.8","true","null","<div style=""font-size:100px;"">X</div>","null","","","fixation","","","","","","","",""
