"success","timeout","failed_images","failed_audio","failed_video","trial_type","trial_index","time_elapsed","internal_node_id","run_id","condition","recorded_at","source_code_version","ip","user_agent","device","browser","browser_version","platform","platform_version","referer","accept_language","check","rt","stimulus","response","question_order","url","task","delay","number","audioFile","trial_duration","font_size","block","round","value"
"true","false","[]","[]","[]","preload","0","236","0.0-0.0","22","1","2023-10-31 20:14:16","a725c3012b74bf33a1020a98cb69c237","181.29.10.192","Mozilla/5.0 (Macintosh; Intel Mac OS X 10_15_7) AppleWebKit/537.36 (KHTML, like Gecko) Chrome/118.0.0.0 Safari/537.36","Macintosh","Chrome","118.0.0.0","OS X","10_15_7","null","en-US,en;q=0.9,es-ES;q=0.8,es;q=0.7,pt;q=0.6","true","","","","","","","","","","","","","",""
"true","","","","","fullscreen","1","2344","0.0-1.0","22","1","2023-10-31 20:14:16","a725c3012b74bf33a1020a98cb69c237","181.29.10.192","Mozilla/5.0 (Macintosh; Intel Mac OS X 10_15_7) AppleWebKit/537.36 (KHTML, like Gecko) Chrome/118.0.0.0 Safari/537.36","Macintosh","Chrome","118.0.0.0","OS X","10_15_7","null","en-US,en;q=0.9,es-ES;q=0.8,es;q=0.7,pt;q=0.6","true","","","","","","","","","","","","","",""
"","","","","","html-button-response","2","4366","0.0-2.0","22","1","2023-10-31 20:14:16","a725c3012b74bf33a1020a98cb69c237","181.29.10.192","Mozilla/5.0 (Macintosh; Intel Mac OS X 10_15_7) AppleWebKit/537.36 (KHTML, like Gecko) Chrome/118.0.0.0 Safari/537.36","Macintosh","Chrome","118.0.0.0","OS X","10_15_7","null","en-US,en;q=0.9,es-ES;q=0.8,es;q=0.7,pt;q=0.6","true","2020","<p style=""font-size:24px; color:red;"">Cosas importantes a tener en cuenta antes de comenzar el experimento:</p>","0","","","","","","","","","","",""
"","","","","","html-button-response","3","12917","0.0-3.0","22","1","2023-10-31 20:14:16","a725c3012b74bf33a1020a98cb69c237","181.29.10.192","Mozilla/5.0 (Macintosh; Intel Mac OS X 10_15_7) AppleWebKit/537.36 (KHTML, like Gecko) Chrome/118.0.0.0 Safari/537.36","Macintosh","Chrome","118.0.0.0","OS X","10_15_7","null","en-US,en;q=0.9,es-ES;q=0.8,es;q=0.7,pt;q=0.6","true","8549","<p style=""font-size:24px;"">El experimento dura aproximadamente 15 minutos.</p><p style=""font-size:24px;"">Por favor, no cierres la ventana del navegador durante el experimento.</p><p style=""font-size:24px;"">Si se completa de forma parcial, no se guardará ningún resultado.</p>","0","","","","","","","","","","",""
"","","","","","html-button-response","4","17717","0.0-4.0","22","1","2023-10-31 20:14:16","a725c3012b74bf33a1020a98cb69c237","181.29.10.192","Mozilla/5.0 (Macintosh; Intel Mac OS X 10_15_7) AppleWebKit/537.36 (KHTML, like Gecko) Chrome/118.0.0.0 Safari/537.36","Macintosh","Chrome","118.0.0.0","OS X","10_15_7","null","en-US,en;q=0.9,es-ES;q=0.8,es;q=0.7,pt;q=0.6","true","4798","<p style=""font-size:24px;"">El experimento contiene estímulos sonoros.</p>","0","","","","","","","","","","",""
"","","","","","audio-button-response","5","22688","0.0-5.0-0.0","22","1","2023-10-31 20:14:16","a725c3012b74bf33a1020a98cb69c237","181.29.10.192","Mozilla/5.0 (Macintosh; Intel Mac OS X 10_15_7) AppleWebKit/537.36 (KHTML, like Gecko) Chrome/118.0.0.0 Safari/537.36","Macintosh","Chrome","118.0.0.0","OS X","10_15_7","null","en-US,en;q=0.9,es-ES;q=0.8,es;q=0.7,pt;q=0.6","true","4923","tones/440hz_short.mp3","1","","","","","","","","","","",""
"","","","","","audio-button-response","6","24700","0.0-6.0-0.0","22","1","2023-10-31 20:14:16","a725c3012b74bf33a1020a98cb69c237","181.29.10.192","Mozilla/5.0 (Macintosh; Intel Mac OS X 10_15_7) AppleWebKit/537.36 (KHTML, like Gecko) Chrome/118.0.0.0 Safari/537.36","Macintosh","Chrome","118.0.0.0","OS X","10_15_7","null","en-US,en;q=0.9,es-ES;q=0.8,es;q=0.7,pt;q=0.6","true","2011","tones/880hz_short.mp3","1","","","","","","","","","","",""
"","","","","","survey-html-form","7","27611","0.0-7.0","22","1","2023-10-31 20:14:16","a725c3012b74bf33a1020a98cb69c237","181.29.10.192","Mozilla/5.0 (Macintosh; Intel Mac OS X 10_15_7) AppleWebKit/537.36 (KHTML, like Gecko) Chrome/118.0.0.0 Safari/537.36","Macintosh","Chrome","118.0.0.0","OS X","10_15_7","null","en-US,en;q=0.9,es-ES;q=0.8,es;q=0.7,pt;q=0.6","true","2901","","{""response"":""22""}","","","","","","","","","","",""
"","","","","","survey-multi-choice","8","32746","0.0-8.0","22","1","2023-10-31 20:14:16","a725c3012b74bf33a1020a98cb69c237","181.29.10.192","Mozilla/5.0 (Macintosh; Intel Mac OS X 10_15_7) AppleWebKit/537.36 (KHTML, like Gecko) Chrome/118.0.0.0 Safari/537.36","Macintosh","Chrome","118.0.0.0","OS X","10_15_7","null","en-US,en;q=0.9,es-ES;q=0.8,es;q=0.7,pt;q=0.6","true","5132","","{""gender"":""Mujer"",""hand"":""Derecha""}","[0,1]","","","","","","","","","",""
"","","","","","external-html","9","134108","0.0-9.0","22","1","2023-10-31 20:14:16","a725c3012b74bf33a1020a98cb69c237","181.29.10.192","Mozilla/5.0 (Macintosh; Intel Mac OS X 10_15_7) AppleWebKit/537.36 (KHTML, like Gecko) Chrome/118.0.0.0 Safari/537.36","Macintosh","Chrome","118.0.0.0","OS X","10_15_7","null","en-US,en;q=0.9,es-ES;q=0.8,es;q=0.7,pt;q=0.6","true","101026","","","","instructions/instructions.html","","","","","","","","",""
"","","","","","external-html","10","169248","0.0-10.0","22","1","2023-10-31 20:14:16","a725c3012b74bf33a1020a98cb69c237","181.29.10.192","Mozilla/5.0 (Macintosh; Intel Mac OS X 10_15_7) AppleWebKit/537.36 (KHTML, like Gecko) Chrome/118.0.0.0 Safari/537.36","Macintosh","Chrome","118.0.0.0","OS X","10_15_7","null","en-US,en;q=0.9,es-ES;q=0.8,es;q=0.7,pt;q=0.6","true","34831","","","","instructions/animation.html","","","","","","","","",""
"","","","","","html-keyboard-response","11","171953","0.0-11.0-0.0","22","1","2023-10-31 20:14:16","a725c3012b74bf33a1020a98cb69c237","181.29.10.192","Mozilla/5.0 (Macintosh; Intel Mac OS X 10_15_7) AppleWebKit/537.36 (KHTML, like Gecko) Chrome/118.0.0.0 Safari/537.36","Macintosh","Chrome","118.0.0.0","OS X","10_15_7","null","en-US,en;q=0.9,es-ES;q=0.8,es;q=0.7,pt;q=0.6","true","null","<div style=""font-size:100px;"">X</div>","null","","","fixation","","","","","","","",""
"","","","","","audio-keyboard-response","12","172581","0.0-11.0-1.0","22","1","2023-10-31 20:14:16","a725c3012b74bf33a1020a98cb69c237","181.29.10.192","Mozilla/5.0 (Macintosh; Intel Mac OS X 10_15_7) AppleWebKit/537.36 (KHTML, like Gecko) Chrome/118.0.0.0 Safari/537.36","Macintosh","Chrome","118.0.0.0","OS X","10_15_7","null","en-US,en;q=0.9,es-ES;q=0.8,es;q=0.7,pt;q=0.6","true","597","tones/880hz_short.mp3","a","","","tone_number_task","1000","26","tones/880hz_short.mp3","1150","100","null","null",""
"","","","","","html-keyboard-response","13","172987","0.0-11.0-2.0-0.0","22","1","2023-10-31 20:14:16","a725c3012b74bf33a1020a98cb69c237","181.29.10.192","Mozilla/5.0 (Macintosh; Intel Mac OS X 10_15_7) AppleWebKit/537.36 (KHTML, like Gecko) Chrome/118.0.0.0 Safari/537.36","Macintosh","Chrome","118.0.0.0","OS X","10_15_7","null","en-US,en;q=0.9,es-ES;q=0.8,es;q=0.7,pt;q=0.6","true","null","","null","","","delay_block","","","","","","null","null",""
"","","","","","html-keyboard-response","14","173144","0.0-11.0-2.0-1.0","22","1","2023-10-31 20:14:16","a725c3012b74bf33a1020a98cb69c237","181.29.10.192","Mozilla/5.0 (Macintosh; Intel Mac OS X 10_15_7) AppleWebKit/537.36 (KHTML, like Gecko) Chrome/118.0.0.0 Safari/537.36","Macintosh","Chrome","118.0.0.0","OS X","10_15_7","null","en-US,en;q=0.9,es-ES;q=0.8,es;q=0.7,pt;q=0.6","true","null","<p id=""stimulus"" style=""font-size:100px;"">26</p>","null","","","tone_number_task_remaining_before_delay","","26","","553","100","null","null",""
"","","","","","html-keyboard-response","15","174431","0.0-11.0-5.0-0.0","22","1","2023-10-31 20:14:16","a725c3012b74bf33a1020a98cb69c237","181.29.10.192","Mozilla/5.0 (Macintosh; Intel Mac OS X 10_15_7) AppleWebKit/537.36 (KHTML, like Gecko) Chrome/118.0.0.0 Safari/537.36","Macintosh","Chrome","118.0.0.0","OS X","10_15_7","null","en-US,en;q=0.9,es-ES;q=0.8,es;q=0.7,pt;q=0.6","true","1283","<p id=""stimulus"" style=""font-size:100px;"">26</p>","k","","","empty_block","","26","","","","null","null",""
"","","","","","html-button-response","16","179143","0.0-11.0-6.0-0.0","22","1","2023-10-31 20:14:16","a725c3012b74bf33a1020a98cb69c237","181.29.10.192","Mozilla/5.0 (Macintosh; Intel Mac OS X 10_15_7) AppleWebKit/537.36 (KHTML, like Gecko) Chrome/118.0.0.0 Safari/537.36","Macintosh","Chrome","118.0.0.0","OS X","10_15_7","null","en-US,en;q=0.9,es-ES;q=0.8,es;q=0.7,pt;q=0.6","true","4708","
  '<p style=""font-size:24px; color:red;"">Incorrecto</p><p> Respondiste alguno de los estímulos de manera incorrecta.</p><p>Por favor, repasá las instrucciones y seguimos desde donde nos quedamos. </p>
  ","0","","","","","","","","","","",""
"","","","","","external-html","17","199948","0.0-11.0-6.0-1.0","22","1","2023-10-31 20:14:16","a725c3012b74bf33a1020a98cb69c237","181.29.10.192","Mozilla/5.0 (Macintosh; Intel Mac OS X 10_15_7) AppleWebKit/537.36 (KHTML, like Gecko) Chrome/118.0.0.0 Safari/537.36","Macintosh","Chrome","118.0.0.0","OS X","10_15_7","null","en-US,en;q=0.9,es-ES;q=0.8,es;q=0.7,pt;q=0.6","true","20470","","","","instructions/instructions_B.html","","","","","","","","",""
"","","","","","html-keyboard-response","18","202647","0.0-11.1-0.1","22","1","2023-10-31 20:14:16","a725c3012b74bf33a1020a98cb69c237","181.29.10.192","Mozilla/5.0 (Macintosh; Intel Mac OS X 10_15_7) AppleWebKit/537.36 (KHTML, like Gecko) Chrome/118.0.0.0 Safari/537.36","Macintosh","Chrome","118.0.0.0","OS X","10_15_7","null","en-US,en;q=0.9,es-ES;q=0.8,es;q=0.7,pt;q=0.6","true","null","<div style=""font-size:100px;"">X</div>","null","","","fixation","","","","","","","",""
"","","","","","audio-keyboard-response","19","203516","0.0-11.1-1.1","22","1","2023-10-31 20:14:16","a725c3012b74bf33a1020a98cb69c237","181.29.10.192","Mozilla/5.0 (Macintosh; Intel Mac OS X 10_15_7) AppleWebKit/537.36 (KHTML, like Gecko) Chrome/118.0.0.0 Safari/537.36","Macintosh","Chrome","118.0.0.0","OS X","10_15_7","null","en-US,en;q=0.9,es-ES;q=0.8,es;q=0.7,pt;q=0.6","true","869","tones/880hz_short.mp3","s","","","tone_number_task","1000","26","tones/880hz_short.mp3","1150","100","null","null",""
"","","","","","html-keyboard-response","20","203655","0.0-11.1-2.1-0.1","22","1","2023-10-31 20:14:16","a725c3012b74bf33a1020a98cb69c237","181.29.10.192","Mozilla/5.0 (Macintosh; Intel Mac OS X 10_15_7) AppleWebKit/537.36 (KHTML, like Gecko) Chrome/118.0.0.0 Safari/537.36","Macintosh","Chrome","118.0.0.0","OS X","10_15_7","null","en-US,en;q=0.9,es-ES;q=0.8,es;q=0.7,pt;q=0.6","true","null","","null","","","delay_block","","","","","","null","null",""
"","","","","","html-keyboard-response","21","203810","0.0-11.1-2.1-1.1","22","1","2023-10-31 20:14:16","a725c3012b74bf33a1020a98cb69c237","181.29.10.192","Mozilla/5.0 (Macintosh; Intel Mac OS X 10_15_7) AppleWebKit/537.36 (KHTML, like Gecko) Chrome/118.0.0.0 Safari/537.36","Macintosh","Chrome","118.0.0.0","OS X","10_15_7","null","en-US,en;q=0.9,es-ES;q=0.8,es;q=0.7,pt;q=0.6","true","null","<p id=""stimulus"" style=""font-size:100px;"">26</p>","null","","","tone_number_task_remaining_before_delay","","26","","281","100","null","null",""
"","","","","","html-keyboard-response","22","204281","0.0-11.1-5.1-0.1","22","1","2023-10-31 20:14:16","a725c3012b74bf33a1020a98cb69c237","181.29.10.192","Mozilla/5.0 (Macintosh; Intel Mac OS X 10_15_7) AppleWebKit/537.36 (KHTML, like Gecko) Chrome/118.0.0.0 Safari/537.36","Macintosh","Chrome","118.0.0.0","OS X","10_15_7","null","en-US,en;q=0.9,es-ES;q=0.8,es;q=0.7,pt;q=0.6","true","467","<p id=""stimulus"" style=""font-size:100px;"">26</p>","j","","","empty_block","","26","","","","null","null",""
"","","","","","html-keyboard-response","23","206981","0.0-13.0-0.0","22","1","2023-10-31 20:14:16","a725c3012b74bf33a1020a98cb69c237","181.29.10.192","Mozilla/5.0 (Macintosh; Intel Mac OS X 10_15_7) AppleWebKit/537.36 (KHTML, like Gecko) Chrome/118.0.0.0 Safari/537.36","Macintosh","Chrome","118.0.0.0","OS X","10_15_7","null","en-US,en;q=0.9,es-ES;q=0.8,es;q=0.7,pt;q=0.6","true","null","<div style=""font-size:100px;"">X</div>","null","","","fixation","","","","","","","",""
"","","","","","audio-keyboard-response","24","207385","0.0-13.0-1.0","22","1","2023-10-31 20:14:16","a725c3012b74bf33a1020a98cb69c237","181.29.10.192","Mozilla/5.0 (Macintosh; Intel Mac OS X 10_15_7) AppleWebKit/537.36 (KHTML, like Gecko) Chrome/118.0.0.0 Safari/537.36","Macintosh","Chrome","118.0.0.0","OS X","10_15_7","null","en-US,en;q=0.9,es-ES;q=0.8,es;q=0.7,pt;q=0.6","true","400","tones/880hz_short.mp3","s","","","tone_number_task","500","57","tones/880hz_short.mp3","650","100","null","null",""
"","","","","","html-keyboard-response","25","207489","0.0-13.0-2.0-0.0","22","1","2023-10-31 20:14:16","a725c3012b74bf33a1020a98cb69c237","181.29.10.192","Mozilla/5.0 (Macintosh; Intel Mac OS X 10_15_7) AppleWebKit/537.36 (KHTML, like Gecko) Chrome/118.0.0.0 Safari/537.36","Macintosh","Chrome","118.0.0.0","OS X","10_15_7","null","en-US,en;q=0.9,es-ES;q=0.8,es;q=0.7,pt;q=0.6","true","null","","null","","","delay_block","","","","","","null","null",""
"","","","","","html-keyboard-response","26","207644","0.0-13.0-2.0-1.0","22","1","2023-10-31 20:14:16","a725c3012b74bf33a1020a98cb69c237","181.29.10.192","Mozilla/5.0 (Macintosh; Intel Mac OS X 10_15_7) AppleWebKit/537.36 (KHTML, like Gecko) Chrome/118.0.0.0 Safari/537.36","Macintosh","Chrome","118.0.0.0","OS X","10_15_7","null","en-US,en;q=0.9,es-ES;q=0.8,es;q=0.7,pt;q=0.6","true","null","<p id=""stimulus"" style=""font-size:100px;"">57</p>","null","","","tone_number_task_remaining_before_delay","","57","","250","100","null","null",""
"","","","","","html-keyboard-response","27","207926","0.0-13.0-5.0-0.0","22","1","2023-10-31 20:14:16","a725c3012b74bf33a1020a98cb69c237","181.29.10.192","Mozilla/5.0 (Macintosh; Intel Mac OS X 10_15_7) AppleWebKit/537.36 (KHTML, like Gecko) Chrome/118.0.0.0 Safari/537.36","Macintosh","Chrome","118.0.0.0","OS X","10_15_7","null","en-US,en;q=0.9,es-ES;q=0.8,es;q=0.7,pt;q=0.6","true","279","<p id=""stimulus"" style=""font-size:100px;"">57</p>","k","","","empty_block","","57","","","","null","null",""
"","","","","","html-keyboard-response","28","210626","0.0-15.0-0.0","22","1","2023-10-31 20:14:16","a725c3012b74bf33a1020a98cb69c237","181.29.10.192","Mozilla/5.0 (Macintosh; Intel Mac OS X 10_15_7) AppleWebKit/537.36 (KHTML, like Gecko) Chrome/118.0.0.0 Safari/537.36","Macintosh","Chrome","118.0.0.0","OS X","10_15_7","null","en-US,en;q=0.9,es-ES;q=0.8,es;q=0.7,pt;q=0.6","true","null","<div style=""font-size:100px;"">X</div>","null","","","fixation","","","","","","","",""
"","","","","","audio-keyboard-response","29","210936","0.0-15.0-1.0","22","1","2023-10-31 20:14:16","a725c3012b74bf33a1020a98cb69c237","181.29.10.192","Mozilla/5.0 (Macintosh; Intel Mac OS X 10_15_7) AppleWebKit/537.36 (KHTML, like Gecko) Chrome/118.0.0.0 Safari/537.36","Macintosh","Chrome","118.0.0.0","OS X","10_15_7","null","en-US,en;q=0.9,es-ES;q=0.8,es;q=0.7,pt;q=0.6","true","null","tones/880hz_short.mp3","null","","","tone_number_task","150","43","tones/880hz_short.mp3","300","100","null","null",""
"","","","","","html-keyboard-response","30","211016","0.0-15.0-4.0-0.0","22","1","2023-10-31 20:14:16","a725c3012b74bf33a1020a98cb69c237","181.29.10.192","Mozilla/5.0 (Macintosh; Intel Mac OS X 10_15_7) AppleWebKit/537.36 (KHTML, like Gecko) Chrome/118.0.0.0 Safari/537.36","Macintosh","Chrome","118.0.0.0","OS X","10_15_7","null","en-US,en;q=0.9,es-ES;q=0.8,es;q=0.7,pt;q=0.6","true","77","tones/880hz_short.mp3","s","","","empty_block","","43","","","","null","null",""
"","","","","","html-keyboard-response","31","211780","0.0-15.0-4.0-1.0","22","1","2023-10-31 20:14:16","a725c3012b74bf33a1020a98cb69c237","181.29.10.192","Mozilla/5.0 (Macintosh; Intel Mac OS X 10_15_7) AppleWebKit/537.36 (KHTML, like Gecko) Chrome/118.0.0.0 Safari/537.36","Macintosh","Chrome","118.0.0.0","OS X","10_15_7","null","en-US,en;q=0.9,es-ES;q=0.8,es;q=0.7,pt;q=0.6","true","761","tones/880hz_short.mp3","j","","","empty_block","","43","","","","null","null",""
"","","","","","html-keyboard-response","32","214476","0.0-17.0-0.0","22","1","2023-10-31 20:14:16","a725c3012b74bf33a1020a98cb69c237","181.29.10.192","Mozilla/5.0 (Macintosh; Intel Mac OS X 10_15_7) AppleWebKit/537.36 (KHTML, like Gecko) Chrome/118.0.0.0 Safari/537.36","Macintosh","Chrome","118.0.0.0","OS X","10_15_7","null","en-US,en;q=0.9,es-ES;q=0.8,es;q=0.7,pt;q=0.6","true","null","<div style=""font-size:100px;"">X</div>","null","","","fixation","","","","","","","",""
"","","","","","audio-keyboard-response","33","214682","0.0-17.0-1.0","22","1","2023-10-31 20:14:16","a725c3012b74bf33a1020a98cb69c237","181.29.10.192","Mozilla/5.0 (Macintosh; Intel Mac OS X 10_15_7) AppleWebKit/537.36 (KHTML, like Gecko) Chrome/118.0.0.0 Safari/537.36","Macintosh","Chrome","118.0.0.0","OS X","10_15_7","null","en-US,en;q=0.9,es-ES;q=0.8,es;q=0.7,pt;q=0.6","true","null","tones/880hz_short.mp3","null","","","tone_number_task","50","42","tones/880hz_short.mp3","200","100","null","null",""
"","","","","","html-keyboard-response","34","214927","0.0-17.0-4.0-0.0","22","1","2023-10-31 20:14:16","a725c3012b74bf33a1020a98cb69c237","181.29.10.192","Mozilla/5.0 (Macintosh; Intel Mac OS X 10_15_7) AppleWebKit/537.36 (KHTML, like Gecko) Chrome/118.0.0.0 Safari/537.36","Macintosh","Chrome","118.0.0.0","OS X","10_15_7","null","en-US,en;q=0.9,es-ES;q=0.8,es;q=0.7,pt;q=0.6","true","242","tones/880hz_short.mp3","s","","","empty_block","","42","","","","null","null",""
"","","","","","html-keyboard-response","35","215442","0.0-17.0-4.0-1.0","22","1","2023-10-31 20:14:16","a725c3012b74bf33a1020a98cb69c237","181.29.10.192","Mozilla/5.0 (Macintosh; Intel Mac OS X 10_15_7) AppleWebKit/537.36 (KHTML, like Gecko) Chrome/118.0.0.0 Safari/537.36","Macintosh","Chrome","118.0.0.0","OS X","10_15_7","null","en-US,en;q=0.9,es-ES;q=0.8,es;q=0.7,pt;q=0.6","true","513","tones/880hz_short.mp3","j","","","empty_block","","42","","","","null","null",""
"","","","","","html-button-response","36","222499","0.0-19.0","22","1","2023-10-31 20:14:16","a725c3012b74bf33a1020a98cb69c237","181.29.10.192","Mozilla/5.0 (Macintosh; Intel Mac OS X 10_15_7) AppleWebKit/537.36 (KHTML, like Gecko) Chrome/118.0.0.0 Safari/537.36","Macintosh","Chrome","118.0.0.0","OS X","10_15_7","null","en-US,en;q=0.9,es-ES;q=0.8,es;q=0.7,pt;q=0.6","true","7054","
  <h1> Muy bien </h1>
  <p> Ahora, en vez de ser presentados en dígitos, los números vendrán escritos en palabras. </p>
  <p> Por ejemplo, en vez de 44 te aparecerá ""cuarenta y cuatro"". </p>
  ","0","","","","","","","","","","",""
"","","","","","html-keyboard-response","37","225199","0.0-20.0-0.0","22","1","2023-10-31 20:14:16","a725c3012b74bf33a1020a98cb69c237","181.29.10.192","Mozilla/5.0 (Macintosh; Intel Mac OS X 10_15_7) AppleWebKit/537.36 (KHTML, like Gecko) Chrome/118.0.0.0 Safari/537.36","Macintosh","Chrome","118.0.0.0","OS X","10_15_7","null","en-US,en;q=0.9,es-ES;q=0.8,es;q=0.7,pt;q=0.6","true","null","<div style=""font-size:100px;"">X</div>","null","","","fixation","","","","","","","",""
"","","","","","audio-keyboard-response","38","225626","0.0-20.0-1.0","22","1","2023-10-31 20:14:16","a725c3012b74bf33a1020a98cb69c237","181.29.10.192","Mozilla/5.0 (Macintosh; Intel Mac OS X 10_15_7) AppleWebKit/537.36 (KHTML, like Gecko) Chrome/118.0.0.0 Safari/537.36","Macintosh","Chrome","118.0.0.0","OS X","10_15_7","null","en-US,en;q=0.9,es-ES;q=0.8,es;q=0.7,pt;q=0.6","true","427","tones/440hz_short.mp3","a","","","tone_number_task","1000","cincuenta y dos","tones/440hz_short.mp3","1150","60","null","null",""
"","","","","","html-keyboard-response","39","226207","0.0-20.0-2.0-0.0","22","1","2023-10-31 20:14:16","a725c3012b74bf33a1020a98cb69c237","181.29.10.192","Mozilla/5.0 (Macintosh; Intel Mac OS X 10_15_7) AppleWebKit/537.36 (KHTML, like Gecko) Chrome/118.0.0.0 Safari/537.36","Macintosh","Chrome","118.0.0.0","OS X","10_15_7","null","en-US,en;q=0.9,es-ES;q=0.8,es;q=0.7,pt;q=0.6","true","null","","null","","","delay_block","","","","","","null","null",""
"","","","","","html-keyboard-response","40","226367","0.0-20.0-2.0-1.0","22","1","2023-10-31 20:14:16","a725c3012b74bf33a1020a98cb69c237","181.29.10.192","Mozilla/5.0 (Macintosh; Intel Mac OS X 10_15_7) AppleWebKit/537.36 (KHTML, like Gecko) Chrome/118.0.0.0 Safari/537.36","Macintosh","Chrome","118.0.0.0","OS X","10_15_7","null","en-US,en;q=0.9,es-ES;q=0.8,es;q=0.7,pt;q=0.6","true","null","<p id=""stimulus"" style=""font-size:60px;"">cincuenta y dos</p>","null","","","tone_number_task_remaining_before_delay","","cincuenta y dos","","723","60","null","null",""
"","","","","","html-keyboard-response","41","227078","0.0-20.0-5.0-0.0","22","1","2023-10-31 20:14:16","a725c3012b74bf33a1020a98cb69c237","181.29.10.192","Mozilla/5.0 (Macintosh; Intel Mac OS X 10_15_7) AppleWebKit/537.36 (KHTML, like Gecko) Chrome/118.0.0.0 Safari/537.36","Macintosh","Chrome","118.0.0.0","OS X","10_15_7","null","en-US,en;q=0.9,es-ES;q=0.8,es;q=0.7,pt;q=0.6","true","707","<p id=""stimulus"" style=""font-size:60px;"">cincuenta y dos</p>","k","","","empty_block","","cincuenta y dos","","","","null","null",""
"","","","","","html-button-response","42","238642","0.0-22.0","22","1","2023-10-31 20:14:16","a725c3012b74bf33a1020a98cb69c237","181.29.10.192","Mozilla/5.0 (Macintosh; Intel Mac OS X 10_15_7) AppleWebKit/537.36 (KHTML, like Gecko) Chrome/118.0.0.0 Safari/537.36","Macintosh","Chrome","118.0.0.0","OS X","10_15_7","null","en-US,en;q=0.9,es-ES;q=0.8,es;q=0.7,pt;q=0.6","true","11561","
  <h1> Fin del Entrenamiento </h1>
  <p> ¡Felicitaciones, terminaste el entrenamiento! Ahora vamos a comenzar con el experimento. </p>
  <p> Es importante tener en cuenta que consta de cuatro bloques.</p>
  <p> Podés aprovechar los momentos entre bloques para tomar un breve descanso o tomar agua entre cada uno</p>
  <p> Recordá que tenés que responder lo más rápido que puedas, pero sin equivocarte. </p>
  ","0","","","","","","","","","","",""
"","","","","","external-html","43","259598","0.0-23.0","22","1","2023-10-31 20:14:16","a725c3012b74bf33a1020a98cb69c237","181.29.10.192","Mozilla/5.0 (Macintosh; Intel Mac OS X 10_15_7) AppleWebKit/537.36 (KHTML, like Gecko) Chrome/118.0.0.0 Safari/537.36","Macintosh","Chrome","118.0.0.0","OS X","10_15_7","null","en-US,en;q=0.9,es-ES;q=0.8,es;q=0.7,pt;q=0.6","true","20580","","","","instructions/instructions_digits_first.html","","","","","","","","",""
"","","","","","call-function","44","259604","0.0-24.0","22","1","2023-10-31 20:14:16","a725c3012b74bf33a1020a98cb69c237","181.29.10.192","Mozilla/5.0 (Macintosh; Intel Mac OS X 10_15_7) AppleWebKit/537.36 (KHTML, like Gecko) Chrome/118.0.0.0 Safari/537.36","Macintosh","Chrome","118.0.0.0","OS X","10_15_7","null","en-US,en;q=0.9,es-ES;q=0.8,es;q=0.7,pt;q=0.6","true","","","","","","","","","","","","","",""
"","","","","","html-keyboard-response","45","262303","0.0-25.0","22","1","2023-10-31 20:14:16","a725c3012b74bf33a1020a98cb69c237","181.29.10.192","Mozilla/5.0 (Macintosh; Intel Mac OS X 10_15_7) AppleWebKit/537.36 (KHTML, like Gecko) Chrome/118.0.0.0 Safari/537.36","Macintosh","Chrome","118.0.0.0","OS X","10_15_7","null","en-US,en;q=0.9,es-ES;q=0.8,es;q=0.7,pt;q=0.6","true","null","<div style=""font-size:100px;"">X</div>","null","","","fixation","","","","","","","",""
"","","","","","audio-keyboard-response","46","262692","0.0-26.0","22","1","2023-10-31 20:14:16","a725c3012b74bf33a1020a98cb69c237","181.29.10.192","Mozilla/5.0 (Macintosh; Intel Mac OS X 10_15_7) AppleWebKit/537.36 (KHTML, like Gecko) Chrome/118.0.0.0 Safari/537.36","Macintosh","Chrome","118.0.0.0","OS X","10_15_7","null","en-US,en;q=0.9,es-ES;q=0.8,es;q=0.7,pt;q=0.6","true","384","tones/880hz_short.mp3","s","","","tone_number_task","1025","55","tones/880hz_short.mp3","1175","100","0","0",""
"","","","","","html-keyboard-response","47","263339","0.0-27.0-0.0","22","1","2023-10-31 20:14:16","a725c3012b74bf33a1020a98cb69c237","181.29.10.192","Mozilla/5.0 (Macintosh; Intel Mac OS X 10_15_7) AppleWebKit/537.36 (KHTML, like Gecko) Chrome/118.0.0.0 Safari/537.36","Macintosh","Chrome","118.0.0.0","OS X","10_15_7","null","en-US,en;q=0.9,es-ES;q=0.8,es;q=0.7,pt;q=0.6","true","null","","null","","","delay_block","","","","","","0","0",""
"","","","","","html-keyboard-response","48","263498","0.0-27.0-1.0","22","1","2023-10-31 20:14:16","a725c3012b74bf33a1020a98cb69c237","181.29.10.192","Mozilla/5.0 (Macintosh; Intel Mac OS X 10_15_7) AppleWebKit/537.36 (KHTML, like Gecko) Chrome/118.0.0.0 Safari/537.36","Macintosh","Chrome","118.0.0.0","OS X","10_15_7","null","en-US,en;q=0.9,es-ES;q=0.8,es;q=0.7,pt;q=0.6","true","null","<p id=""stimulus"" style=""font-size:100px;"">55</p>","null","","","tone_number_task_remaining_before_delay","","55","","791","100","0","0",""
"","","","","","html-keyboard-response","49","263953","0.0-30.0-0.0","22","1","2023-10-31 20:14:16","a725c3012b74bf33a1020a98cb69c237","181.29.10.192","Mozilla/5.0 (Macintosh; Intel Mac OS X 10_15_7) AppleWebKit/537.36 (KHTML, like Gecko) Chrome/118.0.0.0 Safari/537.36","Macintosh","Chrome","118.0.0.0","OS X","10_15_7","null","en-US,en;q=0.9,es-ES;q=0.8,es;q=0.7,pt;q=0.6","true","451","<p id=""stimulus"" style=""font-size:100px;"">55</p>","k","","","empty_block","","55","","","","0","0",""
"","","","","","html-keyboard-response","50","266652","0.0-31.0","22","1","2023-10-31 20:14:16","a725c3012b74bf33a1020a98cb69c237","181.29.10.192","Mozilla/5.0 (Macintosh; Intel Mac OS X 10_15_7) AppleWebKit/537.36 (KHTML, like Gecko) Chrome/118.0.0.0 Safari/537.36","Macintosh","Chrome","118.0.0.0","OS X","10_15_7","null","en-US,en;q=0.9,es-ES;q=0.8,es;q=0.7,pt;q=0.6","true","null","<div style=""font-size:100px;"">X</div>","null","","","fixation","","","","","","","",""
"","","","","","audio-keyboard-response","51","266912","0.0-32.0","22","1","2023-10-31 20:14:16","a725c3012b74bf33a1020a98cb69c237","181.29.10.192","Mozilla/5.0 (Macintosh; Intel Mac OS X 10_15_7) AppleWebKit/537.36 (KHTML, like Gecko) Chrome/118.0.0.0 Safari/537.36","Macintosh","Chrome","118.0.0.0","OS X","10_15_7","null","en-US,en;q=0.9,es-ES;q=0.8,es;q=0.7,pt;q=0.6","true","null","tones/880hz_short.mp3","null","","","tone_number_task","102.5","22","tones/880hz_short.mp3","252.5","100","0","1",""
"","","","","","html-keyboard-response","52","267011","0.0-35.0-0.0","22","1","2023-10-31 20:14:16","a725c3012b74bf33a1020a98cb69c237","181.29.10.192","Mozilla/5.0 (Macintosh; Intel Mac OS X 10_15_7) AppleWebKit/537.36 (KHTML, like Gecko) Chrome/118.0.0.0 Safari/537.36","Macintosh","Chrome","118.0.0.0","OS X","10_15_7","null","en-US,en;q=0.9,es-ES;q=0.8,es;q=0.7,pt;q=0.6","true","96","tones/880hz_short.mp3","s","","","empty_block","","22","","","","0","1",""
"","","","","","html-keyboard-response","53","267357","0.0-35.0-1.0","22","1","2023-10-31 20:14:16","a725c3012b74bf33a1020a98cb69c237","181.29.10.192","Mozilla/5.0 (Macintosh; Intel Mac OS X 10_15_7) AppleWebKit/537.36 (KHTML, like Gecko) Chrome/118.0.0.0 Safari/537.36","Macintosh","Chrome","118.0.0.0","OS X","10_15_7","null","en-US,en;q=0.9,es-ES;q=0.8,es;q=0.7,pt;q=0.6","true","342","tones/880hz_short.mp3","j","","","empty_block","","22","","","","0","1",""
"","","","","","html-keyboard-response","54","270055","0.0-37.0","22","1","2023-10-31 20:14:16","a725c3012b74bf33a1020a98cb69c237","181.29.10.192","Mozilla/5.0 (Macintosh; Intel Mac OS X 10_15_7) AppleWebKit/537.36 (KHTML, like Gecko) Chrome/118.0.0.0 Safari/537.36","Macintosh","Chrome","118.0.0.0","OS X","10_15_7","null","en-US,en;q=0.9,es-ES;q=0.8,es;q=0.7,pt;q=0.6","true","null","<div style=""font-size:100px;"">X</div>","null","","","fixation","","","","","","","",""
"","","","","","audio-keyboard-response","55","270448","0.0-38.0","22","1","2023-10-31 20:14:16","a725c3012b74bf33a1020a98cb69c237","181.29.10.192","Mozilla/5.0 (Macintosh; Intel Mac OS X 10_15_7) AppleWebKit/537.36 (KHTML, like Gecko) Chrome/118.0.0.0 Safari/537.36","Macintosh","Chrome","118.0.0.0","OS X","10_15_7","null","en-US,en;q=0.9,es-ES;q=0.8,es;q=0.7,pt;q=0.6","true","389","tones/880hz_short.mp3","s","","","tone_number_task","1025","59","tones/880hz_short.mp3","1175","100","0","2",""
"","","","","","html-keyboard-response","56","271089","0.0-39.0-0.0","22","1","2023-10-31 20:14:16","a725c3012b74bf33a1020a98cb69c237","181.29.10.192","Mozilla/5.0 (Macintosh; Intel Mac OS X 10_15_7) AppleWebKit/537.36 (KHTML, like Gecko) Chrome/118.0.0.0 Safari/537.36","Macintosh","Chrome","118.0.0.0","OS X","10_15_7","null","en-US,en;q=0.9,es-ES;q=0.8,es;q=0.7,pt;q=0.6","true","null","","null","","","delay_block","","","","","","0","2",""
"","","","","","html-keyboard-response","57","271247","0.0-39.0-1.0","22","1","2023-10-31 20:14:16","a725c3012b74bf33a1020a98cb69c237","181.29.10.192","Mozilla/5.0 (Macintosh; Intel Mac OS X 10_15_7) AppleWebKit/537.36 (KHTML, like Gecko) Chrome/118.0.0.0 Safari/537.36","Macintosh","Chrome","118.0.0.0","OS X","10_15_7","null","en-US,en;q=0.9,es-ES;q=0.8,es;q=0.7,pt;q=0.6","true","null","<p id=""stimulus"" style=""font-size:100px;"">59</p>","null","","","tone_number_task_remaining_before_delay","","59","","786","100","0","2",""
"","","","","","html-keyboard-response","58","271528","0.0-42.0-0.0","22","1","2023-10-31 20:14:16","a725c3012b74bf33a1020a98cb69c237","181.29.10.192","Mozilla/5.0 (Macintosh; Intel Mac OS X 10_15_7) AppleWebKit/537.36 (KHTML, like Gecko) Chrome/118.0.0.0 Safari/537.36","Macintosh","Chrome","118.0.0.0","OS X","10_15_7","null","en-US,en;q=0.9,es-ES;q=0.8,es;q=0.7,pt;q=0.6","true","277","<p id=""stimulus"" style=""font-size:100px;"">59</p>","k","","","empty_block","","59","","","","0","2",""
"","","","","","html-keyboard-response","59","274229","0.0-43.0","22","1","2023-10-31 20:14:16","a725c3012b74bf33a1020a98cb69c237","181.29.10.192","Mozilla/5.0 (Macintosh; Intel Mac OS X 10_15_7) AppleWebKit/537.36 (KHTML, like Gecko) Chrome/118.0.0.0 Safari/537.36","Macintosh","Chrome","118.0.0.0","OS X","10_15_7","null","en-US,en;q=0.9,es-ES;q=0.8,es;q=0.7,pt;q=0.6","true","null","<div style=""font-size:100px;"">X</div>","null","","","fixation","","","","","","","",""
"","","","","","audio-keyboard-response","60","274490","0.0-44.0","22","1","2023-10-31 20:14:16","a725c3012b74bf33a1020a98cb69c237","181.29.10.192","Mozilla/5.0 (Macintosh; Intel Mac OS X 10_15_7) AppleWebKit/537.36 (KHTML, like Gecko) Chrome/118.0.0.0 Safari/537.36","Macintosh","Chrome","118.0.0.0","OS X","10_15_7","null","en-US,en;q=0.9,es-ES;q=0.8,es;q=0.7,pt;q=0.6","true","null","tones/880hz_short.mp3","null","","","tone_number_task","102.5","29","tones/880hz_short.mp3","252.5","100","0","3",""
"","","","","","html-keyboard-response","61","274602","0.0-47.0-0.0","22","1","2023-10-31 20:14:16","a725c3012b74bf33a1020a98cb69c237","181.29.10.192","Mozilla/5.0 (Macintosh; Intel Mac OS X 10_15_7) AppleWebKit/537.36 (KHTML, like Gecko) Chrome/118.0.0.0 Safari/537.36","Macintosh","Chrome","118.0.0.0","OS X","10_15_7","null","en-US,en;q=0.9,es-ES;q=0.8,es;q=0.7,pt;q=0.6","true","108","tones/880hz_short.mp3","s","","","empty_block","","29","","","","0","3",""
"","","","","","html-keyboard-response","62","274914","0.0-47.0-1.0","22","1","2023-10-31 20:14:16","a725c3012b74bf33a1020a98cb69c237","181.29.10.192","Mozilla/5.0 (Macintosh; Intel Mac OS X 10_15_7) AppleWebKit/537.36 (KHTML, like Gecko) Chrome/118.0.0.0 Safari/537.36","Macintosh","Chrome","118.0.0.0","OS X","10_15_7","null","en-US,en;q=0.9,es-ES;q=0.8,es;q=0.7,pt;q=0.6","true","309","tones/880hz_short.mp3","j","","","empty_block","","29","","","","0","3",""
"","","","","","html-keyboard-response","63","277613","0.0-49.0","22","1","2023-10-31 20:14:16","a725c3012b74bf33a1020a98cb69c237","181.29.10.192","Mozilla/5.0 (Macintosh; Intel Mac OS X 10_15_7) AppleWebKit/537.36 (KHTML, like Gecko) Chrome/118.0.0.0 Safari/537.36","Macintosh","Chrome","118.0.0.0","OS X","10_15_7","null","en-US,en;q=0.9,es-ES;q=0.8,es;q=0.7,pt;q=0.6","true","null","<div style=""font-size:100px;"">X</div>","null","","","fixation","","","","","","","",""
"","","","","","audio-keyboard-response","64","277773","0.0-50.0","22","1","2023-10-31 20:14:16","a725c3012b74bf33a1020a98cb69c237","181.29.10.192","Mozilla/5.0 (Macintosh; Intel Mac OS X 10_15_7) AppleWebKit/537.36 (KHTML, like Gecko) Chrome/118.0.0.0 Safari/537.36","Macintosh","Chrome","118.0.0.0","OS X","10_15_7","null","en-US,en;q=0.9,es-ES;q=0.8,es;q=0.7,pt;q=0.6","true","null","tones/440hz_short.mp3","null","","","tone_number_task","0","59","tones/440hz_short.mp3","150","100","0","4",""
"","","","","","html-keyboard-response","65","278022","0.0-53.0-0.0","22","1","2023-10-31 20:14:16","a725c3012b74bf33a1020a98cb69c237","181.29.10.192","Mozilla/5.0 (Macintosh; Intel Mac OS X 10_15_7) AppleWebKit/537.36 (KHTML, like Gecko) Chrome/118.0.0.0 Safari/537.36","Macintosh","Chrome","118.0.0.0","OS X","10_15_7","null","en-US,en;q=0.9,es-ES;q=0.8,es;q=0.7,pt;q=0.6","true","244","tones/440hz_short.mp3","a","","","empty_block","","59","","","","0","4",""
"","","","","","html-keyboard-response","66","278247","0.0-53.0-1.0","22","1","2023-10-31 20:14:16","a725c3012b74bf33a1020a98cb69c237","181.29.10.192","Mozilla/5.0 (Macintosh; Intel Mac OS X 10_15_7) AppleWebKit/537.36 (KHTML, like Gecko) Chrome/118.0.0.0 Safari/537.36","Macintosh","Chrome","118.0.0.0","OS X","10_15_7","null","en-US,en;q=0.9,es-ES;q=0.8,es;q=0.7,pt;q=0.6","true","221","tones/440hz_short.mp3","k","","","empty_block","","59","","","","0","4",""
"","","","","","html-keyboard-response","67","280946","0.0-55.0","22","1","2023-10-31 20:14:16","a725c3012b74bf33a1020a98cb69c237","181.29.10.192","Mozilla/5.0 (Macintosh; Intel Mac OS X 10_15_7) AppleWebKit/537.36 (KHTML, like Gecko) Chrome/118.0.0.0 Safari/537.36","Macintosh","Chrome","118.0.0.0","OS X","10_15_7","null","en-US,en;q=0.9,es-ES;q=0.8,es;q=0.7,pt;q=0.6","true","null","<div style=""font-size:100px;"">X</div>","null","","","fixation","","","","","","","",""
"","","","","","audio-keyboard-response","68","281457","0.0-56.0","22","1","2023-10-31 20:14:16","a725c3012b74bf33a1020a98cb69c237","181.29.10.192","Mozilla/5.0 (Macintosh; Intel Mac OS X 10_15_7) AppleWebKit/537.36 (KHTML, like Gecko) Chrome/118.0.0.0 Safari/537.36","Macintosh","Chrome","118.0.0.0","OS X","10_15_7","null","en-US,en;q=0.9,es-ES;q=0.8,es;q=0.7,pt;q=0.6","true","507","tones/880hz_short.mp3","s","","","tone_number_task","1025","34","tones/880hz_short.mp3","1175","100","0","5",""
"","","","","","html-keyboard-response","69","281981","0.0-57.0-0.0","22","1","2023-10-31 20:14:16","a725c3012b74bf33a1020a98cb69c237","181.29.10.192","Mozilla/5.0 (Macintosh; Intel Mac OS X 10_15_7) AppleWebKit/537.36 (KHTML, like Gecko) Chrome/118.0.0.0 Safari/537.36","Macintosh","Chrome","118.0.0.0","OS X","10_15_7","null","en-US,en;q=0.9,es-ES;q=0.8,es;q=0.7,pt;q=0.6","true","null","","null","","","delay_block","","","","","","0","5",""
"","","","","","html-keyboard-response","70","282141","0.0-57.0-1.0","22","1","2023-10-31 20:14:16","a725c3012b74bf33a1020a98cb69c237","181.29.10.192","Mozilla/5.0 (Macintosh; Intel Mac OS X 10_15_7) AppleWebKit/537.36 (KHTML, like Gecko) Chrome/118.0.0.0 Safari/537.36","Macintosh","Chrome","118.0.0.0","OS X","10_15_7","null","en-US,en;q=0.9,es-ES;q=0.8,es;q=0.7,pt;q=0.6","true","null","<p id=""stimulus"" style=""font-size:100px;"">34</p>","null","","","tone_number_task_remaining_before_delay","","34","","668","100","0","5",""
"","","","","","html-keyboard-response","71","282537","0.0-60.0-0.0","22","1","2023-10-31 20:14:16","a725c3012b74bf33a1020a98cb69c237","181.29.10.192","Mozilla/5.0 (Macintosh; Intel Mac OS X 10_15_7) AppleWebKit/537.36 (KHTML, like Gecko) Chrome/118.0.0.0 Safari/537.36","Macintosh","Chrome","118.0.0.0","OS X","10_15_7","null","en-US,en;q=0.9,es-ES;q=0.8,es;q=0.7,pt;q=0.6","true","390","<p id=""stimulus"" style=""font-size:100px;"">34</p>","j","","","empty_block","","34","","","","0","5",""
"","","","","","html-keyboard-response","72","285234","0.0-61.0","22","1","2023-10-31 20:14:16","a725c3012b74bf33a1020a98cb69c237","181.29.10.192","Mozilla/5.0 (Macintosh; Intel Mac OS X 10_15_7) AppleWebKit/537.36 (KHTML, like Gecko) Chrome/118.0.0.0 Safari/537.36","Macintosh","Chrome","118.0.0.0","OS X","10_15_7","null","en-US,en;q=0.9,es-ES;q=0.8,es;q=0.7,pt;q=0.6","true","null","<div style=""font-size:100px;"">X</div>","null","","","fixation","","","","","","","",""
"","","","","","audio-keyboard-response","73","285394","0.0-62.0","22","1","2023-10-31 20:14:16","a725c3012b74bf33a1020a98cb69c237","181.29.10.192","Mozilla/5.0 (Macintosh; Intel Mac OS X 10_15_7) AppleWebKit/537.36 (KHTML, like Gecko) Chrome/118.0.0.0 Safari/537.36","Macintosh","Chrome","118.0.0.0","OS X","10_15_7","null","en-US,en;q=0.9,es-ES;q=0.8,es;q=0.7,pt;q=0.6","true","null","tones/880hz_short.mp3","null","","","tone_number_task","0","25","tones/880hz_short.mp3","150","100","0","6",""
"","","","","","html-keyboard-response","74","285658","0.0-65.0-0.0","22","1","2023-10-31 20:14:16","a725c3012b74bf33a1020a98cb69c237","181.29.10.192","Mozilla/5.0 (Macintosh; Intel Mac OS X 10_15_7) AppleWebKit/537.36 (KHTML, like Gecko) Chrome/118.0.0.0 Safari/537.36","Macintosh","Chrome","118.0.0.0","OS X","10_15_7","null","en-US,en;q=0.9,es-ES;q=0.8,es;q=0.7,pt;q=0.6","true","259","tones/880hz_short.mp3","s","","","empty_block","","25","","","","0","6",""
"","","","","","html-keyboard-response","75","285987","0.0-65.0-1.0","22","1","2023-10-31 20:14:16","a725c3012b74bf33a1020a98cb69c237","181.29.10.192","Mozilla/5.0 (Macintosh; Intel Mac OS X 10_15_7) AppleWebKit/537.36 (KHTML, like Gecko) Chrome/118.0.0.0 Safari/537.36","Macintosh","Chrome","118.0.0.0","OS X","10_15_7","null","en-US,en;q=0.9,es-ES;q=0.8,es;q=0.7,pt;q=0.6","true","325","tones/880hz_short.mp3","j","","","empty_block","","25","","","","0","6",""
"","","","","","html-keyboard-response","76","288690","0.0-67.0","22","1","2023-10-31 20:14:16","a725c3012b74bf33a1020a98cb69c237","181.29.10.192","Mozilla/5.0 (Macintosh; Intel Mac OS X 10_15_7) AppleWebKit/537.36 (KHTML, like Gecko) Chrome/118.0.0.0 Safari/537.36","Macintosh","Chrome","118.0.0.0","OS X","10_15_7","null","en-US,en;q=0.9,es-ES;q=0.8,es;q=0.7,pt;q=0.6","true","null","<div style=""font-size:100px;"">X</div>","null","","","fixation","","","","","","","",""
"","","","","","audio-keyboard-response","77","289123","0.0-68.0","22","1","2023-10-31 20:14:16","a725c3012b74bf33a1020a98cb69c237","181.29.10.192","Mozilla/5.0 (Macintosh; Intel Mac OS X 10_15_7) AppleWebKit/537.36 (KHTML, like Gecko) Chrome/118.0.0.0 Safari/537.36","Macintosh","Chrome","118.0.0.0","OS X","10_15_7","null","en-US,en;q=0.9,es-ES;q=0.8,es;q=0.7,pt;q=0.6","true","427","tones/880hz_short.mp3","s","","","tone_number_task","1025","59","tones/880hz_short.mp3","1175","100","0","7",""
"","","","","","html-keyboard-response","78","289728","0.0-69.0-0.0","22","1","2023-10-31 20:14:16","a725c3012b74bf33a1020a98cb69c237","181.29.10.192","Mozilla/5.0 (Macintosh; Intel Mac OS X 10_15_7) AppleWebKit/537.36 (KHTML, like Gecko) Chrome/118.0.0.0 Safari/537.36","Macintosh","Chrome","118.0.0.0","OS X","10_15_7","null","en-US,en;q=0.9,es-ES;q=0.8,es;q=0.7,pt;q=0.6","true","null","","null","","","delay_block","","","","","","0","7",""
"","","","","","html-keyboard-response","79","289888","0.0-69.0-1.0","22","1","2023-10-31 20:14:16","a725c3012b74bf33a1020a98cb69c237","181.29.10.192","Mozilla/5.0 (Macintosh; Intel Mac OS X 10_15_7) AppleWebKit/537.36 (KHTML, like Gecko) Chrome/118.0.0.0 Safari/537.36","Macintosh","Chrome","118.0.0.0","OS X","10_15_7","null","en-US,en;q=0.9,es-ES;q=0.8,es;q=0.7,pt;q=0.6","true","null","<p id=""stimulus"" style=""font-size:100px;"">59</p>","null","","","tone_number_task_remaining_before_delay","","59","","748","100","0","7",""
"","","","","","html-keyboard-response","80","290098","0.0-72.0-0.0","22","1","2023-10-31 20:14:16","a725c3012b74bf33a1020a98cb69c237","181.29.10.192","Mozilla/5.0 (Macintosh; Intel Mac OS X 10_15_7) AppleWebKit/537.36 (KHTML, like Gecko) Chrome/118.0.0.0 Safari/537.36","Macintosh","Chrome","118.0.0.0","OS X","10_15_7","null","en-US,en;q=0.9,es-ES;q=0.8,es;q=0.7,pt;q=0.6","true","205","<p id=""stimulus"" style=""font-size:100px;"">59</p>","k","","","empty_block","","59","","","","0","7",""
"","","","","","html-keyboard-response","81","292796","0.0-73.0","22","1","2023-10-31 20:14:16","a725c3012b74bf33a1020a98cb69c237","181.29.10.192","Mozilla/5.0 (Macintosh; Intel Mac OS X 10_15_7) AppleWebKit/537.36 (KHTML, like Gecko) Chrome/118.0.0.0 Safari/537.36","Macintosh","Chrome","118.0.0.0","OS X","10_15_7","null","en-US,en;q=0.9,es-ES;q=0.8,es;q=0.7,pt;q=0.6","true","null","<div style=""font-size:100px;"">X</div>","null","","","fixation","","","","","","","",""
"","","","","","audio-keyboard-response","82","293158","0.0-74.0","22","1","2023-10-31 20:14:16","a725c3012b74bf33a1020a98cb69c237","181.29.10.192","Mozilla/5.0 (Macintosh; Intel Mac OS X 10_15_7) AppleWebKit/537.36 (KHTML, like Gecko) Chrome/118.0.0.0 Safari/537.36","Macintosh","Chrome","118.0.0.0","OS X","10_15_7","null","en-US,en;q=0.9,es-ES;q=0.8,es;q=0.7,pt;q=0.6","true","357","tones/880hz_short.mp3","s","","","tone_number_task","1025","62","tones/880hz_short.mp3","1175","100","0","8",""
"","","","","","html-keyboard-response","83","293833","0.0-75.0-0.0","22","1","2023-10-31 20:14:16","a725c3012b74bf33a1020a98cb69c237","181.29.10.192","Mozilla/5.0 (Macintosh; Intel Mac OS X 10_15_7) AppleWebKit/537.36 (KHTML, like Gecko) Chrome/118.0.0.0 Safari/537.36","Macintosh","Chrome","118.0.0.0","OS X","10_15_7","null","en-US,en;q=0.9,es-ES;q=0.8,es;q=0.7,pt;q=0.6","true","null","","null","","","delay_block","","","","","","0","8",""
"","","","","","html-keyboard-response","84","293993","0.0-75.0-1.0","22","1","2023-10-31 20:14:16","a725c3012b74bf33a1020a98cb69c237","181.29.10.192","Mozilla/5.0 (Macintosh; Intel Mac OS X 10_15_7) AppleWebKit/537.36 (KHTML, like Gecko) Chrome/118.0.0.0 Safari/537.36","Macintosh","Chrome","118.0.0.0","OS X","10_15_7","null","en-US,en;q=0.9,es-ES;q=0.8,es;q=0.7,pt;q=0.6","true","null","<p id=""stimulus"" style=""font-size:100px;"">62</p>","null","","","tone_number_task_remaining_before_delay","","62","","818","100","0","8",""
"","","","","","html-keyboard-response","85","294253","0.0-78.0-0.0","22","1","2023-10-31 20:14:16","a725c3012b74bf33a1020a98cb69c237","181.29.10.192","Mozilla/5.0 (Macintosh; Intel Mac OS X 10_15_7) AppleWebKit/537.36 (KHTML, like Gecko) Chrome/118.0.0.0 Safari/537.36","Macintosh","Chrome","118.0.0.0","OS X","10_15_7","null","en-US,en;q=0.9,es-ES;q=0.8,es;q=0.7,pt;q=0.6","true","255","<p id=""stimulus"" style=""font-size:100px;"">62</p>","k","","","empty_block","","62","","","","0","8",""
"","","","","","html-keyboard-response","86","296954","0.0-79.0","22","1","2023-10-31 20:14:16","a725c3012b74bf33a1020a98cb69c237","181.29.10.192","Mozilla/5.0 (Macintosh; Intel Mac OS X 10_15_7) AppleWebKit/537.36 (KHTML, like Gecko) Chrome/118.0.0.0 Safari/537.36","Macintosh","Chrome","118.0.0.0","OS X","10_15_7","null","en-US,en;q=0.9,es-ES;q=0.8,es;q=0.7,pt;q=0.6","true","null","<div style=""font-size:100px;"">X</div>","null","","","fixation","","","","","","","",""
"","","","","","audio-keyboard-response","87","297116","0.0-80.0","22","1","2023-10-31 20:14:16","a725c3012b74bf33a1020a98cb69c237","181.29.10.192","Mozilla/5.0 (Macintosh; Intel Mac OS X 10_15_7) AppleWebKit/537.36 (KHTML, like Gecko) Chrome/118.0.0.0 Safari/537.36","Macintosh","Chrome","118.0.0.0","OS X","10_15_7","null","en-US,en;q=0.9,es-ES;q=0.8,es;q=0.7,pt;q=0.6","true","null","tones/440hz_short.mp3","null","","","tone_number_task","0","61","tones/440hz_short.mp3","150","100","0","9",""
"","","","","","html-keyboard-response","88","297403","0.0-83.0-0.0","22","1","2023-10-31 20:14:16","a725c3012b74bf33a1020a98cb69c237","181.29.10.192","Mozilla/5.0 (Macintosh; Intel Mac OS X 10_15_7) AppleWebKit/537.36 (KHTML, like Gecko) Chrome/118.0.0.0 Safari/537.36","Macintosh","Chrome","118.0.0.0","OS X","10_15_7","null","en-US,en;q=0.9,es-ES;q=0.8,es;q=0.7,pt;q=0.6","true","282","tones/440hz_short.mp3","a","","","empty_block","","61","","","","0","9",""
"","","","","","html-keyboard-response","89","297733","0.0-83.0-1.0","22","1","2023-10-31 20:14:16","a725c3012b74bf33a1020a98cb69c237","181.29.10.192","Mozilla/5.0 (Macintosh; Intel Mac OS X 10_15_7) AppleWebKit/537.36 (KHTML, like Gecko) Chrome/118.0.0.0 Safari/537.36","Macintosh","Chrome","118.0.0.0","OS X","10_15_7","null","en-US,en;q=0.9,es-ES;q=0.8,es;q=0.7,pt;q=0.6","true","325","tones/440hz_short.mp3","k","","","empty_block","","61","","","","0","9",""
"","","","","","html-keyboard-response","90","300434","0.0-85.0","22","1","2023-10-31 20:14:16","a725c3012b74bf33a1020a98cb69c237","181.29.10.192","Mozilla/5.0 (Macintosh; Intel Mac OS X 10_15_7) AppleWebKit/537.36 (KHTML, like Gecko) Chrome/118.0.0.0 Safari/537.36","Macintosh","Chrome","118.0.0.0","OS X","10_15_7","null","en-US,en;q=0.9,es-ES;q=0.8,es;q=0.7,pt;q=0.6","true","null","<div style=""font-size:100px;"">X</div>","null","","","fixation","","","","","","","",""
"","","","","","audio-keyboard-response","91","300884","0.0-86.0","22","1","2023-10-31 20:14:16","a725c3012b74bf33a1020a98cb69c237","181.29.10.192","Mozilla/5.0 (Macintosh; Intel Mac OS X 10_15_7) AppleWebKit/537.36 (KHTML, like Gecko) Chrome/118.0.0.0 Safari/537.36","Macintosh","Chrome","118.0.0.0","OS X","10_15_7","null","en-US,en;q=0.9,es-ES;q=0.8,es;q=0.7,pt;q=0.6","true","448","tones/880hz_short.mp3","s","","","tone_number_task","992.5","42","tones/880hz_short.mp3","1142.5","100","0","10",""
"","","","","","html-keyboard-response","92","301435","0.0-87.0-0.0","22","1","2023-10-31 20:14:16","a725c3012b74bf33a1020a98cb69c237","181.29.10.192","Mozilla/5.0 (Macintosh; Intel Mac OS X 10_15_7) AppleWebKit/537.36 (KHTML, like Gecko) Chrome/118.0.0.0 Safari/537.36","Macintosh","Chrome","118.0.0.0","OS X","10_15_7","null","en-US,en;q=0.9,es-ES;q=0.8,es;q=0.7,pt;q=0.6","true","null","","null","","","delay_block","","","","","","0","10",""
"","","","","","html-keyboard-response","93","301596","0.0-87.0-1.0","22","1","2023-10-31 20:14:16","a725c3012b74bf33a1020a98cb69c237","181.29.10.192","Mozilla/5.0 (Macintosh; Intel Mac OS X 10_15_7) AppleWebKit/537.36 (KHTML, like Gecko) Chrome/118.0.0.0 Safari/537.36","Macintosh","Chrome","118.0.0.0","OS X","10_15_7","null","en-US,en;q=0.9,es-ES;q=0.8,es;q=0.7,pt;q=0.6","true","null","<p id=""stimulus"" style=""font-size:100px;"">42</p>","null","","","tone_number_task_remaining_before_delay","","42","","694.5","100","0","10",""
"","","","","","html-keyboard-response","94","301978","0.0-90.0-0.0","22","1","2023-10-31 20:14:16","a725c3012b74bf33a1020a98cb69c237","181.29.10.192","Mozilla/5.0 (Macintosh; Intel Mac OS X 10_15_7) AppleWebKit/537.36 (KHTML, like Gecko) Chrome/118.0.0.0 Safari/537.36","Macintosh","Chrome","118.0.0.0","OS X","10_15_7","null","en-US,en;q=0.9,es-ES;q=0.8,es;q=0.7,pt;q=0.6","true","377","<p id=""stimulus"" style=""font-size:100px;"">42</p>","j","","","empty_block","","42","","","","0","10",""
"","","","","","html-keyboard-response","95","304678","0.0-91.0","22","1","2023-10-31 20:14:16","a725c3012b74bf33a1020a98cb69c237","181.29.10.192","Mozilla/5.0 (Macintosh; Intel Mac OS X 10_15_7) AppleWebKit/537.36 (KHTML, like Gecko) Chrome/118.0.0.0 Safari/537.36","Macintosh","Chrome","118.0.0.0","OS X","10_15_7","null","en-US,en;q=0.9,es-ES;q=0.8,es;q=0.7,pt;q=0.6","true","null","<div style=""font-size:100px;"">X</div>","null","","","fixation","","","","","","","",""
"","","","","","audio-keyboard-response","96","304939","0.0-92.0","22","1","2023-10-31 20:14:16","a725c3012b74bf33a1020a98cb69c237","181.29.10.192","Mozilla/5.0 (Macintosh; Intel Mac OS X 10_15_7) AppleWebKit/537.36 (KHTML, like Gecko) Chrome/118.0.0.0 Safari/537.36","Macintosh","Chrome","118.0.0.0","OS X","10_15_7","null","en-US,en;q=0.9,es-ES;q=0.8,es;q=0.7,pt;q=0.6","true","null","tones/880hz_short.mp3","null","","","tone_number_task","102.5","60","tones/880hz_short.mp3","252.5","100","0","11",""
"","","","","","html-keyboard-response","97","305697","0.0-95.0-0.0","22","1","2023-10-31 20:14:16","a725c3012b74bf33a1020a98cb69c237","181.29.10.192","Mozilla/5.0 (Macintosh; Intel Mac OS X 10_15_7) AppleWebKit/537.36 (KHTML, like Gecko) Chrome/118.0.0.0 Safari/537.36","Macintosh","Chrome","118.0.0.0","OS X","10_15_7","null","en-US,en;q=0.9,es-ES;q=0.8,es;q=0.7,pt;q=0.6","true","754","tones/880hz_short.mp3","s","","","empty_block","","60","","","","0","11",""
"","","","","","html-keyboard-response","98","305936","0.0-95.0-1.0","22","1","2023-10-31 20:14:16","a725c3012b74bf33a1020a98cb69c237","181.29.10.192","Mozilla/5.0 (Macintosh; Intel Mac OS X 10_15_7) AppleWebKit/537.36 (KHTML, like Gecko) Chrome/118.0.0.0 Safari/537.36","Macintosh","Chrome","118.0.0.0","OS X","10_15_7","null","en-US,en;q=0.9,es-ES;q=0.8,es;q=0.7,pt;q=0.6","true","234","tones/880hz_short.mp3","k","","","empty_block","","60","","","","0","11",""
"","","","","","html-keyboard-response","99","308634","0.0-97.0","22","1","2023-10-31 20:14:16","a725c3012b74bf33a1020a98cb69c237","181.29.10.192","Mozilla/5.0 (Macintosh; Intel Mac OS X 10_15_7) AppleWebKit/537.36 (KHTML, like Gecko) Chrome/118.0.0.0 Safari/537.36","Macintosh","Chrome","118.0.0.0","OS X","10_15_7","null","en-US,en;q=0.9,es-ES;q=0.8,es;q=0.7,pt;q=0.6","true","null","<div style=""font-size:100px;"">X</div>","null","","","fixation","","","","","","","",""
"","","","","","audio-keyboard-response","100","309178","0.0-98.0","22","1","2023-10-31 20:14:16","a725c3012b74bf33a1020a98cb69c237","181.29.10.192","Mozilla/5.0 (Macintosh; Intel Mac OS X 10_15_7) AppleWebKit/537.36 (KHTML, like Gecko) Chrome/118.0.0.0 Safari/537.36","Macintosh","Chrome","118.0.0.0","OS X","10_15_7","null","en-US,en;q=0.9,es-ES;q=0.8,es;q=0.7,pt;q=0.6","true","539","tones/440hz_short.mp3","a","","","tone_number_task","992.5","23","tones/440hz_short.mp3","1142.5","100","0","12",""
"","","","","","html-keyboard-response","101","309636","0.0-99.0-0.0","22","1","2023-10-31 20:14:16","a725c3012b74bf33a1020a98cb69c237","181.29.10.192","Mozilla/5.0 (Macintosh; Intel Mac OS X 10_15_7) AppleWebKit/537.36 (KHTML, like Gecko) Chrome/118.0.0.0 Safari/537.36","Macintosh","Chrome","118.0.0.0","OS X","10_15_7","null","en-US,en;q=0.9,es-ES;q=0.8,es;q=0.7,pt;q=0.6","true","null","","null","","","delay_block","","","","","","0","12",""
"","","","","","html-keyboard-response","102","309793","0.0-99.0-1.0","22","1","2023-10-31 20:14:16","a725c3012b74bf33a1020a98cb69c237","181.29.10.192","Mozilla/5.0 (Macintosh; Intel Mac OS X 10_15_7) AppleWebKit/537.36 (KHTML, like Gecko) Chrome/118.0.0.0 Safari/537.36","Macintosh","Chrome","118.0.0.0","OS X","10_15_7","null","en-US,en;q=0.9,es-ES;q=0.8,es;q=0.7,pt;q=0.6","true","null","<p id=""stimulus"" style=""font-size:100px;"">23</p>","null","","","tone_number_task_remaining_before_delay","","23","","603.5","100","0","12",""
"","","","","","html-keyboard-response","103","310109","0.0-102.0-0.0","22","1","2023-10-31 20:14:16","a725c3012b74bf33a1020a98cb69c237","181.29.10.192","Mozilla/5.0 (Macintosh; Intel Mac OS X 10_15_7) AppleWebKit/537.36 (KHTML, like Gecko) Chrome/118.0.0.0 Safari/537.36","Macintosh","Chrome","118.0.0.0","OS X","10_15_7","null","en-US,en;q=0.9,es-ES;q=0.8,es;q=0.7,pt;q=0.6","true","310","<p id=""stimulus"" style=""font-size:100px;"">23</p>","j","","","empty_block","","23","","","","0","12",""
"","","","","","html-keyboard-response","104","312811","0.0-103.0","22","1","2023-10-31 20:14:16","a725c3012b74bf33a1020a98cb69c237","181.29.10.192","Mozilla/5.0 (Macintosh; Intel Mac OS X 10_15_7) AppleWebKit/537.36 (KHTML, like Gecko) Chrome/118.0.0.0 Safari/537.36","Macintosh","Chrome","118.0.0.0","OS X","10_15_7","null","en-US,en;q=0.9,es-ES;q=0.8,es;q=0.7,pt;q=0.6","true","null","<div style=""font-size:100px;"">X</div>","null","","","fixation","","","","","","","",""
"","","","","","audio-keyboard-response","105","312973","0.0-104.0","22","1","2023-10-31 20:14:16","a725c3012b74bf33a1020a98cb69c237","181.29.10.192","Mozilla/5.0 (Macintosh; Intel Mac OS X 10_15_7) AppleWebKit/537.36 (KHTML, like Gecko) Chrome/118.0.0.0 Safari/537.36","Macintosh","Chrome","118.0.0.0","OS X","10_15_7","null","en-US,en;q=0.9,es-ES;q=0.8,es;q=0.7,pt;q=0.6","true","null","tones/440hz_short.mp3","null","","","tone_number_task","0","36","tones/440hz_short.mp3","150","100","0","13",""
"","","","","","html-keyboard-response","106","313394","0.0-107.0-0.0","22","1","2023-10-31 20:14:16","a725c3012b74bf33a1020a98cb69c237","181.29.10.192","Mozilla/5.0 (Macintosh; Intel Mac OS X 10_15_7) AppleWebKit/537.36 (KHTML, like Gecko) Chrome/118.0.0.0 Safari/537.36","Macintosh","Chrome","118.0.0.0","OS X","10_15_7","null","en-US,en;q=0.9,es-ES;q=0.8,es;q=0.7,pt;q=0.6","true","414","tones/440hz_short.mp3","a","","","empty_block","","36","","","","0","13",""
"","","","","","html-keyboard-response","107","313724","0.0-107.0-1.0","22","1","2023-10-31 20:14:16","a725c3012b74bf33a1020a98cb69c237","181.29.10.192","Mozilla/5.0 (Macintosh; Intel Mac OS X 10_15_7) AppleWebKit/537.36 (KHTML, like Gecko) Chrome/118.0.0.0 Safari/537.36","Macintosh","Chrome","118.0.0.0","OS X","10_15_7","null","en-US,en;q=0.9,es-ES;q=0.8,es;q=0.7,pt;q=0.6","true","325","tones/440hz_short.mp3","j","","","empty_block","","36","","","","0","13",""
"","","","","","html-keyboard-response","108","316423","0.0-109.0","22","1","2023-10-31 20:14:16","a725c3012b74bf33a1020a98cb69c237","181.29.10.192","Mozilla/5.0 (Macintosh; Intel Mac OS X 10_15_7) AppleWebKit/537.36 (KHTML, like Gecko) Chrome/118.0.0.0 Safari/537.36","Macintosh","Chrome","118.0.0.0","OS X","10_15_7","null","en-US,en;q=0.9,es-ES;q=0.8,es;q=0.7,pt;q=0.6","true","null","<div style=""font-size:100px;"">X</div>","null","","","fixation","","","","","","","",""
"","","","","","audio-keyboard-response","109","316874","0.0-110.0","22","1","2023-10-31 20:14:16","a725c3012b74bf33a1020a98cb69c237","181.29.10.192","Mozilla/5.0 (Macintosh; Intel Mac OS X 10_15_7) AppleWebKit/537.36 (KHTML, like Gecko) Chrome/118.0.0.0 Safari/537.36","Macintosh","Chrome","118.0.0.0","OS X","10_15_7","null","en-US,en;q=0.9,es-ES;q=0.8,es;q=0.7,pt;q=0.6","true","448","tones/880hz_short.mp3","s","","","tone_number_task","992.5","55","tones/880hz_short.mp3","1142.5","100","0","14",""
"","","","","","html-keyboard-response","110","317425","0.0-111.0-0.0","22","1","2023-10-31 20:14:16","a725c3012b74bf33a1020a98cb69c237","181.29.10.192","Mozilla/5.0 (Macintosh; Intel Mac OS X 10_15_7) AppleWebKit/537.36 (KHTML, like Gecko) Chrome/118.0.0.0 Safari/537.36","Macintosh","Chrome","118.0.0.0","OS X","10_15_7","null","en-US,en;q=0.9,es-ES;q=0.8,es;q=0.7,pt;q=0.6","true","null","","null","","","delay_block","","","","","","0","14",""
"","","","","","html-keyboard-response","111","317585","0.0-111.0-1.0","22","1","2023-10-31 20:14:16","a725c3012b74bf33a1020a98cb69c237","181.29.10.192","Mozilla/5.0 (Macintosh; Intel Mac OS X 10_15_7) AppleWebKit/537.36 (KHTML, like Gecko) Chrome/118.0.0.0 Safari/537.36","Macintosh","Chrome","118.0.0.0","OS X","10_15_7","null","en-US,en;q=0.9,es-ES;q=0.8,es;q=0.7,pt;q=0.6","true","null","<p id=""stimulus"" style=""font-size:100px;"">55</p>","null","","","tone_number_task_remaining_before_delay","","55","","694.5","100","0","14",""
"","","","","","html-keyboard-response","112","317789","0.0-114.0-0.0","22","1","2023-10-31 20:14:16","a725c3012b74bf33a1020a98cb69c237","181.29.10.192","Mozilla/5.0 (Macintosh; Intel Mac OS X 10_15_7) AppleWebKit/537.36 (KHTML, like Gecko) Chrome/118.0.0.0 Safari/537.36","Macintosh","Chrome","118.0.0.0","OS X","10_15_7","null","en-US,en;q=0.9,es-ES;q=0.8,es;q=0.7,pt;q=0.6","true","199","<p id=""stimulus"" style=""font-size:100px;"">55</p>","k","","","empty_block","","55","","","","0","14",""
"","","","","","html-keyboard-response","113","320492","0.0-115.0","22","1","2023-10-31 20:14:16","a725c3012b74bf33a1020a98cb69c237","181.29.10.192","Mozilla/5.0 (Macintosh; Intel Mac OS X 10_15_7) AppleWebKit/537.36 (KHTML, like Gecko) Chrome/118.0.0.0 Safari/537.36","Macintosh","Chrome","118.0.0.0","OS X","10_15_7","null","en-US,en;q=0.9,es-ES;q=0.8,es;q=0.7,pt;q=0.6","true","null","<div style=""font-size:100px;"">X</div>","null","","","fixation","","","","","","","",""
"","","","","","audio-keyboard-response","114","320925","0.0-116.0","22","1","2023-10-31 20:14:16","a725c3012b74bf33a1020a98cb69c237","181.29.10.192","Mozilla/5.0 (Macintosh; Intel Mac OS X 10_15_7) AppleWebKit/537.36 (KHTML, like Gecko) Chrome/118.0.0.0 Safari/537.36","Macintosh","Chrome","118.0.0.0","OS X","10_15_7","null","en-US,en;q=0.9,es-ES;q=0.8,es;q=0.7,pt;q=0.6","true","427","tones/440hz_short.mp3","a","","","tone_number_task","1025","64","tones/440hz_short.mp3","1175","100","0","15",""
"","","","","","html-keyboard-response","115","321530","0.0-117.0-0.0","22","1","2023-10-31 20:14:16","a725c3012b74bf33a1020a98cb69c237","181.29.10.192","Mozilla/5.0 (Macintosh; Intel Mac OS X 10_15_7) AppleWebKit/537.36 (KHTML, like Gecko) Chrome/118.0.0.0 Safari/537.36","Macintosh","Chrome","118.0.0.0","OS X","10_15_7","null","en-US,en;q=0.9,es-ES;q=0.8,es;q=0.7,pt;q=0.6","true","null","","null","","","delay_block","","","","","","0","15",""
"","","","","","html-keyboard-response","116","321691","0.0-117.0-1.0","22","1","2023-10-31 20:14:16","a725c3012b74bf33a1020a98cb69c237","181.29.10.192","Mozilla/5.0 (Macintosh; Intel Mac OS X 10_15_7) AppleWebKit/537.36 (KHTML, like Gecko) Chrome/118.0.0.0 Safari/537.36","Macintosh","Chrome","118.0.0.0","OS X","10_15_7","null","en-US,en;q=0.9,es-ES;q=0.8,es;q=0.7,pt;q=0.6","true","null","<p id=""stimulus"" style=""font-size:100px;"">64</p>","null","","","tone_number_task_remaining_before_delay","","64","","748","100","0","15",""
"","","","","","html-keyboard-response","117","321914","0.0-120.0-0.0","22","1","2023-10-31 20:14:16","a725c3012b74bf33a1020a98cb69c237","181.29.10.192","Mozilla/5.0 (Macintosh; Intel Mac OS X 10_15_7) AppleWebKit/537.36 (KHTML, like Gecko) Chrome/118.0.0.0 Safari/537.36","Macintosh","Chrome","118.0.0.0","OS X","10_15_7","null","en-US,en;q=0.9,es-ES;q=0.8,es;q=0.7,pt;q=0.6","true","216","<p id=""stimulus"" style=""font-size:100px;"">64</p>","k","","","empty_block","","64","","","","0","15",""
"","","","","","html-keyboard-response","118","324615","0.0-121.0","22","1","2023-10-31 20:14:16","a725c3012b74bf33a1020a98cb69c237","181.29.10.192","Mozilla/5.0 (Macintosh; Intel Mac OS X 10_15_7) AppleWebKit/537.36 (KHTML, like Gecko) Chrome/118.0.0.0 Safari/537.36","Macintosh","Chrome","118.0.0.0","OS X","10_15_7","null","en-US,en;q=0.9,es-ES;q=0.8,es;q=0.7,pt;q=0.6","true","null","<div style=""font-size:100px;"">X</div>","null","","","fixation","","","","","","","",""
"","","","","","audio-keyboard-response","119","325214","0.0-122.0","22","1","2023-10-31 20:14:16","a725c3012b74bf33a1020a98cb69c237","181.29.10.192","Mozilla/5.0 (Macintosh; Intel Mac OS X 10_15_7) AppleWebKit/537.36 (KHTML, like Gecko) Chrome/118.0.0.0 Safari/537.36","Macintosh","Chrome","118.0.0.0","OS X","10_15_7","null","en-US,en;q=0.9,es-ES;q=0.8,es;q=0.7,pt;q=0.6","true","592","tones/440hz_short.mp3","a","","","tone_number_task","992.5","34","tones/440hz_short.mp3","1142.5","100","0","16",""
"","","","","","html-keyboard-response","120","325622","0.0-123.0-0.0","22","1","2023-10-31 20:14:16","a725c3012b74bf33a1020a98cb69c237","181.29.10.192","Mozilla/5.0 (Macintosh; Intel Mac OS X 10_15_7) AppleWebKit/537.36 (KHTML, like Gecko) Chrome/118.0.0.0 Safari/537.36","Macintosh","Chrome","118.0.0.0","OS X","10_15_7","null","en-US,en;q=0.9,es-ES;q=0.8,es;q=0.7,pt;q=0.6","true","null","","null","","","delay_block","","","","","","0","16",""
"","","","","","html-keyboard-response","121","325781","0.0-123.0-1.0","22","1","2023-10-31 20:14:16","a725c3012b74bf33a1020a98cb69c237","181.29.10.192","Mozilla/5.0 (Macintosh; Intel Mac OS X 10_15_7) AppleWebKit/537.36 (KHTML, like Gecko) Chrome/118.0.0.0 Safari/537.36","Macintosh","Chrome","118.0.0.0","OS X","10_15_7","null","en-US,en;q=0.9,es-ES;q=0.8,es;q=0.7,pt;q=0.6","true","null","<p id=""stimulus"" style=""font-size:100px;"">34</p>","null","","","tone_number_task_remaining_before_delay","","34","","550.5","100","0","16",""
"","","","","","html-keyboard-response","122","326099","0.0-126.0-0.0","22","1","2023-10-31 20:14:16","a725c3012b74bf33a1020a98cb69c237","181.29.10.192","Mozilla/5.0 (Macintosh; Intel Mac OS X 10_15_7) AppleWebKit/537.36 (KHTML, like Gecko) Chrome/118.0.0.0 Safari/537.36","Macintosh","Chrome","118.0.0.0","OS X","10_15_7","null","en-US,en;q=0.9,es-ES;q=0.8,es;q=0.7,pt;q=0.6","true","311","<p id=""stimulus"" style=""font-size:100px;"">34</p>","j","","","empty_block","","34","","","","0","16",""
"","","","","","html-keyboard-response","123","328801","0.0-127.0","22","1","2023-10-31 20:14:16","a725c3012b74bf33a1020a98cb69c237","181.29.10.192","Mozilla/5.0 (Macintosh; Intel Mac OS X 10_15_7) AppleWebKit/537.36 (KHTML, like Gecko) Chrome/118.0.0.0 Safari/537.36","Macintosh","Chrome","118.0.0.0","OS X","10_15_7","null","en-US,en;q=0.9,es-ES;q=0.8,es;q=0.7,pt;q=0.6","true","null","<div style=""font-size:100px;"">X</div>","null","","","fixation","","","","","","","",""
"","","","","","audio-keyboard-response","124","329384","0.0-128.0","22","1","2023-10-31 20:14:16","a725c3012b74bf33a1020a98cb69c237","181.29.10.192","Mozilla/5.0 (Macintosh; Intel Mac OS X 10_15_7) AppleWebKit/537.36 (KHTML, like Gecko) Chrome/118.0.0.0 Safari/537.36","Macintosh","Chrome","118.0.0.0","OS X","10_15_7","null","en-US,en;q=0.9,es-ES;q=0.8,es;q=0.7,pt;q=0.6","true","576","tones/440hz_short.mp3","a","","","tone_number_task","992.5","43","tones/440hz_short.mp3","1142.5","100","0","17",""
"","","","","","html-keyboard-response","125","329807","0.0-129.0-0.0","22","1","2023-10-31 20:14:16","a725c3012b74bf33a1020a98cb69c237","181.29.10.192","Mozilla/5.0 (Macintosh; Intel Mac OS X 10_15_7) AppleWebKit/537.36 (KHTML, like Gecko) Chrome/118.0.0.0 Safari/537.36","Macintosh","Chrome","118.0.0.0","OS X","10_15_7","null","en-US,en;q=0.9,es-ES;q=0.8,es;q=0.7,pt;q=0.6","true","null","","null","","","delay_block","","","","","","0","17",""
"","","","","","html-keyboard-response","126","329966","0.0-129.0-1.0","22","1","2023-10-31 20:14:16","a725c3012b74bf33a1020a98cb69c237","181.29.10.192","Mozilla/5.0 (Macintosh; Intel Mac OS X 10_15_7) AppleWebKit/537.36 (KHTML, like Gecko) Chrome/118.0.0.0 Safari/537.36","Macintosh","Chrome","118.0.0.0","OS X","10_15_7","null","en-US,en;q=0.9,es-ES;q=0.8,es;q=0.7,pt;q=0.6","true","null","<p id=""stimulus"" style=""font-size:100px;"">43</p>","null","","","tone_number_task_remaining_before_delay","","43","","566.5","100","0","17",""
"","","","","","html-keyboard-response","127","330209","0.0-132.0-0.0","22","1","2023-10-31 20:14:16","a725c3012b74bf33a1020a98cb69c237","181.29.10.192","Mozilla/5.0 (Macintosh; Intel Mac OS X 10_15_7) AppleWebKit/537.36 (KHTML, like Gecko) Chrome/118.0.0.0 Safari/537.36","Macintosh","Chrome","118.0.0.0","OS X","10_15_7","null","en-US,en;q=0.9,es-ES;q=0.8,es;q=0.7,pt;q=0.6","true","237","<p id=""stimulus"" style=""font-size:100px;"">43</p>","k","","","empty_block","","43","","","","0","17",""
"","","","","","html-keyboard-response","128","332912","0.0-133.0","22","1","2023-10-31 20:14:16","a725c3012b74bf33a1020a98cb69c237","181.29.10.192","Mozilla/5.0 (Macintosh; Intel Mac OS X 10_15_7) AppleWebKit/537.36 (KHTML, like Gecko) Chrome/118.0.0.0 Safari/537.36","Macintosh","Chrome","118.0.0.0","OS X","10_15_7","null","en-US,en;q=0.9,es-ES;q=0.8,es;q=0.7,pt;q=0.6","true","null","<div style=""font-size:100px;"">X</div>","null","","","fixation","","","","","","","",""
"","","","","","audio-keyboard-response","129","333073","0.0-134.0","22","1","2023-10-31 20:14:16","a725c3012b74bf33a1020a98cb69c237","181.29.10.192","Mozilla/5.0 (Macintosh; Intel Mac OS X 10_15_7) AppleWebKit/537.36 (KHTML, like Gecko) Chrome/118.0.0.0 Safari/537.36","Macintosh","Chrome","118.0.0.0","OS X","10_15_7","null","en-US,en;q=0.9,es-ES;q=0.8,es;q=0.7,pt;q=0.6","true","null","tones/880hz_short.mp3","null","","","tone_number_task","0","35","tones/880hz_short.mp3","150","100","0","18",""
"","","","","","html-keyboard-response","130","334285","0.0-137.0-0.0","22","1","2023-10-31 20:14:16","a725c3012b74bf33a1020a98cb69c237","181.29.10.192","Mozilla/5.0 (Macintosh; Intel Mac OS X 10_15_7) AppleWebKit/537.36 (KHTML, like Gecko) Chrome/118.0.0.0 Safari/537.36","Macintosh","Chrome","118.0.0.0","OS X","10_15_7","null","en-US,en;q=0.9,es-ES;q=0.8,es;q=0.7,pt;q=0.6","true","null","tones/880hz_short.mp3","null","","","empty_block","","35","","","","0","18",""
"","","","","","html-keyboard-response","131","334574","0.0-137.0-1.0","22","1","2023-10-31 20:14:16","a725c3012b74bf33a1020a98cb69c237","181.29.10.192","Mozilla/5.0 (Macintosh; Intel Mac OS X 10_15_7) AppleWebKit/537.36 (KHTML, like Gecko) Chrome/118.0.0.0 Safari/537.36","Macintosh","Chrome","118.0.0.0","OS X","10_15_7","null","en-US,en;q=0.9,es-ES;q=0.8,es;q=0.7,pt;q=0.6","true","283","tones/880hz_short.mp3","s","","","empty_block","","35","","","","0","18",""
"","","","","","html-keyboard-response","132","337275","0.0-139.0","22","1","2023-10-31 20:14:16","a725c3012b74bf33a1020a98cb69c237","181.29.10.192","Mozilla/5.0 (Macintosh; Intel Mac OS X 10_15_7) AppleWebKit/537.36 (KHTML, like Gecko) Chrome/118.0.0.0 Safari/537.36","Macintosh","Chrome","118.0.0.0","OS X","10_15_7","null","en-US,en;q=0.9,es-ES;q=0.8,es;q=0.7,pt;q=0.6","true","null","<div style=""font-size:100px;"">X</div>","null","","","fixation","","","","","","","",""
"","","","","","audio-keyboard-response","133","337535","0.0-140.0","22","1","2023-10-31 20:14:16","a725c3012b74bf33a1020a98cb69c237","181.29.10.192","Mozilla/5.0 (Macintosh; Intel Mac OS X 10_15_7) AppleWebKit/537.36 (KHTML, like Gecko) Chrome/118.0.0.0 Safari/537.36","Macintosh","Chrome","118.0.0.0","OS X","10_15_7","null","en-US,en;q=0.9,es-ES;q=0.8,es;q=0.7,pt;q=0.6","true","null","tones/440hz_short.mp3","null","","","tone_number_task","102.5","54","tones/440hz_short.mp3","252.5","100","0","19",""
"","","","","","html-keyboard-response","134","337814","0.0-143.0-0.0","22","1","2023-10-31 20:14:16","a725c3012b74bf33a1020a98cb69c237","181.29.10.192","Mozilla/5.0 (Macintosh; Intel Mac OS X 10_15_7) AppleWebKit/537.36 (KHTML, like Gecko) Chrome/118.0.0.0 Safari/537.36","Macintosh","Chrome","118.0.0.0","OS X","10_15_7","null","en-US,en;q=0.9,es-ES;q=0.8,es;q=0.7,pt;q=0.6","true","272","tones/440hz_short.mp3","a","","","empty_block","","54","","","","0","19",""
"","","","","","html-keyboard-response","135","338204","0.0-143.0-1.0","22","1","2023-10-31 20:14:16","a725c3012b74bf33a1020a98cb69c237","181.29.10.192","Mozilla/5.0 (Macintosh; Intel Mac OS X 10_15_7) AppleWebKit/537.36 (KHTML, like Gecko) Chrome/118.0.0.0 Safari/537.36","Macintosh","Chrome","118.0.0.0","OS X","10_15_7","null","en-US,en;q=0.9,es-ES;q=0.8,es;q=0.7,pt;q=0.6","true","385","tones/440hz_short.mp3","k","","","empty_block","","54","","","","0","19",""
"","","","","","html-keyboard-response","136","340905","0.0-145.0","22","1","2023-10-31 20:14:16","a725c3012b74bf33a1020a98cb69c237","181.29.10.192","Mozilla/5.0 (Macintosh; Intel Mac OS X 10_15_7) AppleWebKit/537.36 (KHTML, like Gecko) Chrome/118.0.0.0 Safari/537.36","Macintosh","Chrome","118.0.0.0","OS X","10_15_7","null","en-US,en;q=0.9,es-ES;q=0.8,es;q=0.7,pt;q=0.6","true","null","<div style=""font-size:100px;"">X</div>","null","","","fixation","","","","","","","",""
"","","","","","audio-keyboard-response","137","341068","0.0-146.0","22","1","2023-10-31 20:14:16","a725c3012b74bf33a1020a98cb69c237","181.29.10.192","Mozilla/5.0 (Macintosh; Intel Mac OS X 10_15_7) AppleWebKit/537.36 (KHTML, like Gecko) Chrome/118.0.0.0 Safari/537.36","Macintosh","Chrome","118.0.0.0","OS X","10_15_7","null","en-US,en;q=0.9,es-ES;q=0.8,es;q=0.7,pt;q=0.6","true","null","tones/880hz_short.mp3","null","","","tone_number_task","0","55","tones/880hz_short.mp3","150","100","0","20",""
"","","","","","html-keyboard-response","138","341323","0.0-149.0-0.0","22","1","2023-10-31 20:14:16","a725c3012b74bf33a1020a98cb69c237","181.29.10.192","Mozilla/5.0 (Macintosh; Intel Mac OS X 10_15_7) AppleWebKit/537.36 (KHTML, like Gecko) Chrome/118.0.0.0 Safari/537.36","Macintosh","Chrome","118.0.0.0","OS X","10_15_7","null","en-US,en;q=0.9,es-ES;q=0.8,es;q=0.7,pt;q=0.6","true","248","tones/880hz_short.mp3","s","","","empty_block","","55","","","","0","20",""
"","","","","","html-keyboard-response","139","341621","0.0-149.0-1.0","22","1","2023-10-31 20:14:16","a725c3012b74bf33a1020a98cb69c237","181.29.10.192","Mozilla/5.0 (Macintosh; Intel Mac OS X 10_15_7) AppleWebKit/537.36 (KHTML, like Gecko) Chrome/118.0.0.0 Safari/537.36","Macintosh","Chrome","118.0.0.0","OS X","10_15_7","null","en-US,en;q=0.9,es-ES;q=0.8,es;q=0.7,pt;q=0.6","true","294","tones/880hz_short.mp3","k","","","empty_block","","55","","","","0","20",""
"","","","","","html-keyboard-response","140","344322","0.0-151.0","22","1","2023-10-31 20:14:16","a725c3012b74bf33a1020a98cb69c237","181.29.10.192","Mozilla/5.0 (Macintosh; Intel Mac OS X 10_15_7) AppleWebKit/537.36 (KHTML, like Gecko) Chrome/118.0.0.0 Safari/537.36","Macintosh","Chrome","118.0.0.0","OS X","10_15_7","null","en-US,en;q=0.9,es-ES;q=0.8,es;q=0.7,pt;q=0.6","true","null","<div style=""font-size:100px;"">X</div>","null","","","fixation","","","","","","","",""
"","","","","","audio-keyboard-response","141","344862","0.0-152.0","22","1","2023-10-31 20:14:16","a725c3012b74bf33a1020a98cb69c237","181.29.10.192","Mozilla/5.0 (Macintosh; Intel Mac OS X 10_15_7) AppleWebKit/537.36 (KHTML, like Gecko) Chrome/118.0.0.0 Safari/537.36","Macintosh","Chrome","118.0.0.0","OS X","10_15_7","null","en-US,en;q=0.9,es-ES;q=0.8,es;q=0.7,pt;q=0.6","true","533","tones/880hz_short.mp3","s","","","tone_number_task","992.5","58","tones/880hz_short.mp3","1142.5","100","0","21",""
"","","","","","html-keyboard-response","142","345326","0.0-153.0-0.0","22","1","2023-10-31 20:14:16","a725c3012b74bf33a1020a98cb69c237","181.29.10.192","Mozilla/5.0 (Macintosh; Intel Mac OS X 10_15_7) AppleWebKit/537.36 (KHTML, like Gecko) Chrome/118.0.0.0 Safari/537.36","Macintosh","Chrome","118.0.0.0","OS X","10_15_7","null","en-US,en;q=0.9,es-ES;q=0.8,es;q=0.7,pt;q=0.6","true","null","","null","","","delay_block","","","","","","0","21",""
"","","","","","html-keyboard-response","143","345484","0.0-153.0-1.0","22","1","2023-10-31 20:14:16","a725c3012b74bf33a1020a98cb69c237","181.29.10.192","Mozilla/5.0 (Macintosh; Intel Mac OS X 10_15_7) AppleWebKit/537.36 (KHTML, like Gecko) Chrome/118.0.0.0 Safari/537.36","Macintosh","Chrome","118.0.0.0","OS X","10_15_7","null","en-US,en;q=0.9,es-ES;q=0.8,es;q=0.7,pt;q=0.6","true","null","<p id=""stimulus"" style=""font-size:100px;"">58</p>","null","","","tone_number_task_remaining_before_delay","","58","","609.5","100","0","21",""
"","","","","","html-keyboard-response","144","345720","0.0-156.0-0.0","22","1","2023-10-31 20:14:16","a725c3012b74bf33a1020a98cb69c237","181.29.10.192","Mozilla/5.0 (Macintosh; Intel Mac OS X 10_15_7) AppleWebKit/537.36 (KHTML, like Gecko) Chrome/118.0.0.0 Safari/537.36","Macintosh","Chrome","118.0.0.0","OS X","10_15_7","null","en-US,en;q=0.9,es-ES;q=0.8,es;q=0.7,pt;q=0.6","true","229","<p id=""stimulus"" style=""font-size:100px;"">58</p>","k","","","empty_block","","58","","","","0","21",""
"","","","","","html-keyboard-response","145","348424","0.0-157.0","22","1","2023-10-31 20:14:16","a725c3012b74bf33a1020a98cb69c237","181.29.10.192","Mozilla/5.0 (Macintosh; Intel Mac OS X 10_15_7) AppleWebKit/537.36 (KHTML, like Gecko) Chrome/118.0.0.0 Safari/537.36","Macintosh","Chrome","118.0.0.0","OS X","10_15_7","null","en-US,en;q=0.9,es-ES;q=0.8,es;q=0.7,pt;q=0.6","true","null","<div style=""font-size:100px;"">X</div>","null","","","fixation","","","","","","","",""
"","","","","","audio-keyboard-response","146","348687","0.0-158.0","22","1","2023-10-31 20:14:16","a725c3012b74bf33a1020a98cb69c237","181.29.10.192","Mozilla/5.0 (Macintosh; Intel Mac OS X 10_15_7) AppleWebKit/537.36 (KHTML, like Gecko) Chrome/118.0.0.0 Safari/537.36","Macintosh","Chrome","118.0.0.0","OS X","10_15_7","null","en-US,en;q=0.9,es-ES;q=0.8,es;q=0.7,pt;q=0.6","true","null","tones/440hz_short.mp3","null","","","tone_number_task","102.5","42","tones/440hz_short.mp3","252.5","100","0","22",""
"","","","","","html-keyboard-response","147","348869","0.0-161.0-0.0","22","1","2023-10-31 20:14:16","a725c3012b74bf33a1020a98cb69c237","181.29.10.192","Mozilla/5.0 (Macintosh; Intel Mac OS X 10_15_7) AppleWebKit/537.36 (KHTML, like Gecko) Chrome/118.0.0.0 Safari/537.36","Macintosh","Chrome","118.0.0.0","OS X","10_15_7","null","en-US,en;q=0.9,es-ES;q=0.8,es;q=0.7,pt;q=0.6","true","175","tones/440hz_short.mp3","a","","","empty_block","","42","","","","0","22",""
"","","","","","html-keyboard-response","148","349182","0.0-161.0-1.0","22","1","2023-10-31 20:14:16","a725c3012b74bf33a1020a98cb69c237","181.29.10.192","Mozilla/5.0 (Macintosh; Intel Mac OS X 10_15_7) AppleWebKit/537.36 (KHTML, like Gecko) Chrome/118.0.0.0 Safari/537.36","Macintosh","Chrome","118.0.0.0","OS X","10_15_7","null","en-US,en;q=0.9,es-ES;q=0.8,es;q=0.7,pt;q=0.6","true","308","tones/440hz_short.mp3","j","","","empty_block","","42","","","","0","22",""
"","","","","","html-keyboard-response","149","351884","0.0-163.0","22","1","2023-10-31 20:14:16","a725c3012b74bf33a1020a98cb69c237","181.29.10.192","Mozilla/5.0 (Macintosh; Intel Mac OS X 10_15_7) AppleWebKit/537.36 (KHTML, like Gecko) Chrome/118.0.0.0 Safari/537.36","Macintosh","Chrome","118.0.0.0","OS X","10_15_7","null","en-US,en;q=0.9,es-ES;q=0.8,es;q=0.7,pt;q=0.6","true","null","<div style=""font-size:100px;"">X</div>","null","","","fixation","","","","","","","",""
"","","","","","audio-keyboard-response","150","352043","0.0-164.0","22","1","2023-10-31 20:14:16","a725c3012b74bf33a1020a98cb69c237","181.29.10.192","Mozilla/5.0 (Macintosh; Intel Mac OS X 10_15_7) AppleWebKit/537.36 (KHTML, like Gecko) Chrome/118.0.0.0 Safari/537.36","Macintosh","Chrome","118.0.0.0","OS X","10_15_7","null","en-US,en;q=0.9,es-ES;q=0.8,es;q=0.7,pt;q=0.6","true","null","tones/880hz_short.mp3","null","","","tone_number_task","0","38","tones/880hz_short.mp3","150","100","0","23",""
"","","","","","html-keyboard-response","151","352290","0.0-167.0-0.0","22","1","2023-10-31 20:14:16","a725c3012b74bf33a1020a98cb69c237","181.29.10.192","Mozilla/5.0 (Macintosh; Intel Mac OS X 10_15_7) AppleWebKit/537.36 (KHTML, like Gecko) Chrome/118.0.0.0 Safari/537.36","Macintosh","Chrome","118.0.0.0","OS X","10_15_7","null","en-US,en;q=0.9,es-ES;q=0.8,es;q=0.7,pt;q=0.6","true","242","tones/880hz_short.mp3","s","","","empty_block","","38","","","","0","23",""
"","","","","","html-keyboard-response","152","352634","0.0-167.0-1.0","22","1","2023-10-31 20:14:16","a725c3012b74bf33a1020a98cb69c237","181.29.10.192","Mozilla/5.0 (Macintosh; Intel Mac OS X 10_15_7) AppleWebKit/537.36 (KHTML, like Gecko) Chrome/118.0.0.0 Safari/537.36","Macintosh","Chrome","118.0.0.0","OS X","10_15_7","null","en-US,en;q=0.9,es-ES;q=0.8,es;q=0.7,pt;q=0.6","true","339","tones/880hz_short.mp3","j","","","empty_block","","38","","","","0","23",""
"","","","","","html-keyboard-response","153","355337","0.0-169.0","22","1","2023-10-31 20:14:16","a725c3012b74bf33a1020a98cb69c237","181.29.10.192","Mozilla/5.0 (Macintosh; Intel Mac OS X 10_15_7) AppleWebKit/537.36 (KHTML, like Gecko) Chrome/118.0.0.0 Safari/537.36","Macintosh","Chrome","118.0.0.0","OS X","10_15_7","null","en-US,en;q=0.9,es-ES;q=0.8,es;q=0.7,pt;q=0.6","true","null","<div style=""font-size:100px;"">X</div>","null","","","fixation","","","","","","","",""
"","","","","","audio-keyboard-response","154","355501","0.0-170.0","22","1","2023-10-31 20:14:16","a725c3012b74bf33a1020a98cb69c237","181.29.10.192","Mozilla/5.0 (Macintosh; Intel Mac OS X 10_15_7) AppleWebKit/537.36 (KHTML, like Gecko) Chrome/118.0.0.0 Safari/537.36","Macintosh","Chrome","118.0.0.0","OS X","10_15_7","null","en-US,en;q=0.9,es-ES;q=0.8,es;q=0.7,pt;q=0.6","true","null","tones/880hz_short.mp3","null","","","tone_number_task","0","25","tones/880hz_short.mp3","150","100","0","24",""
"","","","","","html-keyboard-response","155","356159","0.0-173.0-0.0","22","1","2023-10-31 20:14:16","a725c3012b74bf33a1020a98cb69c237","181.29.10.192","Mozilla/5.0 (Macintosh; Intel Mac OS X 10_15_7) AppleWebKit/537.36 (KHTML, like Gecko) Chrome/118.0.0.0 Safari/537.36","Macintosh","Chrome","118.0.0.0","OS X","10_15_7","null","en-US,en;q=0.9,es-ES;q=0.8,es;q=0.7,pt;q=0.6","true","651","tones/880hz_short.mp3","s","","","empty_block","","25","","","","0","24",""
"","","","","","html-keyboard-response","156","356489","0.0-173.0-1.0","22","1","2023-10-31 20:14:16","a725c3012b74bf33a1020a98cb69c237","181.29.10.192","Mozilla/5.0 (Macintosh; Intel Mac OS X 10_15_7) AppleWebKit/537.36 (KHTML, like Gecko) Chrome/118.0.0.0 Safari/537.36","Macintosh","Chrome","118.0.0.0","OS X","10_15_7","null","en-US,en;q=0.9,es-ES;q=0.8,es;q=0.7,pt;q=0.6","true","324","tones/880hz_short.mp3","j","","","empty_block","","25","","","","0","24",""
"","","","","","html-keyboard-response","157","359189","0.0-175.0","22","1","2023-10-31 20:14:16","a725c3012b74bf33a1020a98cb69c237","181.29.10.192","Mozilla/5.0 (Macintosh; Intel Mac OS X 10_15_7) AppleWebKit/537.36 (KHTML, like Gecko) Chrome/118.0.0.0 Safari/537.36","Macintosh","Chrome","118.0.0.0","OS X","10_15_7","null","en-US,en;q=0.9,es-ES;q=0.8,es;q=0.7,pt;q=0.6","true","null","<div style=""font-size:100px;"">X</div>","null","","","fixation","","","","","","","",""
"","","","","","audio-keyboard-response","158","359626","0.0-176.0","22","1","2023-10-31 20:14:16","a725c3012b74bf33a1020a98cb69c237","181.29.10.192","Mozilla/5.0 (Macintosh; Intel Mac OS X 10_15_7) AppleWebKit/537.36 (KHTML, like Gecko) Chrome/118.0.0.0 Safari/537.36","Macintosh","Chrome","118.0.0.0","OS X","10_15_7","null","en-US,en;q=0.9,es-ES;q=0.8,es;q=0.7,pt;q=0.6","true","432","tones/440hz_short.mp3","a","","","tone_number_task","1025","35","tones/440hz_short.mp3","1175","100","0","25",""
"","","","","","html-keyboard-response","159","360227","0.0-177.0-0.0","22","1","2023-10-31 20:14:16","a725c3012b74bf33a1020a98cb69c237","181.29.10.192","Mozilla/5.0 (Macintosh; Intel Mac OS X 10_15_7) AppleWebKit/537.36 (KHTML, like Gecko) Chrome/118.0.0.0 Safari/537.36","Macintosh","Chrome","118.0.0.0","OS X","10_15_7","null","en-US,en;q=0.9,es-ES;q=0.8,es;q=0.7,pt;q=0.6","true","null","","null","","","delay_block","","","","","","0","25",""
"","","","","","html-keyboard-response","160","360390","0.0-177.0-1.0","22","1","2023-10-31 20:14:16","a725c3012b74bf33a1020a98cb69c237","181.29.10.192","Mozilla/5.0 (Macintosh; Intel Mac OS X 10_15_7) AppleWebKit/537.36 (KHTML, like Gecko) Chrome/118.0.0.0 Safari/537.36","Macintosh","Chrome","118.0.0.0","OS X","10_15_7","null","en-US,en;q=0.9,es-ES;q=0.8,es;q=0.7,pt;q=0.6","true","null","<p id=""stimulus"" style=""font-size:100px;"">35</p>","null","","","tone_number_task_remaining_before_delay","","35","","743","100","0","25",""
"","","","","","html-keyboard-response","161","360735","0.0-180.0-0.0","22","1","2023-10-31 20:14:16","a725c3012b74bf33a1020a98cb69c237","181.29.10.192","Mozilla/5.0 (Macintosh; Intel Mac OS X 10_15_7) AppleWebKit/537.36 (KHTML, like Gecko) Chrome/118.0.0.0 Safari/537.36","Macintosh","Chrome","118.0.0.0","OS X","10_15_7","null","en-US,en;q=0.9,es-ES;q=0.8,es;q=0.7,pt;q=0.6","true","338","<p id=""stimulus"" style=""font-size:100px;"">35</p>","j","","","empty_block","","35","","","","0","25",""
"","","","","","html-keyboard-response","162","363437","0.0-181.0","22","1","2023-10-31 20:14:16","a725c3012b74bf33a1020a98cb69c237","181.29.10.192","Mozilla/5.0 (Macintosh; Intel Mac OS X 10_15_7) AppleWebKit/537.36 (KHTML, like Gecko) Chrome/118.0.0.0 Safari/537.36","Macintosh","Chrome","118.0.0.0","OS X","10_15_7","null","en-US,en;q=0.9,es-ES;q=0.8,es;q=0.7,pt;q=0.6","true","null","<div style=""font-size:100px;"">X</div>","null","","","fixation","","","","","","","",""
"","","","","","audio-keyboard-response","163","363841","0.0-182.0","22","1","2023-10-31 20:14:16","a725c3012b74bf33a1020a98cb69c237","181.29.10.192","Mozilla/5.0 (Macintosh; Intel Mac OS X 10_15_7) AppleWebKit/537.36 (KHTML, like Gecko) Chrome/118.0.0.0 Safari/537.36","Macintosh","Chrome","118.0.0.0","OS X","10_15_7","null","en-US,en;q=0.9,es-ES;q=0.8,es;q=0.7,pt;q=0.6","true","400","tones/880hz_short.mp3","s","","","tone_number_task","1025","56","tones/880hz_short.mp3","1175","100","0","26",""
"","","","","","html-keyboard-response","164","364473","0.0-183.0-0.0","22","1","2023-10-31 20:14:16","a725c3012b74bf33a1020a98cb69c237","181.29.10.192","Mozilla/5.0 (Macintosh; Intel Mac OS X 10_15_7) AppleWebKit/537.36 (KHTML, like Gecko) Chrome/118.0.0.0 Safari/537.36","Macintosh","Chrome","118.0.0.0","OS X","10_15_7","null","en-US,en;q=0.9,es-ES;q=0.8,es;q=0.7,pt;q=0.6","true","null","","null","","","delay_block","","","","","","0","26",""
"","","","","","html-keyboard-response","165","364632","0.0-183.0-1.0","22","1","2023-10-31 20:14:16","a725c3012b74bf33a1020a98cb69c237","181.29.10.192","Mozilla/5.0 (Macintosh; Intel Mac OS X 10_15_7) AppleWebKit/537.36 (KHTML, like Gecko) Chrome/118.0.0.0 Safari/537.36","Macintosh","Chrome","118.0.0.0","OS X","10_15_7","null","en-US,en;q=0.9,es-ES;q=0.8,es;q=0.7,pt;q=0.6","true","null","<p id=""stimulus"" style=""font-size:100px;"">56</p>","null","","","tone_number_task_remaining_before_delay","","56","","775","100","0","26",""
"","","","","","html-keyboard-response","166","364891","0.0-186.0-0.0","22","1","2023-10-31 20:14:16","a725c3012b74bf33a1020a98cb69c237","181.29.10.192","Mozilla/5.0 (Macintosh; Intel Mac OS X 10_15_7) AppleWebKit/537.36 (KHTML, like Gecko) Chrome/118.0.0.0 Safari/537.36","Macintosh","Chrome","118.0.0.0","OS X","10_15_7","null","en-US,en;q=0.9,es-ES;q=0.8,es;q=0.7,pt;q=0.6","true","252","<p id=""stimulus"" style=""font-size:100px;"">56</p>","k","","","empty_block","","56","","","","0","26",""
"","","","","","html-keyboard-response","167","367591","0.0-187.0","22","1","2023-10-31 20:14:16","a725c3012b74bf33a1020a98cb69c237","181.29.10.192","Mozilla/5.0 (Macintosh; Intel Mac OS X 10_15_7) AppleWebKit/537.36 (KHTML, like Gecko) Chrome/118.0.0.0 Safari/537.36","Macintosh","Chrome","118.0.0.0","OS X","10_15_7","null","en-US,en;q=0.9,es-ES;q=0.8,es;q=0.7,pt;q=0.6","true","null","<div style=""font-size:100px;"">X</div>","null","","","fixation","","","","","","","",""
"","","","","","audio-keyboard-response","168","368040","0.0-188.0","22","1","2023-10-31 20:14:16","a725c3012b74bf33a1020a98cb69c237","181.29.10.192","Mozilla/5.0 (Macintosh; Intel Mac OS X 10_15_7) AppleWebKit/537.36 (KHTML, like Gecko) Chrome/118.0.0.0 Safari/537.36","Macintosh","Chrome","118.0.0.0","OS X","10_15_7","null","en-US,en;q=0.9,es-ES;q=0.8,es;q=0.7,pt;q=0.6","true","443","tones/880hz_short.mp3","s","","","tone_number_task","992.5","47","tones/880hz_short.mp3","1142.5","100","0","27",""
"","","","","","html-keyboard-response","169","368598","0.0-189.0-0.0","22","1","2023-10-31 20:14:16","a725c3012b74bf33a1020a98cb69c237","181.29.10.192","Mozilla/5.0 (Macintosh; Intel Mac OS X 10_15_7) AppleWebKit/537.36 (KHTML, like Gecko) Chrome/118.0.0.0 Safari/537.36","Macintosh","Chrome","118.0.0.0","OS X","10_15_7","null","en-US,en;q=0.9,es-ES;q=0.8,es;q=0.7,pt;q=0.6","true","null","","null","","","delay_block","","","","","","0","27",""
"","","","","","html-keyboard-response","170","368760","0.0-189.0-1.0","22","1","2023-10-31 20:14:16","a725c3012b74bf33a1020a98cb69c237","181.29.10.192","Mozilla/5.0 (Macintosh; Intel Mac OS X 10_15_7) AppleWebKit/537.36 (KHTML, like Gecko) Chrome/118.0.0.0 Safari/537.36","Macintosh","Chrome","118.0.0.0","OS X","10_15_7","null","en-US,en;q=0.9,es-ES;q=0.8,es;q=0.7,pt;q=0.6","true","null","<p id=""stimulus"" style=""font-size:100px;"">47</p>","null","","","tone_number_task_remaining_before_delay","","47","","699.5","100","0","27",""
"","","","","","html-keyboard-response","171","369434","0.0-192.0-0.0","22","1","2023-10-31 20:14:16","a725c3012b74bf33a1020a98cb69c237","181.29.10.192","Mozilla/5.0 (Macintosh; Intel Mac OS X 10_15_7) AppleWebKit/537.36 (KHTML, like Gecko) Chrome/118.0.0.0 Safari/537.36","Macintosh","Chrome","118.0.0.0","OS X","10_15_7","null","en-US,en;q=0.9,es-ES;q=0.8,es;q=0.7,pt;q=0.6","true","666","<p id=""stimulus"" style=""font-size:100px;"">47</p>","k","","","empty_block","","47","","","","0","27",""
"","","","","","html-keyboard-response","172","372137","0.0-193.0","22","1","2023-10-31 20:14:16","a725c3012b74bf33a1020a98cb69c237","181.29.10.192","Mozilla/5.0 (Macintosh; Intel Mac OS X 10_15_7) AppleWebKit/537.36 (KHTML, like Gecko) Chrome/118.0.0.0 Safari/537.36","Macintosh","Chrome","118.0.0.0","OS X","10_15_7","null","en-US,en;q=0.9,es-ES;q=0.8,es;q=0.7,pt;q=0.6","true","null","<div style=""font-size:100px;"">X</div>","null","","","fixation","","","","","","","",""
"","","","","","audio-keyboard-response","173","372299","0.0-194.0","22","1","2023-10-31 20:14:16","a725c3012b74bf33a1020a98cb69c237","181.29.10.192","Mozilla/5.0 (Macintosh; Intel Mac OS X 10_15_7) AppleWebKit/537.36 (KHTML, like Gecko) Chrome/118.0.0.0 Safari/537.36","Macintosh","Chrome","118.0.0.0","OS X","10_15_7","null","en-US,en;q=0.9,es-ES;q=0.8,es;q=0.7,pt;q=0.6","true","null","tones/880hz_short.mp3","null","","","tone_number_task","0","62","tones/880hz_short.mp3","150","100","0","28",""
"","","","","","html-keyboard-response","174","372989","0.0-197.0-0.0","22","1","2023-10-31 20:14:16","a725c3012b74bf33a1020a98cb69c237","181.29.10.192","Mozilla/5.0 (Macintosh; Intel Mac OS X 10_15_7) AppleWebKit/537.36 (KHTML, like Gecko) Chrome/118.0.0.0 Safari/537.36","Macintosh","Chrome","118.0.0.0","OS X","10_15_7","null","en-US,en;q=0.9,es-ES;q=0.8,es;q=0.7,pt;q=0.6","true","684","tones/880hz_short.mp3","s","","","empty_block","","62","","","","0","28",""
"","","","","","html-keyboard-response","175","373439","0.0-197.0-1.0","22","1","2023-10-31 20:14:16","a725c3012b74bf33a1020a98cb69c237","181.29.10.192","Mozilla/5.0 (Macintosh; Intel Mac OS X 10_15_7) AppleWebKit/537.36 (KHTML, like Gecko) Chrome/118.0.0.0 Safari/537.36","Macintosh","Chrome","118.0.0.0","OS X","10_15_7","null","en-US,en;q=0.9,es-ES;q=0.8,es;q=0.7,pt;q=0.6","true","444","tones/880hz_short.mp3","k","","","empty_block","","62","","","","0","28",""
"","","","","","html-keyboard-response","176","376141","0.0-199.0","22","1","2023-10-31 20:14:16","a725c3012b74bf33a1020a98cb69c237","181.29.10.192","Mozilla/5.0 (Macintosh; Intel Mac OS X 10_15_7) AppleWebKit/537.36 (KHTML, like Gecko) Chrome/118.0.0.0 Safari/537.36","Macintosh","Chrome","118.0.0.0","OS X","10_15_7","null","en-US,en;q=0.9,es-ES;q=0.8,es;q=0.7,pt;q=0.6","true","null","<div style=""font-size:100px;"">X</div>","null","","","fixation","","","","","","","",""
"","","","","","audio-keyboard-response","177","376406","0.0-200.0","22","1","2023-10-31 20:14:16","a725c3012b74bf33a1020a98cb69c237","181.29.10.192","Mozilla/5.0 (Macintosh; Intel Mac OS X 10_15_7) AppleWebKit/537.36 (KHTML, like Gecko) Chrome/118.0.0.0 Safari/537.36","Macintosh","Chrome","118.0.0.0","OS X","10_15_7","null","en-US,en;q=0.9,es-ES;q=0.8,es;q=0.7,pt;q=0.6","true","null","tones/880hz_short.mp3","null","","","tone_number_task","102.5","50","tones/880hz_short.mp3","252.5","100","0","29",""
"","","","","","html-keyboard-response","178","376696","0.0-203.0-0.0","22","1","2023-10-31 20:14:16","a725c3012b74bf33a1020a98cb69c237","181.29.10.192","Mozilla/5.0 (Macintosh; Intel Mac OS X 10_15_7) AppleWebKit/537.36 (KHTML, like Gecko) Chrome/118.0.0.0 Safari/537.36","Macintosh","Chrome","118.0.0.0","OS X","10_15_7","null","en-US,en;q=0.9,es-ES;q=0.8,es;q=0.7,pt;q=0.6","true","281","tones/880hz_short.mp3","s","","","empty_block","","50","","","","0","29",""
"","","","","","html-keyboard-response","179","376935","0.0-203.0-1.0","22","1","2023-10-31 20:14:16","a725c3012b74bf33a1020a98cb69c237","181.29.10.192","Mozilla/5.0 (Macintosh; Intel Mac OS X 10_15_7) AppleWebKit/537.36 (KHTML, like Gecko) Chrome/118.0.0.0 Safari/537.36","Macintosh","Chrome","118.0.0.0","OS X","10_15_7","null","en-US,en;q=0.9,es-ES;q=0.8,es;q=0.7,pt;q=0.6","true","232","tones/880hz_short.mp3","k","","","empty_block","","50","","","","0","29",""
"","","","","","html-keyboard-response","180","379637","0.0-205.0","22","1","2023-10-31 20:14:16","a725c3012b74bf33a1020a98cb69c237","181.29.10.192","Mozilla/5.0 (Macintosh; Intel Mac OS X 10_15_7) AppleWebKit/537.36 (KHTML, like Gecko) Chrome/118.0.0.0 Safari/537.36","Macintosh","Chrome","118.0.0.0","OS X","10_15_7","null","en-US,en;q=0.9,es-ES;q=0.8,es;q=0.7,pt;q=0.6","true","null","<div style=""font-size:100px;"">X</div>","null","","","fixation","","","","","","","",""
"","","","","","audio-keyboard-response","181","379899","0.0-206.0","22","1","2023-10-31 20:14:16","a725c3012b74bf33a1020a98cb69c237","181.29.10.192","Mozilla/5.0 (Macintosh; Intel Mac OS X 10_15_7) AppleWebKit/537.36 (KHTML, like Gecko) Chrome/118.0.0.0 Safari/537.36","Macintosh","Chrome","118.0.0.0","OS X","10_15_7","null","en-US,en;q=0.9,es-ES;q=0.8,es;q=0.7,pt;q=0.6","true","null","tones/880hz_short.mp3","null","","","tone_number_task","102.5","53","tones/880hz_short.mp3","252.5","100","0","30",""
"","","","","","html-keyboard-response","182","380009","0.0-209.0-0.0","22","1","2023-10-31 20:14:16","a725c3012b74bf33a1020a98cb69c237","181.29.10.192","Mozilla/5.0 (Macintosh; Intel Mac OS X 10_15_7) AppleWebKit/537.36 (KHTML, like Gecko) Chrome/118.0.0.0 Safari/537.36","Macintosh","Chrome","118.0.0.0","OS X","10_15_7","null","en-US,en;q=0.9,es-ES;q=0.8,es;q=0.7,pt;q=0.6","true","102","tones/880hz_short.mp3","s","","","empty_block","","53","","","","0","30",""
"","","","","","html-keyboard-response","183","380265","0.0-209.0-1.0","22","1","2023-10-31 20:14:16","a725c3012b74bf33a1020a98cb69c237","181.29.10.192","Mozilla/5.0 (Macintosh; Intel Mac OS X 10_15_7) AppleWebKit/537.36 (KHTML, like Gecko) Chrome/118.0.0.0 Safari/537.36","Macintosh","Chrome","118.0.0.0","OS X","10_15_7","null","en-US,en;q=0.9,es-ES;q=0.8,es;q=0.7,pt;q=0.6","true","249","tones/880hz_short.mp3","k","","","empty_block","","53","","","","0","30",""
"","","","","","html-keyboard-response","184","382969","0.0-211.0","22","1","2023-10-31 20:14:16","a725c3012b74bf33a1020a98cb69c237","181.29.10.192","Mozilla/5.0 (Macintosh; Intel Mac OS X 10_15_7) AppleWebKit/537.36 (KHTML, like Gecko) Chrome/118.0.0.0 Safari/537.36","Macintosh","Chrome","118.0.0.0","OS X","10_15_7","null","en-US,en;q=0.9,es-ES;q=0.8,es;q=0.7,pt;q=0.6","true","null","<div style=""font-size:100px;"">X</div>","null","","","fixation","","","","","","","",""
"","","","","","audio-keyboard-response","185","383236","0.0-212.0","22","1","2023-10-31 20:14:16","a725c3012b74bf33a1020a98cb69c237","181.29.10.192","Mozilla/5.0 (Macintosh; Intel Mac OS X 10_15_7) AppleWebKit/537.36 (KHTML, like Gecko) Chrome/118.0.0.0 Safari/537.36","Macintosh","Chrome","118.0.0.0","OS X","10_15_7","null","en-US,en;q=0.9,es-ES;q=0.8,es;q=0.7,pt;q=0.6","true","null","tones/880hz_short.mp3","null","","","tone_number_task","102.5","43","tones/880hz_short.mp3","252.5","100","0","31",""
"","","","","","html-keyboard-response","186","383356","0.0-215.0-0.0","22","1","2023-10-31 20:14:16","a725c3012b74bf33a1020a98cb69c237","181.29.10.192","Mozilla/5.0 (Macintosh; Intel Mac OS X 10_15_7) AppleWebKit/537.36 (KHTML, like Gecko) Chrome/118.0.0.0 Safari/537.36","Macintosh","Chrome","118.0.0.0","OS X","10_15_7","null","en-US,en;q=0.9,es-ES;q=0.8,es;q=0.7,pt;q=0.6","true","112","tones/880hz_short.mp3","s","","","empty_block","","43","","","","0","31",""
"","","","","","html-keyboard-response","187","383592","0.0-215.0-1.0","22","1","2023-10-31 20:14:16","a725c3012b74bf33a1020a98cb69c237","181.29.10.192","Mozilla/5.0 (Macintosh; Intel Mac OS X 10_15_7) AppleWebKit/537.36 (KHTML, like Gecko) Chrome/118.0.0.0 Safari/537.36","Macintosh","Chrome","118.0.0.0","OS X","10_15_7","null","en-US,en;q=0.9,es-ES;q=0.8,es;q=0.7,pt;q=0.6","true","230","tones/880hz_short.mp3","k","","","empty_block","","43","","","","0","31",""
"","","","","","html-keyboard-response","188","386293","0.0-217.0","22","1","2023-10-31 20:14:16","a725c3012b74bf33a1020a98cb69c237","181.29.10.192","Mozilla/5.0 (Macintosh; Intel Mac OS X 10_15_7) AppleWebKit/537.36 (KHTML, like Gecko) Chrome/118.0.0.0 Safari/537.36","Macintosh","Chrome","118.0.0.0","OS X","10_15_7","null","en-US,en;q=0.9,es-ES;q=0.8,es;q=0.7,pt;q=0.6","true","null","<div style=""font-size:100px;"">X</div>","null","","","fixation","","","","","","","",""
"","","","","","audio-keyboard-response","189","386670","0.0-218.0","22","1","2023-10-31 20:14:16","a725c3012b74bf33a1020a98cb69c237","181.29.10.192","Mozilla/5.0 (Macintosh; Intel Mac OS X 10_15_7) AppleWebKit/537.36 (KHTML, like Gecko) Chrome/118.0.0.0 Safari/537.36","Macintosh","Chrome","118.0.0.0","OS X","10_15_7","null","en-US,en;q=0.9,es-ES;q=0.8,es;q=0.7,pt;q=0.6","true","368","tones/440hz_short.mp3","a","","","tone_number_task","1025","60","tones/440hz_short.mp3","1175","100","0","32",""
"","","","","","html-keyboard-response","190","387335","0.0-219.0-0.0","22","1","2023-10-31 20:14:16","a725c3012b74bf33a1020a98cb69c237","181.29.10.192","Mozilla/5.0 (Macintosh; Intel Mac OS X 10_15_7) AppleWebKit/537.36 (KHTML, like Gecko) Chrome/118.0.0.0 Safari/537.36","Macintosh","Chrome","118.0.0.0","OS X","10_15_7","null","en-US,en;q=0.9,es-ES;q=0.8,es;q=0.7,pt;q=0.6","true","null","","null","","","delay_block","","","","","","0","32",""
"","","","","","html-keyboard-response","191","387495","0.0-219.0-1.0","22","1","2023-10-31 20:14:16","a725c3012b74bf33a1020a98cb69c237","181.29.10.192","Mozilla/5.0 (Macintosh; Intel Mac OS X 10_15_7) AppleWebKit/537.36 (KHTML, like Gecko) Chrome/118.0.0.0 Safari/537.36","Macintosh","Chrome","118.0.0.0","OS X","10_15_7","null","en-US,en;q=0.9,es-ES;q=0.8,es;q=0.7,pt;q=0.6","true","null","<p id=""stimulus"" style=""font-size:100px;"">60</p>","null","","","tone_number_task_remaining_before_delay","","60","","807","100","0","32",""
"","","","","","html-keyboard-response","192","387795","0.0-222.0-0.0","22","1","2023-10-31 20:14:16","a725c3012b74bf33a1020a98cb69c237","181.29.10.192","Mozilla/5.0 (Macintosh; Intel Mac OS X 10_15_7) AppleWebKit/537.36 (KHTML, like Gecko) Chrome/118.0.0.0 Safari/537.36","Macintosh","Chrome","118.0.0.0","OS X","10_15_7","null","en-US,en;q=0.9,es-ES;q=0.8,es;q=0.7,pt;q=0.6","true","294","<p id=""stimulus"" style=""font-size:100px;"">60</p>","k","","","empty_block","","60","","","","0","32",""
"","","","","","html-keyboard-response","193","390501","0.0-223.0","22","1","2023-10-31 20:14:16","a725c3012b74bf33a1020a98cb69c237","181.29.10.192","Mozilla/5.0 (Macintosh; Intel Mac OS X 10_15_7) AppleWebKit/537.36 (KHTML, like Gecko) Chrome/118.0.0.0 Safari/537.36","Macintosh","Chrome","118.0.0.0","OS X","10_15_7","null","en-US,en;q=0.9,es-ES;q=0.8,es;q=0.7,pt;q=0.6","true","null","<div style=""font-size:100px;"">X</div>","null","","","fixation","","","","","","","",""
"","","","","","audio-keyboard-response","194","391093","0.0-224.0","22","1","2023-10-31 20:14:16","a725c3012b74bf33a1020a98cb69c237","181.29.10.192","Mozilla/5.0 (Macintosh; Intel Mac OS X 10_15_7) AppleWebKit/537.36 (KHTML, like Gecko) Chrome/118.0.0.0 Safari/537.36","Macintosh","Chrome","118.0.0.0","OS X","10_15_7","null","en-US,en;q=0.9,es-ES;q=0.8,es;q=0.7,pt;q=0.6","true","587","tones/880hz_short.mp3","s","","","tone_number_task","992.5","57","tones/880hz_short.mp3","1142.5","100","0","33",""
"","","","","","html-keyboard-response","195","391503","0.0-225.0-0.0","22","1","2023-10-31 20:14:16","a725c3012b74bf33a1020a98cb69c237","181.29.10.192","Mozilla/5.0 (Macintosh; Intel Mac OS X 10_15_7) AppleWebKit/537.36 (KHTML, like Gecko) Chrome/118.0.0.0 Safari/537.36","Macintosh","Chrome","118.0.0.0","OS X","10_15_7","null","en-US,en;q=0.9,es-ES;q=0.8,es;q=0.7,pt;q=0.6","true","null","","null","","","delay_block","","","","","","0","33",""
"","","","","","html-keyboard-response","196","391664","0.0-225.0-1.0","22","1","2023-10-31 20:14:16","a725c3012b74bf33a1020a98cb69c237","181.29.10.192","Mozilla/5.0 (Macintosh; Intel Mac OS X 10_15_7) AppleWebKit/537.36 (KHTML, like Gecko) Chrome/118.0.0.0 Safari/537.36","Macintosh","Chrome","118.0.0.0","OS X","10_15_7","null","en-US,en;q=0.9,es-ES;q=0.8,es;q=0.7,pt;q=0.6","true","null","<p id=""stimulus"" style=""font-size:100px;"">57</p>","null","","","tone_number_task_remaining_before_delay","","57","","555.5","100","0","33",""
"","","","","","html-keyboard-response","197","392116","0.0-228.0-0.0","22","1","2023-10-31 20:14:16","a725c3012b74bf33a1020a98cb69c237","181.29.10.192","Mozilla/5.0 (Macintosh; Intel Mac OS X 10_15_7) AppleWebKit/537.36 (KHTML, like Gecko) Chrome/118.0.0.0 Safari/537.36","Macintosh","Chrome","118.0.0.0","OS X","10_15_7","null","en-US,en;q=0.9,es-ES;q=0.8,es;q=0.7,pt;q=0.6","true","444","<p id=""stimulus"" style=""font-size:100px;"">57</p>","k","","","empty_block","","57","","","","0","33",""
"","","","","","html-keyboard-response","198","394818","0.0-229.0","22","1","2023-10-31 20:14:16","a725c3012b74bf33a1020a98cb69c237","181.29.10.192","Mozilla/5.0 (Macintosh; Intel Mac OS X 10_15_7) AppleWebKit/537.36 (KHTML, like Gecko) Chrome/118.0.0.0 Safari/537.36","Macintosh","Chrome","118.0.0.0","OS X","10_15_7","null","en-US,en;q=0.9,es-ES;q=0.8,es;q=0.7,pt;q=0.6","true","null","<div style=""font-size:100px;"">X</div>","null","","","fixation","","","","","","","",""
"","","","","","audio-keyboard-response","199","395076","0.0-230.0","22","1","2023-10-31 20:14:16","a725c3012b74bf33a1020a98cb69c237","181.29.10.192","Mozilla/5.0 (Macintosh; Intel Mac OS X 10_15_7) AppleWebKit/537.36 (KHTML, like Gecko) Chrome/118.0.0.0 Safari/537.36","Macintosh","Chrome","118.0.0.0","OS X","10_15_7","null","en-US,en;q=0.9,es-ES;q=0.8,es;q=0.7,pt;q=0.6","true","null","tones/440hz_short.mp3","null","","","tone_number_task","102.5","23","tones/440hz_short.mp3","252.5","100","0","34",""
"","","","","","html-keyboard-response","200","395475","0.0-233.0-0.0","22","1","2023-10-31 20:14:16","a725c3012b74bf33a1020a98cb69c237","181.29.10.192","Mozilla/5.0 (Macintosh; Intel Mac OS X 10_15_7) AppleWebKit/537.36 (KHTML, like Gecko) Chrome/118.0.0.0 Safari/537.36","Macintosh","Chrome","118.0.0.0","OS X","10_15_7","null","en-US,en;q=0.9,es-ES;q=0.8,es;q=0.7,pt;q=0.6","true","390","tones/440hz_short.mp3","a","","","empty_block","","23","","","","0","34",""
"","","","","","html-keyboard-response","201","395791","0.0-233.0-1.0","22","1","2023-10-31 20:14:16","a725c3012b74bf33a1020a98cb69c237","181.29.10.192","Mozilla/5.0 (Macintosh; Intel Mac OS X 10_15_7) AppleWebKit/537.36 (KHTML, like Gecko) Chrome/118.0.0.0 Safari/537.36","Macintosh","Chrome","118.0.0.0","OS X","10_15_7","null","en-US,en;q=0.9,es-ES;q=0.8,es;q=0.7,pt;q=0.6","true","310","tones/440hz_short.mp3","j","","","empty_block","","23","","","","0","34",""
"","","","","","html-keyboard-response","202","398496","0.0-235.0","22","1","2023-10-31 20:14:16","a725c3012b74bf33a1020a98cb69c237","181.29.10.192","Mozilla/5.0 (Macintosh; Intel Mac OS X 10_15_7) AppleWebKit/537.36 (KHTML, like Gecko) Chrome/118.0.0.0 Safari/537.36","Macintosh","Chrome","118.0.0.0","OS X","10_15_7","null","en-US,en;q=0.9,es-ES;q=0.8,es;q=0.7,pt;q=0.6","true","null","<div style=""font-size:100px;"">X</div>","null","","","fixation","","","","","","","",""
