"success","timeout","failed_images","failed_audio","failed_video","trial_type","trial_index","time_elapsed","internal_node_id","run_id","condition","recorded_at","source_code_version","ip","user_agent","device","browser","browser_version","platform","platform_version","referer","accept_language","check","rt","stimulus","response","question_order","url","task","delay","number","audioFile","trial_duration","font_size","block","round","value"
"true","false","[]","[]","[]","preload","0","393","0.0-0.0","69","1","2023-11-01 20:35:51","a725c3012b74bf33a1020a98cb69c237","190.190.193.126","Mozilla/5.0 (Windows NT 10.0; Win64; x64) AppleWebKit/537.36 (KHTML, like Gecko) Chrome/118.0.0.0 Safari/537.36","WebKit","Chrome","118.0.0.0","Windows","10.0","null","es-419,es;q=0.9","true","","","","","","","","","","","","","",""
"true","","","","","fullscreen","1","3511","0.0-1.0","69","1","2023-11-01 20:35:51","a725c3012b74bf33a1020a98cb69c237","190.190.193.126","Mozilla/5.0 (Windows NT 10.0; Win64; x64) AppleWebKit/537.36 (KHTML, like Gecko) Chrome/118.0.0.0 Safari/537.36","WebKit","Chrome","118.0.0.0","Windows","10.0","null","es-419,es;q=0.9","true","","","","","","","","","","","","","",""
"","","","","","html-button-response","2","4929","0.0-2.0","69","1","2023-11-01 20:35:51","a725c3012b74bf33a1020a98cb69c237","190.190.193.126","Mozilla/5.0 (Windows NT 10.0; Win64; x64) AppleWebKit/537.36 (KHTML, like Gecko) Chrome/118.0.0.0 Safari/537.36","WebKit","Chrome","118.0.0.0","Windows","10.0","null","es-419,es;q=0.9","true","1417","<p style=""font-size:24px; color:red;"">Cosas importantes a tener en cuenta antes de comenzar el experimento:</p>","0","","","","","","","","","","",""
"","","","","","html-button-response","3","8313","0.0-3.0","69","1","2023-11-01 20:35:51","a725c3012b74bf33a1020a98cb69c237","190.190.193.126","Mozilla/5.0 (Windows NT 10.0; Win64; x64) AppleWebKit/537.36 (KHTML, like Gecko) Chrome/118.0.0.0 Safari/537.36","WebKit","Chrome","118.0.0.0","Windows","10.0","null","es-419,es;q=0.9","true","3383","<p style=""font-size:24px;"">El experimento dura aproximadamente 15 minutos.</p><p style=""font-size:24px;"">Por favor, no cierres la ventana del navegador durante el experimento.</p><p style=""font-size:24px;"">Si se completa de forma parcial, no se guardará ningún resultado.</p>","0","","","","","","","","","","",""
"","","","","","html-button-response","4","9993","0.0-4.0","69","1","2023-11-01 20:35:51","a725c3012b74bf33a1020a98cb69c237","190.190.193.126","Mozilla/5.0 (Windows NT 10.0; Win64; x64) AppleWebKit/537.36 (KHTML, like Gecko) Chrome/118.0.0.0 Safari/537.36","WebKit","Chrome","118.0.0.0","Windows","10.0","null","es-419,es;q=0.9","true","1679","<p style=""font-size:24px;"">El experimento contiene estímulos sonoros.</p>","0","","","","","","","","","","",""
"","","","","","audio-button-response","5","29465","0.0-5.0-0.0","69","1","2023-11-01 20:35:51","a725c3012b74bf33a1020a98cb69c237","190.190.193.126","Mozilla/5.0 (Windows NT 10.0; Win64; x64) AppleWebKit/537.36 (KHTML, like Gecko) Chrome/118.0.0.0 Safari/537.36","WebKit","Chrome","118.0.0.0","Windows","10.0","null","es-419,es;q=0.9","true","18889","tones/440hz_short.mp3","0","","","","","","","","","","",""
"","","","","","audio-button-response","6","30793","0.0-5.1-0.1","69","1","2023-11-01 20:35:51","a725c3012b74bf33a1020a98cb69c237","190.190.193.126","Mozilla/5.0 (Windows NT 10.0; Win64; x64) AppleWebKit/537.36 (KHTML, like Gecko) Chrome/118.0.0.0 Safari/537.36","WebKit","Chrome","118.0.0.0","Windows","10.0","null","es-419,es;q=0.9","true","1329","tones/440hz_short.mp3","1","","","","","","","","","","",""
"","","","","","audio-button-response","7","32106","0.0-6.0-0.0","69","1","2023-11-01 20:35:51","a725c3012b74bf33a1020a98cb69c237","190.190.193.126","Mozilla/5.0 (Windows NT 10.0; Win64; x64) AppleWebKit/537.36 (KHTML, like Gecko) Chrome/118.0.0.0 Safari/537.36","WebKit","Chrome","118.0.0.0","Windows","10.0","null","es-419,es;q=0.9","true","1312","tones/880hz_short.mp3","1","","","","","","","","","","",""
"","","","","","survey-html-form","8","35378","0.0-7.0","69","1","2023-11-01 20:35:51","a725c3012b74bf33a1020a98cb69c237","190.190.193.126","Mozilla/5.0 (Windows NT 10.0; Win64; x64) AppleWebKit/537.36 (KHTML, like Gecko) Chrome/118.0.0.0 Safari/537.36","WebKit","Chrome","118.0.0.0","Windows","10.0","null","es-419,es;q=0.9","true","3268","","{""response"":""26""}","","","","","","","","","","",""
"","","","","","survey-multi-choice","9","38178","0.0-8.0","69","1","2023-11-01 20:35:51","a725c3012b74bf33a1020a98cb69c237","190.190.193.126","Mozilla/5.0 (Windows NT 10.0; Win64; x64) AppleWebKit/537.36 (KHTML, like Gecko) Chrome/118.0.0.0 Safari/537.36","WebKit","Chrome","118.0.0.0","Windows","10.0","null","es-419,es;q=0.9","true","2798","","{""gender"":""Mujer"",""hand"":""Derecha""}","[0,1]","","","","","","","","","",""
"","","","","","external-html","10","160066","0.0-9.0","69","1","2023-11-01 20:35:51","a725c3012b74bf33a1020a98cb69c237","190.190.193.126","Mozilla/5.0 (Windows NT 10.0; Win64; x64) AppleWebKit/537.36 (KHTML, like Gecko) Chrome/118.0.0.0 Safari/537.36","WebKit","Chrome","118.0.0.0","Windows","10.0","null","es-419,es;q=0.9","true","121572","","","","instructions/instructions.html","","","","","","","","",""
"","","","","","external-html","11","214913","0.0-10.0","69","1","2023-11-01 20:35:51","a725c3012b74bf33a1020a98cb69c237","190.190.193.126","Mozilla/5.0 (Windows NT 10.0; Win64; x64) AppleWebKit/537.36 (KHTML, like Gecko) Chrome/118.0.0.0 Safari/537.36","WebKit","Chrome","118.0.0.0","Windows","10.0","null","es-419,es;q=0.9","true","54499","","","","instructions/animation.html","","","","","","","","",""
"","","","","","html-keyboard-response","12","217848","0.0-11.0-0.0","69","1","2023-11-01 20:35:51","a725c3012b74bf33a1020a98cb69c237","190.190.193.126","Mozilla/5.0 (Windows NT 10.0; Win64; x64) AppleWebKit/537.36 (KHTML, like Gecko) Chrome/118.0.0.0 Safari/537.36","WebKit","Chrome","118.0.0.0","Windows","10.0","null","es-419,es;q=0.9","true","null","<div style=""font-size:100px;"">X</div>","null","","","fixation","","","","","","","",""
"","","","","","audio-keyboard-response","13","219003","0.0-11.0-1.0","69","1","2023-11-01 20:35:51","a725c3012b74bf33a1020a98cb69c237","190.190.193.126","Mozilla/5.0 (Windows NT 10.0; Win64; x64) AppleWebKit/537.36 (KHTML, like Gecko) Chrome/118.0.0.0 Safari/537.36","WebKit","Chrome","118.0.0.0","Windows","10.0","null","es-419,es;q=0.9","true","null","tones/440hz_short.mp3","null","","","tone_number_task","1000","66","tones/440hz_short.mp3","1150","100","null","null",""
"","","","","","html-keyboard-response","14","224295","0.0-11.0-4.0-0.0","69","1","2023-11-01 20:35:51","a725c3012b74bf33a1020a98cb69c237","190.190.193.126","Mozilla/5.0 (Windows NT 10.0; Win64; x64) AppleWebKit/537.36 (KHTML, like Gecko) Chrome/118.0.0.0 Safari/537.36","WebKit","Chrome","118.0.0.0","Windows","10.0","null","es-419,es;q=0.9","true","5290","tones/440hz_short.mp3","k","","","empty_block","","66","","","","null","null",""
"","","","","","html-keyboard-response","15","234299","0.0-11.0-4.0-1.0","69","1","2023-11-01 20:35:51","a725c3012b74bf33a1020a98cb69c237","190.190.193.126","Mozilla/5.0 (Windows NT 10.0; Win64; x64) AppleWebKit/537.36 (KHTML, like Gecko) Chrome/118.0.0.0 Safari/537.36","WebKit","Chrome","118.0.0.0","Windows","10.0","null","es-419,es;q=0.9","true","null","tones/440hz_short.mp3","null","","","empty_block","","66","","","","null","null",""
"","","","","","html-keyboard-response","16","237233","0.0-13.0-0.0","69","1","2023-11-01 20:35:51","a725c3012b74bf33a1020a98cb69c237","190.190.193.126","Mozilla/5.0 (Windows NT 10.0; Win64; x64) AppleWebKit/537.36 (KHTML, like Gecko) Chrome/118.0.0.0 Safari/537.36","WebKit","Chrome","118.0.0.0","Windows","10.0","null","es-419,es;q=0.9","true","null","<div style=""font-size:100px;"">X</div>","null","","","fixation","","","","","","","",""
"","","","","","audio-keyboard-response","17","237886","0.0-13.0-1.0","69","1","2023-11-01 20:35:51","a725c3012b74bf33a1020a98cb69c237","190.190.193.126","Mozilla/5.0 (Windows NT 10.0; Win64; x64) AppleWebKit/537.36 (KHTML, like Gecko) Chrome/118.0.0.0 Safari/537.36","WebKit","Chrome","118.0.0.0","Windows","10.0","null","es-419,es;q=0.9","true","null","tones/440hz_short.mp3","null","","","tone_number_task","500","26","tones/440hz_short.mp3","650","100","null","null",""
"","","","","","html-keyboard-response","18","238248","0.0-13.0-4.0-0.0","69","1","2023-11-01 20:35:51","a725c3012b74bf33a1020a98cb69c237","190.190.193.126","Mozilla/5.0 (Windows NT 10.0; Win64; x64) AppleWebKit/537.36 (KHTML, like Gecko) Chrome/118.0.0.0 Safari/537.36","WebKit","Chrome","118.0.0.0","Windows","10.0","null","es-419,es;q=0.9","true","360","tones/440hz_short.mp3","a","","","empty_block","","26","","","","null","null",""
"","","","","","html-keyboard-response","19","240337","0.0-13.0-4.0-1.0","69","1","2023-11-01 20:35:51","a725c3012b74bf33a1020a98cb69c237","190.190.193.126","Mozilla/5.0 (Windows NT 10.0; Win64; x64) AppleWebKit/537.36 (KHTML, like Gecko) Chrome/118.0.0.0 Safari/537.36","WebKit","Chrome","118.0.0.0","Windows","10.0","null","es-419,es;q=0.9","true","2088","tones/440hz_short.mp3","j","","","empty_block","","26","","","","null","null",""
"","","","","","html-keyboard-response","20","243270","0.0-15.0-0.0","69","1","2023-11-01 20:35:51","a725c3012b74bf33a1020a98cb69c237","190.190.193.126","Mozilla/5.0 (Windows NT 10.0; Win64; x64) AppleWebKit/537.36 (KHTML, like Gecko) Chrome/118.0.0.0 Safari/537.36","WebKit","Chrome","118.0.0.0","Windows","10.0","null","es-419,es;q=0.9","true","null","<div style=""font-size:100px;"">X</div>","null","","","fixation","","","","","","","",""
"","","","","","audio-keyboard-response","21","243572","0.0-15.0-1.0","69","1","2023-11-01 20:35:51","a725c3012b74bf33a1020a98cb69c237","190.190.193.126","Mozilla/5.0 (Windows NT 10.0; Win64; x64) AppleWebKit/537.36 (KHTML, like Gecko) Chrome/118.0.0.0 Safari/537.36","WebKit","Chrome","118.0.0.0","Windows","10.0","null","es-419,es;q=0.9","true","null","tones/880hz_short.mp3","null","","","tone_number_task","150","35","tones/880hz_short.mp3","300","100","null","null",""
"","","","","","html-keyboard-response","22","245681","0.0-15.0-4.0-0.0","69","1","2023-11-01 20:35:51","a725c3012b74bf33a1020a98cb69c237","190.190.193.126","Mozilla/5.0 (Windows NT 10.0; Win64; x64) AppleWebKit/537.36 (KHTML, like Gecko) Chrome/118.0.0.0 Safari/537.36","WebKit","Chrome","118.0.0.0","Windows","10.0","null","es-419,es;q=0.9","true","2108","tones/880hz_short.mp3","s","","","empty_block","","35","","","","null","null",""
"","","","","","html-keyboard-response","23","245872","0.0-15.0-4.0-1.0","69","1","2023-11-01 20:35:51","a725c3012b74bf33a1020a98cb69c237","190.190.193.126","Mozilla/5.0 (Windows NT 10.0; Win64; x64) AppleWebKit/537.36 (KHTML, like Gecko) Chrome/118.0.0.0 Safari/537.36","WebKit","Chrome","118.0.0.0","Windows","10.0","null","es-419,es;q=0.9","true","188","tones/880hz_short.mp3","k","","","empty_block","","35","","","","null","null",""
"","","","","","html-button-response","24","249826","0.0-15.0-6.0-0.0","69","1","2023-11-01 20:35:51","a725c3012b74bf33a1020a98cb69c237","190.190.193.126","Mozilla/5.0 (Windows NT 10.0; Win64; x64) AppleWebKit/537.36 (KHTML, like Gecko) Chrome/118.0.0.0 Safari/537.36","WebKit","Chrome","118.0.0.0","Windows","10.0","null","es-419,es;q=0.9","true","3952","
  '<p style=""font-size:24px; color:red;"">Incorrecto</p><p> Respondiste alguno de los estímulos de manera incorrecta.</p><p>Por favor, repasá las instrucciones y seguimos desde donde nos quedamos. </p>
  ","0","","","","","","","","","","",""
"","","","","","external-html","25","254851","0.0-15.0-6.0-1.0","69","1","2023-11-01 20:35:51","a725c3012b74bf33a1020a98cb69c237","190.190.193.126","Mozilla/5.0 (Windows NT 10.0; Win64; x64) AppleWebKit/537.36 (KHTML, like Gecko) Chrome/118.0.0.0 Safari/537.36","WebKit","Chrome","118.0.0.0","Windows","10.0","null","es-419,es;q=0.9","true","4709","","","","instructions/instructions_B.html","","","","","","","","",""
"","","","","","html-keyboard-response","26","257787","0.0-15.1-0.1","69","1","2023-11-01 20:35:51","a725c3012b74bf33a1020a98cb69c237","190.190.193.126","Mozilla/5.0 (Windows NT 10.0; Win64; x64) AppleWebKit/537.36 (KHTML, like Gecko) Chrome/118.0.0.0 Safari/537.36","WebKit","Chrome","118.0.0.0","Windows","10.0","null","es-419,es;q=0.9","true","null","<div style=""font-size:100px;"">X</div>","null","","","fixation","","","","","","","",""
"","","","","","audio-keyboard-response","27","258089","0.0-15.1-1.1","69","1","2023-11-01 20:35:51","a725c3012b74bf33a1020a98cb69c237","190.190.193.126","Mozilla/5.0 (Windows NT 10.0; Win64; x64) AppleWebKit/537.36 (KHTML, like Gecko) Chrome/118.0.0.0 Safari/537.36","WebKit","Chrome","118.0.0.0","Windows","10.0","null","es-419,es;q=0.9","true","null","tones/880hz_short.mp3","null","","","tone_number_task","150","35","tones/880hz_short.mp3","300","100","null","null",""
"","","","","","html-keyboard-response","28","260481","0.0-15.1-4.1-0.1","69","1","2023-11-01 20:35:51","a725c3012b74bf33a1020a98cb69c237","190.190.193.126","Mozilla/5.0 (Windows NT 10.0; Win64; x64) AppleWebKit/537.36 (KHTML, like Gecko) Chrome/118.0.0.0 Safari/537.36","WebKit","Chrome","118.0.0.0","Windows","10.0","null","es-419,es;q=0.9","true","2390","tones/880hz_short.mp3","s","","","empty_block","","35","","","","null","null",""
"","","","","","html-keyboard-response","29","261412","0.0-15.1-4.1-1.1","69","1","2023-11-01 20:35:51","a725c3012b74bf33a1020a98cb69c237","190.190.193.126","Mozilla/5.0 (Windows NT 10.0; Win64; x64) AppleWebKit/537.36 (KHTML, like Gecko) Chrome/118.0.0.0 Safari/537.36","WebKit","Chrome","118.0.0.0","Windows","10.0","null","es-419,es;q=0.9","true","930","tones/880hz_short.mp3","j","","","empty_block","","35","","","","null","null",""
"","","","","","html-keyboard-response","30","264346","0.0-17.0-0.0","69","1","2023-11-01 20:35:51","a725c3012b74bf33a1020a98cb69c237","190.190.193.126","Mozilla/5.0 (Windows NT 10.0; Win64; x64) AppleWebKit/537.36 (KHTML, like Gecko) Chrome/118.0.0.0 Safari/537.36","WebKit","Chrome","118.0.0.0","Windows","10.0","null","es-419,es;q=0.9","true","null","<div style=""font-size:100px;"">X</div>","null","","","fixation","","","","","","","",""
"","","","","","audio-keyboard-response","31","264549","0.0-17.0-1.0","69","1","2023-11-01 20:35:51","a725c3012b74bf33a1020a98cb69c237","190.190.193.126","Mozilla/5.0 (Windows NT 10.0; Win64; x64) AppleWebKit/537.36 (KHTML, like Gecko) Chrome/118.0.0.0 Safari/537.36","WebKit","Chrome","118.0.0.0","Windows","10.0","null","es-419,es;q=0.9","true","null","tones/880hz_short.mp3","null","","","tone_number_task","50","35","tones/880hz_short.mp3","200","100","null","null",""
"","","","","","html-keyboard-response","32","266271","0.0-17.0-4.0-0.0","69","1","2023-11-01 20:35:51","a725c3012b74bf33a1020a98cb69c237","190.190.193.126","Mozilla/5.0 (Windows NT 10.0; Win64; x64) AppleWebKit/537.36 (KHTML, like Gecko) Chrome/118.0.0.0 Safari/537.36","WebKit","Chrome","118.0.0.0","Windows","10.0","null","es-419,es;q=0.9","true","1719","tones/880hz_short.mp3","s","","","empty_block","","35","","","","null","null",""
"","","","","","html-keyboard-response","33","266712","0.0-17.0-4.0-1.0","69","1","2023-11-01 20:35:51","a725c3012b74bf33a1020a98cb69c237","190.190.193.126","Mozilla/5.0 (Windows NT 10.0; Win64; x64) AppleWebKit/537.36 (KHTML, like Gecko) Chrome/118.0.0.0 Safari/537.36","WebKit","Chrome","118.0.0.0","Windows","10.0","null","es-419,es;q=0.9","true","440","tones/880hz_short.mp3","j","","","empty_block","","35","","","","null","null",""
"","","","","","html-button-response","34","272450","0.0-19.0","69","1","2023-11-01 20:35:51","a725c3012b74bf33a1020a98cb69c237","190.190.193.126","Mozilla/5.0 (Windows NT 10.0; Win64; x64) AppleWebKit/537.36 (KHTML, like Gecko) Chrome/118.0.0.0 Safari/537.36","WebKit","Chrome","118.0.0.0","Windows","10.0","null","es-419,es;q=0.9","true","5736","
  <h1> Muy bien </h1>
  <p> Ahora, en vez de ser presentados en dígitos, los números vendrán escritos en palabras. </p>
  <p> Por ejemplo, en vez de 44 te aparecerá ""cuarenta y cuatro"". </p>
  ","0","","","","","","","","","","",""
"","","","","","html-keyboard-response","35","275383","0.0-20.0-0.0","69","1","2023-11-01 20:35:51","a725c3012b74bf33a1020a98cb69c237","190.190.193.126","Mozilla/5.0 (Windows NT 10.0; Win64; x64) AppleWebKit/537.36 (KHTML, like Gecko) Chrome/118.0.0.0 Safari/537.36","WebKit","Chrome","118.0.0.0","Windows","10.0","null","es-419,es;q=0.9","true","null","<div style=""font-size:100px;"">X</div>","null","","","fixation","","","","","","","",""
"","","","","","audio-keyboard-response","36","276536","0.0-20.0-1.0","69","1","2023-11-01 20:35:51","a725c3012b74bf33a1020a98cb69c237","190.190.193.126","Mozilla/5.0 (Windows NT 10.0; Win64; x64) AppleWebKit/537.36 (KHTML, like Gecko) Chrome/118.0.0.0 Safari/537.36","WebKit","Chrome","118.0.0.0","Windows","10.0","null","es-419,es;q=0.9","true","null","tones/440hz_short.mp3","null","","","tone_number_task","1000","cincuenta y dos","tones/440hz_short.mp3","1150","60","null","null",""
"","","","","","html-keyboard-response","37","276615","0.0-20.0-4.0-0.0","69","1","2023-11-01 20:35:51","a725c3012b74bf33a1020a98cb69c237","190.190.193.126","Mozilla/5.0 (Windows NT 10.0; Win64; x64) AppleWebKit/537.36 (KHTML, like Gecko) Chrome/118.0.0.0 Safari/537.36","WebKit","Chrome","118.0.0.0","Windows","10.0","null","es-419,es;q=0.9","true","78","tones/440hz_short.mp3","a","","","empty_block","","cincuenta y dos","","","","null","null",""
"","","","","","html-keyboard-response","38","277674","0.0-20.0-4.0-1.0","69","1","2023-11-01 20:35:51","a725c3012b74bf33a1020a98cb69c237","190.190.193.126","Mozilla/5.0 (Windows NT 10.0; Win64; x64) AppleWebKit/537.36 (KHTML, like Gecko) Chrome/118.0.0.0 Safari/537.36","WebKit","Chrome","118.0.0.0","Windows","10.0","null","es-419,es;q=0.9","true","1058","tones/440hz_short.mp3","k","","","empty_block","","cincuenta y dos","","","","null","null",""
"","","","","","html-button-response","39","286034","0.0-22.0","69","1","2023-11-01 20:35:51","a725c3012b74bf33a1020a98cb69c237","190.190.193.126","Mozilla/5.0 (Windows NT 10.0; Win64; x64) AppleWebKit/537.36 (KHTML, like Gecko) Chrome/118.0.0.0 Safari/537.36","WebKit","Chrome","118.0.0.0","Windows","10.0","null","es-419,es;q=0.9","true","8358","
  <h1> Fin del Entrenamiento </h1>
  <p> ¡Felicitaciones, terminaste el entrenamiento! Ahora vamos a comenzar con el experimento. </p>
  <p> Es importante tener en cuenta que consta de cuatro bloques.</p>
  <p> Podés aprovechar los momentos entre bloques para tomar un breve descanso o tomar agua entre cada uno</p>
  <p> Recordá que tenés que responder lo más rápido que puedas, pero sin equivocarte. </p>
  ","0","","","","","","","","","","",""
"","","","","","external-html","40","300746","0.0-23.0","69","1","2023-11-01 20:35:51","a725c3012b74bf33a1020a98cb69c237","190.190.193.126","Mozilla/5.0 (Windows NT 10.0; Win64; x64) AppleWebKit/537.36 (KHTML, like Gecko) Chrome/118.0.0.0 Safari/537.36","WebKit","Chrome","118.0.0.0","Windows","10.0","null","es-419,es;q=0.9","true","14347","","","","instructions/instructions_digits_first.html","","","","","","","","",""
"","","","","","call-function","41","300749","0.0-24.0","69","1","2023-11-01 20:35:51","a725c3012b74bf33a1020a98cb69c237","190.190.193.126","Mozilla/5.0 (Windows NT 10.0; Win64; x64) AppleWebKit/537.36 (KHTML, like Gecko) Chrome/118.0.0.0 Safari/537.36","WebKit","Chrome","118.0.0.0","Windows","10.0","null","es-419,es;q=0.9","true","","","","","","","","","","","","","",""
"","","","","","html-keyboard-response","42","303687","0.0-25.0","69","1","2023-11-01 20:35:51","a725c3012b74bf33a1020a98cb69c237","190.190.193.126","Mozilla/5.0 (Windows NT 10.0; Win64; x64) AppleWebKit/537.36 (KHTML, like Gecko) Chrome/118.0.0.0 Safari/537.36","WebKit","Chrome","118.0.0.0","Windows","10.0","null","es-419,es;q=0.9","true","null","<div style=""font-size:100px;"">X</div>","null","","","fixation","","","","","","","",""
"","","","","","audio-keyboard-response","43","304866","0.0-26.0","69","1","2023-11-01 20:35:51","a725c3012b74bf33a1020a98cb69c237","190.190.193.126","Mozilla/5.0 (Windows NT 10.0; Win64; x64) AppleWebKit/537.36 (KHTML, like Gecko) Chrome/118.0.0.0 Safari/537.36","WebKit","Chrome","118.0.0.0","Windows","10.0","null","es-419,es;q=0.9","true","null","tones/880hz_short.mp3","null","","","tone_number_task","1025","32","tones/880hz_short.mp3","1175","100","0","0",""
"","","","","","html-keyboard-response","44","306070","0.0-29.0-0.0","69","1","2023-11-01 20:35:51","a725c3012b74bf33a1020a98cb69c237","190.190.193.126","Mozilla/5.0 (Windows NT 10.0; Win64; x64) AppleWebKit/537.36 (KHTML, like Gecko) Chrome/118.0.0.0 Safari/537.36","WebKit","Chrome","118.0.0.0","Windows","10.0","null","es-419,es;q=0.9","true","null","tones/880hz_short.mp3","null","","","empty_block","","32","","","","0","0",""
"","","","","","html-keyboard-response","45","307092","0.0-29.0-1.0","69","1","2023-11-01 20:35:51","a725c3012b74bf33a1020a98cb69c237","190.190.193.126","Mozilla/5.0 (Windows NT 10.0; Win64; x64) AppleWebKit/537.36 (KHTML, like Gecko) Chrome/118.0.0.0 Safari/537.36","WebKit","Chrome","118.0.0.0","Windows","10.0","null","es-419,es;q=0.9","true","1020","tones/880hz_short.mp3","s","","","empty_block","","32","","","","0","0",""
"","","","","","html-keyboard-response","46","310028","0.0-31.0","69","1","2023-11-01 20:35:51","a725c3012b74bf33a1020a98cb69c237","190.190.193.126","Mozilla/5.0 (Windows NT 10.0; Win64; x64) AppleWebKit/537.36 (KHTML, like Gecko) Chrome/118.0.0.0 Safari/537.36","WebKit","Chrome","118.0.0.0","Windows","10.0","null","es-419,es;q=0.9","true","null","<div style=""font-size:100px;"">X</div>","null","","","fixation","","","","","","","",""
"","","","","","audio-keyboard-response","47","311174","0.0-32.0","69","1","2023-11-01 20:35:51","a725c3012b74bf33a1020a98cb69c237","190.190.193.126","Mozilla/5.0 (Windows NT 10.0; Win64; x64) AppleWebKit/537.36 (KHTML, like Gecko) Chrome/118.0.0.0 Safari/537.36","WebKit","Chrome","118.0.0.0","Windows","10.0","null","es-419,es;q=0.9","true","null","tones/440hz_short.mp3","null","","","tone_number_task","992.5","42","tones/440hz_short.mp3","1142.5","100","0","1",""
"","","","","","html-keyboard-response","48","311729","0.0-35.0-0.0","69","1","2023-11-01 20:35:51","a725c3012b74bf33a1020a98cb69c237","190.190.193.126","Mozilla/5.0 (Windows NT 10.0; Win64; x64) AppleWebKit/537.36 (KHTML, like Gecko) Chrome/118.0.0.0 Safari/537.36","WebKit","Chrome","118.0.0.0","Windows","10.0","null","es-419,es;q=0.9","true","554","tones/440hz_short.mp3","a","","","empty_block","","42","","","","0","1",""
"","","","","","html-keyboard-response","49","312212","0.0-35.0-1.0","69","1","2023-11-01 20:35:51","a725c3012b74bf33a1020a98cb69c237","190.190.193.126","Mozilla/5.0 (Windows NT 10.0; Win64; x64) AppleWebKit/537.36 (KHTML, like Gecko) Chrome/118.0.0.0 Safari/537.36","WebKit","Chrome","118.0.0.0","Windows","10.0","null","es-419,es;q=0.9","true","481","tones/440hz_short.mp3","j","","","empty_block","","42","","","","0","1",""
"","","","","","html-keyboard-response","50","315145","0.0-37.0","69","1","2023-11-01 20:35:51","a725c3012b74bf33a1020a98cb69c237","190.190.193.126","Mozilla/5.0 (Windows NT 10.0; Win64; x64) AppleWebKit/537.36 (KHTML, like Gecko) Chrome/118.0.0.0 Safari/537.36","WebKit","Chrome","118.0.0.0","Windows","10.0","null","es-419,es;q=0.9","true","null","<div style=""font-size:100px;"">X</div>","null","","","fixation","","","","","","","",""
"","","","","","audio-keyboard-response","51","316289","0.0-38.0","69","1","2023-11-01 20:35:51","a725c3012b74bf33a1020a98cb69c237","190.190.193.126","Mozilla/5.0 (Windows NT 10.0; Win64; x64) AppleWebKit/537.36 (KHTML, like Gecko) Chrome/118.0.0.0 Safari/537.36","WebKit","Chrome","118.0.0.0","Windows","10.0","null","es-419,es;q=0.9","true","null","tones/880hz_short.mp3","null","","","tone_number_task","992.5","61","tones/880hz_short.mp3","1142.5","100","0","2",""
"","","","","","html-keyboard-response","52","316899","0.0-41.0-0.0","69","1","2023-11-01 20:35:51","a725c3012b74bf33a1020a98cb69c237","190.190.193.126","Mozilla/5.0 (Windows NT 10.0; Win64; x64) AppleWebKit/537.36 (KHTML, like Gecko) Chrome/118.0.0.0 Safari/537.36","WebKit","Chrome","118.0.0.0","Windows","10.0","null","es-419,es;q=0.9","true","608","tones/880hz_short.mp3","s","","","empty_block","","61","","","","0","2",""
"","","","","","html-keyboard-response","53","317099","0.0-41.0-1.0","69","1","2023-11-01 20:35:51","a725c3012b74bf33a1020a98cb69c237","190.190.193.126","Mozilla/5.0 (Windows NT 10.0; Win64; x64) AppleWebKit/537.36 (KHTML, like Gecko) Chrome/118.0.0.0 Safari/537.36","WebKit","Chrome","118.0.0.0","Windows","10.0","null","es-419,es;q=0.9","true","198","tones/880hz_short.mp3","k","","","empty_block","","61","","","","0","2",""
"","","","","","html-keyboard-response","54","320032","0.0-43.0","69","1","2023-11-01 20:35:51","a725c3012b74bf33a1020a98cb69c237","190.190.193.126","Mozilla/5.0 (Windows NT 10.0; Win64; x64) AppleWebKit/537.36 (KHTML, like Gecko) Chrome/118.0.0.0 Safari/537.36","WebKit","Chrome","118.0.0.0","Windows","10.0","null","es-419,es;q=0.9","true","null","<div style=""font-size:100px;"">X</div>","null","","","fixation","","","","","","","",""
"","","","","","audio-keyboard-response","55","320186","0.0-44.0","69","1","2023-11-01 20:35:51","a725c3012b74bf33a1020a98cb69c237","190.190.193.126","Mozilla/5.0 (Windows NT 10.0; Win64; x64) AppleWebKit/537.36 (KHTML, like Gecko) Chrome/118.0.0.0 Safari/537.36","WebKit","Chrome","118.0.0.0","Windows","10.0","null","es-419,es;q=0.9","true","null","tones/880hz_short.mp3","null","","","tone_number_task","0","60","tones/880hz_short.mp3","150","100","0","3",""
"","","","","","html-keyboard-response","56","321389","0.0-47.0-0.0","69","1","2023-11-01 20:35:51","a725c3012b74bf33a1020a98cb69c237","190.190.193.126","Mozilla/5.0 (Windows NT 10.0; Win64; x64) AppleWebKit/537.36 (KHTML, like Gecko) Chrome/118.0.0.0 Safari/537.36","WebKit","Chrome","118.0.0.0","Windows","10.0","null","es-419,es;q=0.9","true","null","tones/880hz_short.mp3","null","","","empty_block","","60","","","","0","3",""
"","","","","","html-keyboard-response","57","321516","0.0-47.0-1.0","69","1","2023-11-01 20:35:51","a725c3012b74bf33a1020a98cb69c237","190.190.193.126","Mozilla/5.0 (Windows NT 10.0; Win64; x64) AppleWebKit/537.36 (KHTML, like Gecko) Chrome/118.0.0.0 Safari/537.36","WebKit","Chrome","118.0.0.0","Windows","10.0","null","es-419,es;q=0.9","true","125","tones/880hz_short.mp3","s","","","empty_block","","60","","","","0","3",""
"","","","","","html-keyboard-response","58","324451","0.0-49.0","69","1","2023-11-01 20:35:51","a725c3012b74bf33a1020a98cb69c237","190.190.193.126","Mozilla/5.0 (Windows NT 10.0; Win64; x64) AppleWebKit/537.36 (KHTML, like Gecko) Chrome/118.0.0.0 Safari/537.36","WebKit","Chrome","118.0.0.0","Windows","10.0","null","es-419,es;q=0.9","true","null","<div style=""font-size:100px;"">X</div>","null","","","fixation","","","","","","","",""
"","","","","","audio-keyboard-response","59","324708","0.0-50.0","69","1","2023-11-01 20:35:51","a725c3012b74bf33a1020a98cb69c237","190.190.193.126","Mozilla/5.0 (Windows NT 10.0; Win64; x64) AppleWebKit/537.36 (KHTML, like Gecko) Chrome/118.0.0.0 Safari/537.36","WebKit","Chrome","118.0.0.0","Windows","10.0","null","es-419,es;q=0.9","true","null","tones/440hz_short.mp3","null","","","tone_number_task","102.5","55","tones/440hz_short.mp3","252.5","100","0","4",""
"","","","","","html-keyboard-response","60","325733","0.0-53.0-0.0","69","1","2023-11-01 20:35:51","a725c3012b74bf33a1020a98cb69c237","190.190.193.126","Mozilla/5.0 (Windows NT 10.0; Win64; x64) AppleWebKit/537.36 (KHTML, like Gecko) Chrome/118.0.0.0 Safari/537.36","WebKit","Chrome","118.0.0.0","Windows","10.0","null","es-419,es;q=0.9","true","1021","tones/440hz_short.mp3","s","","","empty_block","","55","","","","0","4",""
"","","","","","html-keyboard-response","61","325897","0.0-53.0-1.0","69","1","2023-11-01 20:35:51","a725c3012b74bf33a1020a98cb69c237","190.190.193.126","Mozilla/5.0 (Windows NT 10.0; Win64; x64) AppleWebKit/537.36 (KHTML, like Gecko) Chrome/118.0.0.0 Safari/537.36","WebKit","Chrome","118.0.0.0","Windows","10.0","null","es-419,es;q=0.9","true","161","tones/440hz_short.mp3","k","","","empty_block","","55","","","","0","4",""
"","","","","","html-keyboard-response","62","328833","0.0-55.0","69","1","2023-11-01 20:35:51","a725c3012b74bf33a1020a98cb69c237","190.190.193.126","Mozilla/5.0 (Windows NT 10.0; Win64; x64) AppleWebKit/537.36 (KHTML, like Gecko) Chrome/118.0.0.0 Safari/537.36","WebKit","Chrome","118.0.0.0","Windows","10.0","null","es-419,es;q=0.9","true","null","<div style=""font-size:100px;"">X</div>","null","","","fixation","","","","","","","",""
"","","","","","audio-keyboard-response","63","330013","0.0-56.0","69","1","2023-11-01 20:35:51","a725c3012b74bf33a1020a98cb69c237","190.190.193.126","Mozilla/5.0 (Windows NT 10.0; Win64; x64) AppleWebKit/537.36 (KHTML, like Gecko) Chrome/118.0.0.0 Safari/537.36","WebKit","Chrome","118.0.0.0","Windows","10.0","null","es-419,es;q=0.9","true","null","tones/440hz_short.mp3","null","","","tone_number_task","1025","43","tones/440hz_short.mp3","1175","100","0","5",""
"","","","","","html-keyboard-response","64","330878","0.0-59.0-0.0","69","1","2023-11-01 20:35:51","a725c3012b74bf33a1020a98cb69c237","190.190.193.126","Mozilla/5.0 (Windows NT 10.0; Win64; x64) AppleWebKit/537.36 (KHTML, like Gecko) Chrome/118.0.0.0 Safari/537.36","WebKit","Chrome","118.0.0.0","Windows","10.0","null","es-419,es;q=0.9","true","861","tones/440hz_short.mp3","a","","","empty_block","","43","","","","0","5",""
"","","","","","html-keyboard-response","65","331110","0.0-59.0-1.0","69","1","2023-11-01 20:35:51","a725c3012b74bf33a1020a98cb69c237","190.190.193.126","Mozilla/5.0 (Windows NT 10.0; Win64; x64) AppleWebKit/537.36 (KHTML, like Gecko) Chrome/118.0.0.0 Safari/537.36","WebKit","Chrome","118.0.0.0","Windows","10.0","null","es-419,es;q=0.9","true","228","tones/440hz_short.mp3","j","","","empty_block","","43","","","","0","5",""
"","","","","","html-keyboard-response","66","334046","0.0-61.0","69","1","2023-11-01 20:35:51","a725c3012b74bf33a1020a98cb69c237","190.190.193.126","Mozilla/5.0 (Windows NT 10.0; Win64; x64) AppleWebKit/537.36 (KHTML, like Gecko) Chrome/118.0.0.0 Safari/537.36","WebKit","Chrome","118.0.0.0","Windows","10.0","null","es-419,es;q=0.9","true","null","<div style=""font-size:100px;"">X</div>","null","","","fixation","","","","","","","",""
"","","","","","audio-keyboard-response","67","334199","0.0-62.0","69","1","2023-11-01 20:35:51","a725c3012b74bf33a1020a98cb69c237","190.190.193.126","Mozilla/5.0 (Windows NT 10.0; Win64; x64) AppleWebKit/537.36 (KHTML, like Gecko) Chrome/118.0.0.0 Safari/537.36","WebKit","Chrome","118.0.0.0","Windows","10.0","null","es-419,es;q=0.9","true","null","tones/440hz_short.mp3","null","","","tone_number_task","0","35","tones/440hz_short.mp3","150","100","0","6",""
"","","","","","html-keyboard-response","68","335283","0.0-65.0-0.0","69","1","2023-11-01 20:35:51","a725c3012b74bf33a1020a98cb69c237","190.190.193.126","Mozilla/5.0 (Windows NT 10.0; Win64; x64) AppleWebKit/537.36 (KHTML, like Gecko) Chrome/118.0.0.0 Safari/537.36","WebKit","Chrome","118.0.0.0","Windows","10.0","null","es-419,es;q=0.9","true","1082","tones/440hz_short.mp3","a","","","empty_block","","35","","","","0","6",""
"","","","","","html-keyboard-response","69","335459","0.0-65.0-1.0","69","1","2023-11-01 20:35:51","a725c3012b74bf33a1020a98cb69c237","190.190.193.126","Mozilla/5.0 (Windows NT 10.0; Win64; x64) AppleWebKit/537.36 (KHTML, like Gecko) Chrome/118.0.0.0 Safari/537.36","WebKit","Chrome","118.0.0.0","Windows","10.0","null","es-419,es;q=0.9","true","172","tones/440hz_short.mp3","j","","","empty_block","","35","","","","0","6",""
"","","","","","html-keyboard-response","70","338396","0.0-67.0","69","1","2023-11-01 20:35:51","a725c3012b74bf33a1020a98cb69c237","190.190.193.126","Mozilla/5.0 (Windows NT 10.0; Win64; x64) AppleWebKit/537.36 (KHTML, like Gecko) Chrome/118.0.0.0 Safari/537.36","WebKit","Chrome","118.0.0.0","Windows","10.0","null","es-419,es;q=0.9","true","null","<div style=""font-size:100px;"">X</div>","null","","","fixation","","","","","","","",""
"","","","","","audio-keyboard-response","71","339542","0.0-68.0","69","1","2023-11-01 20:35:51","a725c3012b74bf33a1020a98cb69c237","190.190.193.126","Mozilla/5.0 (Windows NT 10.0; Win64; x64) AppleWebKit/537.36 (KHTML, like Gecko) Chrome/118.0.0.0 Safari/537.36","WebKit","Chrome","118.0.0.0","Windows","10.0","null","es-419,es;q=0.9","true","null","tones/880hz_short.mp3","null","","","tone_number_task","992.5","58","tones/880hz_short.mp3","1142.5","100","0","7",""
"","","","","","html-keyboard-response","72","340048","0.0-71.0-0.0","69","1","2023-11-01 20:35:51","a725c3012b74bf33a1020a98cb69c237","190.190.193.126","Mozilla/5.0 (Windows NT 10.0; Win64; x64) AppleWebKit/537.36 (KHTML, like Gecko) Chrome/118.0.0.0 Safari/537.36","WebKit","Chrome","118.0.0.0","Windows","10.0","null","es-419,es;q=0.9","true","502","tones/880hz_short.mp3","s","","","empty_block","","58","","","","0","7",""
"","","","","","html-keyboard-response","73","340260","0.0-71.0-1.0","69","1","2023-11-01 20:35:51","a725c3012b74bf33a1020a98cb69c237","190.190.193.126","Mozilla/5.0 (Windows NT 10.0; Win64; x64) AppleWebKit/537.36 (KHTML, like Gecko) Chrome/118.0.0.0 Safari/537.36","WebKit","Chrome","118.0.0.0","Windows","10.0","null","es-419,es;q=0.9","true","210","tones/880hz_short.mp3","k","","","empty_block","","58","","","","0","7",""
"","","","","","html-keyboard-response","74","343196","0.0-73.0","69","1","2023-11-01 20:35:51","a725c3012b74bf33a1020a98cb69c237","190.190.193.126","Mozilla/5.0 (Windows NT 10.0; Win64; x64) AppleWebKit/537.36 (KHTML, like Gecko) Chrome/118.0.0.0 Safari/537.36","WebKit","Chrome","118.0.0.0","Windows","10.0","null","es-419,es;q=0.9","true","null","<div style=""font-size:100px;"">X</div>","null","","","fixation","","","","","","","",""
"","","","","","audio-keyboard-response","75","343351","0.0-74.0","69","1","2023-11-01 20:35:51","a725c3012b74bf33a1020a98cb69c237","190.190.193.126","Mozilla/5.0 (Windows NT 10.0; Win64; x64) AppleWebKit/537.36 (KHTML, like Gecko) Chrome/118.0.0.0 Safari/537.36","WebKit","Chrome","118.0.0.0","Windows","10.0","null","es-419,es;q=0.9","true","null","tones/440hz_short.mp3","null","","","tone_number_task","0","60","tones/440hz_short.mp3","150","100","0","8",""
"","","","","","html-keyboard-response","76","344557","0.0-77.0-0.0","69","1","2023-11-01 20:35:51","a725c3012b74bf33a1020a98cb69c237","190.190.193.126","Mozilla/5.0 (Windows NT 10.0; Win64; x64) AppleWebKit/537.36 (KHTML, like Gecko) Chrome/118.0.0.0 Safari/537.36","WebKit","Chrome","118.0.0.0","Windows","10.0","null","es-419,es;q=0.9","true","null","tones/440hz_short.mp3","null","","","empty_block","","60","","","","0","8",""
"","","","","","html-keyboard-response","77","344852","0.0-77.0-1.0","69","1","2023-11-01 20:35:51","a725c3012b74bf33a1020a98cb69c237","190.190.193.126","Mozilla/5.0 (Windows NT 10.0; Win64; x64) AppleWebKit/537.36 (KHTML, like Gecko) Chrome/118.0.0.0 Safari/537.36","WebKit","Chrome","118.0.0.0","Windows","10.0","null","es-419,es;q=0.9","true","293","tones/440hz_short.mp3","a","","","empty_block","","60","","","","0","8",""
"","","","","","html-keyboard-response","78","347786","0.0-79.0","69","1","2023-11-01 20:35:51","a725c3012b74bf33a1020a98cb69c237","190.190.193.126","Mozilla/5.0 (Windows NT 10.0; Win64; x64) AppleWebKit/537.36 (KHTML, like Gecko) Chrome/118.0.0.0 Safari/537.36","WebKit","Chrome","118.0.0.0","Windows","10.0","null","es-419,es;q=0.9","true","null","<div style=""font-size:100px;"">X</div>","null","","","fixation","","","","","","","",""
"","","","","","audio-keyboard-response","79","348965","0.0-80.0","69","1","2023-11-01 20:35:51","a725c3012b74bf33a1020a98cb69c237","190.190.193.126","Mozilla/5.0 (Windows NT 10.0; Win64; x64) AppleWebKit/537.36 (KHTML, like Gecko) Chrome/118.0.0.0 Safari/537.36","WebKit","Chrome","118.0.0.0","Windows","10.0","null","es-419,es;q=0.9","true","null","tones/440hz_short.mp3","null","","","tone_number_task","1025","48","tones/440hz_short.mp3","1175","100","0","9",""
"","","","","","html-keyboard-response","80","349935","0.0-83.0-0.0","69","1","2023-11-01 20:35:51","a725c3012b74bf33a1020a98cb69c237","190.190.193.126","Mozilla/5.0 (Windows NT 10.0; Win64; x64) AppleWebKit/537.36 (KHTML, like Gecko) Chrome/118.0.0.0 Safari/537.36","WebKit","Chrome","118.0.0.0","Windows","10.0","null","es-419,es;q=0.9","true","968","tones/440hz_short.mp3","a","","","empty_block","","48","","","","0","9",""
"","","","","","html-keyboard-response","81","350210","0.0-83.0-1.0","69","1","2023-11-01 20:35:51","a725c3012b74bf33a1020a98cb69c237","190.190.193.126","Mozilla/5.0 (Windows NT 10.0; Win64; x64) AppleWebKit/537.36 (KHTML, like Gecko) Chrome/118.0.0.0 Safari/537.36","WebKit","Chrome","118.0.0.0","Windows","10.0","null","es-419,es;q=0.9","true","270","tones/440hz_short.mp3","k","","","empty_block","","48","","","","0","9",""
"","","","","","html-keyboard-response","82","353148","0.0-85.0","69","1","2023-11-01 20:35:51","a725c3012b74bf33a1020a98cb69c237","190.190.193.126","Mozilla/5.0 (Windows NT 10.0; Win64; x64) AppleWebKit/537.36 (KHTML, like Gecko) Chrome/118.0.0.0 Safari/537.36","WebKit","Chrome","118.0.0.0","Windows","10.0","null","es-419,es;q=0.9","true","null","<div style=""font-size:100px;"">X</div>","null","","","fixation","","","","","","","",""
"","","","","","audio-keyboard-response","83","354292","0.0-86.0","69","1","2023-11-01 20:35:51","a725c3012b74bf33a1020a98cb69c237","190.190.193.126","Mozilla/5.0 (Windows NT 10.0; Win64; x64) AppleWebKit/537.36 (KHTML, like Gecko) Chrome/118.0.0.0 Safari/537.36","WebKit","Chrome","118.0.0.0","Windows","10.0","null","es-419,es;q=0.9","true","null","tones/880hz_short.mp3","null","","","tone_number_task","992.5","30","tones/880hz_short.mp3","1142.5","100","0","10",""
"","","","","","html-keyboard-response","84","355320","0.0-89.0-0.0","69","1","2023-11-01 20:35:51","a725c3012b74bf33a1020a98cb69c237","190.190.193.126","Mozilla/5.0 (Windows NT 10.0; Win64; x64) AppleWebKit/537.36 (KHTML, like Gecko) Chrome/118.0.0.0 Safari/537.36","WebKit","Chrome","118.0.0.0","Windows","10.0","null","es-419,es;q=0.9","true","1024","tones/880hz_short.mp3","s","","","empty_block","","30","","","","0","10",""
"","","","","","html-keyboard-response","85","355510","0.0-89.0-1.0","69","1","2023-11-01 20:35:51","a725c3012b74bf33a1020a98cb69c237","190.190.193.126","Mozilla/5.0 (Windows NT 10.0; Win64; x64) AppleWebKit/537.36 (KHTML, like Gecko) Chrome/118.0.0.0 Safari/537.36","WebKit","Chrome","118.0.0.0","Windows","10.0","null","es-419,es;q=0.9","true","188","tones/880hz_short.mp3","j","","","empty_block","","30","","","","0","10",""
"","","","","","html-keyboard-response","86","358443","0.0-91.0","69","1","2023-11-01 20:35:51","a725c3012b74bf33a1020a98cb69c237","190.190.193.126","Mozilla/5.0 (Windows NT 10.0; Win64; x64) AppleWebKit/537.36 (KHTML, like Gecko) Chrome/118.0.0.0 Safari/537.36","WebKit","Chrome","118.0.0.0","Windows","10.0","null","es-419,es;q=0.9","true","null","<div style=""font-size:100px;"">X</div>","null","","","fixation","","","","","","","",""
"","","","","","audio-keyboard-response","87","359590","0.0-92.0","69","1","2023-11-01 20:35:51","a725c3012b74bf33a1020a98cb69c237","190.190.193.126","Mozilla/5.0 (Windows NT 10.0; Win64; x64) AppleWebKit/537.36 (KHTML, like Gecko) Chrome/118.0.0.0 Safari/537.36","WebKit","Chrome","118.0.0.0","Windows","10.0","null","es-419,es;q=0.9","true","null","tones/880hz_short.mp3","null","","","tone_number_task","992.5","21","tones/880hz_short.mp3","1142.5","100","0","11",""
"","","","","","html-keyboard-response","88","360791","0.0-95.0-0.0","69","1","2023-11-01 20:35:51","a725c3012b74bf33a1020a98cb69c237","190.190.193.126","Mozilla/5.0 (Windows NT 10.0; Win64; x64) AppleWebKit/537.36 (KHTML, like Gecko) Chrome/118.0.0.0 Safari/537.36","WebKit","Chrome","118.0.0.0","Windows","10.0","null","es-419,es;q=0.9","true","1198","tones/880hz_short.mp3","s","","","empty_block","","21","","","","0","11",""
"","","","","","html-keyboard-response","89","361116","0.0-95.0-1.0","69","1","2023-11-01 20:35:51","a725c3012b74bf33a1020a98cb69c237","190.190.193.126","Mozilla/5.0 (Windows NT 10.0; Win64; x64) AppleWebKit/537.36 (KHTML, like Gecko) Chrome/118.0.0.0 Safari/537.36","WebKit","Chrome","118.0.0.0","Windows","10.0","null","es-419,es;q=0.9","true","320","tones/880hz_short.mp3","j","","","empty_block","","21","","","","0","11",""
"","","","","","html-keyboard-response","90","364052","0.0-97.0","69","1","2023-11-01 20:35:51","a725c3012b74bf33a1020a98cb69c237","190.190.193.126","Mozilla/5.0 (Windows NT 10.0; Win64; x64) AppleWebKit/537.36 (KHTML, like Gecko) Chrome/118.0.0.0 Safari/537.36","WebKit","Chrome","118.0.0.0","Windows","10.0","null","es-419,es;q=0.9","true","null","<div style=""font-size:100px;"">X</div>","null","","","fixation","","","","","","","",""
"","","","","","audio-keyboard-response","91","364307","0.0-98.0","69","1","2023-11-01 20:35:51","a725c3012b74bf33a1020a98cb69c237","190.190.193.126","Mozilla/5.0 (Windows NT 10.0; Win64; x64) AppleWebKit/537.36 (KHTML, like Gecko) Chrome/118.0.0.0 Safari/537.36","WebKit","Chrome","118.0.0.0","Windows","10.0","null","es-419,es;q=0.9","true","null","tones/440hz_short.mp3","null","","","tone_number_task","102.5","27","tones/440hz_short.mp3","252.5","100","0","12",""
"","","","","","html-keyboard-response","92","365510","0.0-101.0-0.0","69","1","2023-11-01 20:35:51","a725c3012b74bf33a1020a98cb69c237","190.190.193.126","Mozilla/5.0 (Windows NT 10.0; Win64; x64) AppleWebKit/537.36 (KHTML, like Gecko) Chrome/118.0.0.0 Safari/537.36","WebKit","Chrome","118.0.0.0","Windows","10.0","null","es-419,es;q=0.9","true","null","tones/440hz_short.mp3","null","","","empty_block","","27","","","","0","12",""
"","","","","","html-keyboard-response","93","366088","0.0-101.0-1.0","69","1","2023-11-01 20:35:51","a725c3012b74bf33a1020a98cb69c237","190.190.193.126","Mozilla/5.0 (Windows NT 10.0; Win64; x64) AppleWebKit/537.36 (KHTML, like Gecko) Chrome/118.0.0.0 Safari/537.36","WebKit","Chrome","118.0.0.0","Windows","10.0","null","es-419,es;q=0.9","true","574","tones/440hz_short.mp3","a","","","empty_block","","27","","","","0","12",""
"","","","","","html-keyboard-response","94","369024","0.0-103.0","69","1","2023-11-01 20:35:51","a725c3012b74bf33a1020a98cb69c237","190.190.193.126","Mozilla/5.0 (Windows NT 10.0; Win64; x64) AppleWebKit/537.36 (KHTML, like Gecko) Chrome/118.0.0.0 Safari/537.36","WebKit","Chrome","118.0.0.0","Windows","10.0","null","es-419,es;q=0.9","true","null","<div style=""font-size:100px;"">X</div>","null","","","fixation","","","","","","","",""
"","","","","","audio-keyboard-response","95","370205","0.0-104.0","69","1","2023-11-01 20:35:51","a725c3012b74bf33a1020a98cb69c237","190.190.193.126","Mozilla/5.0 (Windows NT 10.0; Win64; x64) AppleWebKit/537.36 (KHTML, like Gecko) Chrome/118.0.0.0 Safari/537.36","WebKit","Chrome","118.0.0.0","Windows","10.0","null","es-419,es;q=0.9","true","null","tones/880hz_short.mp3","null","","","tone_number_task","1025","30","tones/880hz_short.mp3","1175","100","0","13",""
"","","","","","html-keyboard-response","96","370960","0.0-107.0-0.0","69","1","2023-11-01 20:35:51","a725c3012b74bf33a1020a98cb69c237","190.190.193.126","Mozilla/5.0 (Windows NT 10.0; Win64; x64) AppleWebKit/537.36 (KHTML, like Gecko) Chrome/118.0.0.0 Safari/537.36","WebKit","Chrome","118.0.0.0","Windows","10.0","null","es-419,es;q=0.9","true","752","tones/880hz_short.mp3","s","","","empty_block","","30","","","","0","13",""
"","","","","","html-keyboard-response","97","371150","0.0-107.0-1.0","69","1","2023-11-01 20:35:51","a725c3012b74bf33a1020a98cb69c237","190.190.193.126","Mozilla/5.0 (Windows NT 10.0; Win64; x64) AppleWebKit/537.36 (KHTML, like Gecko) Chrome/118.0.0.0 Safari/537.36","WebKit","Chrome","118.0.0.0","Windows","10.0","null","es-419,es;q=0.9","true","186","tones/880hz_short.mp3","j","","","empty_block","","30","","","","0","13",""
"","","","","","html-keyboard-response","98","374086","0.0-109.0","69","1","2023-11-01 20:35:51","a725c3012b74bf33a1020a98cb69c237","190.190.193.126","Mozilla/5.0 (Windows NT 10.0; Win64; x64) AppleWebKit/537.36 (KHTML, like Gecko) Chrome/118.0.0.0 Safari/537.36","WebKit","Chrome","118.0.0.0","Windows","10.0","null","es-419,es;q=0.9","true","null","<div style=""font-size:100px;"">X</div>","null","","","fixation","","","","","","","",""
"","","","","","audio-keyboard-response","99","375266","0.0-110.0","69","1","2023-11-01 20:35:51","a725c3012b74bf33a1020a98cb69c237","190.190.193.126","Mozilla/5.0 (Windows NT 10.0; Win64; x64) AppleWebKit/537.36 (KHTML, like Gecko) Chrome/118.0.0.0 Safari/537.36","WebKit","Chrome","118.0.0.0","Windows","10.0","null","es-419,es;q=0.9","true","null","tones/440hz_short.mp3","null","","","tone_number_task","1025","29","tones/440hz_short.mp3","1175","100","0","14",""
"","","","","","html-keyboard-response","100","376008","0.0-113.0-0.0","69","1","2023-11-01 20:35:51","a725c3012b74bf33a1020a98cb69c237","190.190.193.126","Mozilla/5.0 (Windows NT 10.0; Win64; x64) AppleWebKit/537.36 (KHTML, like Gecko) Chrome/118.0.0.0 Safari/537.36","WebKit","Chrome","118.0.0.0","Windows","10.0","null","es-419,es;q=0.9","true","739","tones/440hz_short.mp3","a","","","empty_block","","29","","","","0","14",""
"","","","","","html-keyboard-response","101","376375","0.0-113.0-1.0","69","1","2023-11-01 20:35:51","a725c3012b74bf33a1020a98cb69c237","190.190.193.126","Mozilla/5.0 (Windows NT 10.0; Win64; x64) AppleWebKit/537.36 (KHTML, like Gecko) Chrome/118.0.0.0 Safari/537.36","WebKit","Chrome","118.0.0.0","Windows","10.0","null","es-419,es;q=0.9","true","365","tones/440hz_short.mp3","j","","","empty_block","","29","","","","0","14",""
"","","","","","html-keyboard-response","102","379311","0.0-115.0","69","1","2023-11-01 20:35:51","a725c3012b74bf33a1020a98cb69c237","190.190.193.126","Mozilla/5.0 (Windows NT 10.0; Win64; x64) AppleWebKit/537.36 (KHTML, like Gecko) Chrome/118.0.0.0 Safari/537.36","WebKit","Chrome","118.0.0.0","Windows","10.0","null","es-419,es;q=0.9","true","null","<div style=""font-size:100px;"">X</div>","null","","","fixation","","","","","","","",""
"","","","","","audio-keyboard-response","103","379568","0.0-116.0","69","1","2023-11-01 20:35:51","a725c3012b74bf33a1020a98cb69c237","190.190.193.126","Mozilla/5.0 (Windows NT 10.0; Win64; x64) AppleWebKit/537.36 (KHTML, like Gecko) Chrome/118.0.0.0 Safari/537.36","WebKit","Chrome","118.0.0.0","Windows","10.0","null","es-419,es;q=0.9","true","null","tones/440hz_short.mp3","null","","","tone_number_task","102.5","28","tones/440hz_short.mp3","252.5","100","0","15",""
"","","","","","html-keyboard-response","104","380511","0.0-119.0-0.0","69","1","2023-11-01 20:35:51","a725c3012b74bf33a1020a98cb69c237","190.190.193.126","Mozilla/5.0 (Windows NT 10.0; Win64; x64) AppleWebKit/537.36 (KHTML, like Gecko) Chrome/118.0.0.0 Safari/537.36","WebKit","Chrome","118.0.0.0","Windows","10.0","null","es-419,es;q=0.9","true","937","tones/440hz_short.mp3","a","","","empty_block","","28","","","","0","15",""
"","","","","","html-keyboard-response","105","380686","0.0-119.0-1.0","69","1","2023-11-01 20:35:51","a725c3012b74bf33a1020a98cb69c237","190.190.193.126","Mozilla/5.0 (Windows NT 10.0; Win64; x64) AppleWebKit/537.36 (KHTML, like Gecko) Chrome/118.0.0.0 Safari/537.36","WebKit","Chrome","118.0.0.0","Windows","10.0","null","es-419,es;q=0.9","true","171","tones/440hz_short.mp3","j","","","empty_block","","28","","","","0","15",""
"","","","","","html-keyboard-response","106","383622","0.0-121.0","69","1","2023-11-01 20:35:51","a725c3012b74bf33a1020a98cb69c237","190.190.193.126","Mozilla/5.0 (Windows NT 10.0; Win64; x64) AppleWebKit/537.36 (KHTML, like Gecko) Chrome/118.0.0.0 Safari/537.36","WebKit","Chrome","118.0.0.0","Windows","10.0","null","es-419,es;q=0.9","true","null","<div style=""font-size:100px;"">X</div>","null","","","fixation","","","","","","","",""
"","","","","","audio-keyboard-response","107","383778","0.0-122.0","69","1","2023-11-01 20:35:51","a725c3012b74bf33a1020a98cb69c237","190.190.193.126","Mozilla/5.0 (Windows NT 10.0; Win64; x64) AppleWebKit/537.36 (KHTML, like Gecko) Chrome/118.0.0.0 Safari/537.36","WebKit","Chrome","118.0.0.0","Windows","10.0","null","es-419,es;q=0.9","true","null","tones/880hz_short.mp3","null","","","tone_number_task","0","33","tones/880hz_short.mp3","150","100","0","16",""
"","","","","","html-keyboard-response","108","384983","0.0-125.0-0.0","69","1","2023-11-01 20:35:51","a725c3012b74bf33a1020a98cb69c237","190.190.193.126","Mozilla/5.0 (Windows NT 10.0; Win64; x64) AppleWebKit/537.36 (KHTML, like Gecko) Chrome/118.0.0.0 Safari/537.36","WebKit","Chrome","118.0.0.0","Windows","10.0","null","es-419,es;q=0.9","true","null","tones/880hz_short.mp3","null","","","empty_block","","33","","","","0","16",""
"","","","","","html-keyboard-response","109","385666","0.0-125.0-1.0","69","1","2023-11-01 20:35:51","a725c3012b74bf33a1020a98cb69c237","190.190.193.126","Mozilla/5.0 (Windows NT 10.0; Win64; x64) AppleWebKit/537.36 (KHTML, like Gecko) Chrome/118.0.0.0 Safari/537.36","WebKit","Chrome","118.0.0.0","Windows","10.0","null","es-419,es;q=0.9","true","679","tones/880hz_short.mp3","s","","","empty_block","","33","","","","0","16",""
"","","","","","html-keyboard-response","110","388603","0.0-127.0","69","1","2023-11-01 20:35:51","a725c3012b74bf33a1020a98cb69c237","190.190.193.126","Mozilla/5.0 (Windows NT 10.0; Win64; x64) AppleWebKit/537.36 (KHTML, like Gecko) Chrome/118.0.0.0 Safari/537.36","WebKit","Chrome","118.0.0.0","Windows","10.0","null","es-419,es;q=0.9","true","null","<div style=""font-size:100px;"">X</div>","null","","","fixation","","","","","","","",""
"","","","","","audio-keyboard-response","111","389783","0.0-128.0","69","1","2023-11-01 20:35:51","a725c3012b74bf33a1020a98cb69c237","190.190.193.126","Mozilla/5.0 (Windows NT 10.0; Win64; x64) AppleWebKit/537.36 (KHTML, like Gecko) Chrome/118.0.0.0 Safari/537.36","WebKit","Chrome","118.0.0.0","Windows","10.0","null","es-419,es;q=0.9","true","null","tones/880hz_short.mp3","null","","","tone_number_task","1025","55","tones/880hz_short.mp3","1175","100","0","17",""
"","","","","","html-keyboard-response","112","390436","0.0-131.0-0.0","69","1","2023-11-01 20:35:51","a725c3012b74bf33a1020a98cb69c237","190.190.193.126","Mozilla/5.0 (Windows NT 10.0; Win64; x64) AppleWebKit/537.36 (KHTML, like Gecko) Chrome/118.0.0.0 Safari/537.36","WebKit","Chrome","118.0.0.0","Windows","10.0","null","es-419,es;q=0.9","true","648","tones/880hz_short.mp3","s","","","empty_block","","55","","","","0","17",""
"","","","","","html-keyboard-response","113","390581","0.0-131.0-1.0","69","1","2023-11-01 20:35:51","a725c3012b74bf33a1020a98cb69c237","190.190.193.126","Mozilla/5.0 (Windows NT 10.0; Win64; x64) AppleWebKit/537.36 (KHTML, like Gecko) Chrome/118.0.0.0 Safari/537.36","WebKit","Chrome","118.0.0.0","Windows","10.0","null","es-419,es;q=0.9","true","141","tones/880hz_short.mp3","k","","","empty_block","","55","","","","0","17",""
"","","","","","html-keyboard-response","114","393518","0.0-133.0","69","1","2023-11-01 20:35:51","a725c3012b74bf33a1020a98cb69c237","190.190.193.126","Mozilla/5.0 (Windows NT 10.0; Win64; x64) AppleWebKit/537.36 (KHTML, like Gecko) Chrome/118.0.0.0 Safari/537.36","WebKit","Chrome","118.0.0.0","Windows","10.0","null","es-419,es;q=0.9","true","null","<div style=""font-size:100px;"">X</div>","null","","","fixation","","","","","","","",""
"","","","","","audio-keyboard-response","115","393675","0.0-134.0","69","1","2023-11-01 20:35:51","a725c3012b74bf33a1020a98cb69c237","190.190.193.126","Mozilla/5.0 (Windows NT 10.0; Win64; x64) AppleWebKit/537.36 (KHTML, like Gecko) Chrome/118.0.0.0 Safari/537.36","WebKit","Chrome","118.0.0.0","Windows","10.0","null","es-419,es;q=0.9","true","null","tones/880hz_short.mp3","null","","","tone_number_task","0","48","tones/880hz_short.mp3","150","100","0","18",""
"","","","","","html-keyboard-response","116","394883","0.0-137.0-0.0","69","1","2023-11-01 20:35:51","a725c3012b74bf33a1020a98cb69c237","190.190.193.126","Mozilla/5.0 (Windows NT 10.0; Win64; x64) AppleWebKit/537.36 (KHTML, like Gecko) Chrome/118.0.0.0 Safari/537.36","WebKit","Chrome","118.0.0.0","Windows","10.0","null","es-419,es;q=0.9","true","null","tones/880hz_short.mp3","null","","","empty_block","","48","","","","0","18",""
"","","","","","html-keyboard-response","117","394980","0.0-137.0-1.0","69","1","2023-11-01 20:35:51","a725c3012b74bf33a1020a98cb69c237","190.190.193.126","Mozilla/5.0 (Windows NT 10.0; Win64; x64) AppleWebKit/537.36 (KHTML, like Gecko) Chrome/118.0.0.0 Safari/537.36","WebKit","Chrome","118.0.0.0","Windows","10.0","null","es-419,es;q=0.9","true","91","tones/880hz_short.mp3","s","","","empty_block","","48","","","","0","18",""
"","","","","","html-keyboard-response","118","397918","0.0-139.0","69","1","2023-11-01 20:35:51","a725c3012b74bf33a1020a98cb69c237","190.190.193.126","Mozilla/5.0 (Windows NT 10.0; Win64; x64) AppleWebKit/537.36 (KHTML, like Gecko) Chrome/118.0.0.0 Safari/537.36","WebKit","Chrome","118.0.0.0","Windows","10.0","null","es-419,es;q=0.9","true","null","<div style=""font-size:100px;"">X</div>","null","","","fixation","","","","","","","",""
"","","","","","audio-keyboard-response","119","399098","0.0-140.0","69","1","2023-11-01 20:35:51","a725c3012b74bf33a1020a98cb69c237","190.190.193.126","Mozilla/5.0 (Windows NT 10.0; Win64; x64) AppleWebKit/537.36 (KHTML, like Gecko) Chrome/118.0.0.0 Safari/537.36","WebKit","Chrome","118.0.0.0","Windows","10.0","null","es-419,es;q=0.9","true","null","tones/440hz_short.mp3","null","","","tone_number_task","1025","26","tones/440hz_short.mp3","1175","100","0","19",""
"","","","","","html-keyboard-response","120","399549","0.0-143.0-0.0","69","1","2023-11-01 20:35:51","a725c3012b74bf33a1020a98cb69c237","190.190.193.126","Mozilla/5.0 (Windows NT 10.0; Win64; x64) AppleWebKit/537.36 (KHTML, like Gecko) Chrome/118.0.0.0 Safari/537.36","WebKit","Chrome","118.0.0.0","Windows","10.0","null","es-419,es;q=0.9","true","443","tones/440hz_short.mp3","a","","","empty_block","","26","","","","0","19",""
"","","","","","html-keyboard-response","121","399711","0.0-143.0-1.0","69","1","2023-11-01 20:35:51","a725c3012b74bf33a1020a98cb69c237","190.190.193.126","Mozilla/5.0 (Windows NT 10.0; Win64; x64) AppleWebKit/537.36 (KHTML, like Gecko) Chrome/118.0.0.0 Safari/537.36","WebKit","Chrome","118.0.0.0","Windows","10.0","null","es-419,es;q=0.9","true","155","tones/440hz_short.mp3","j","","","empty_block","","26","","","","0","19",""
"","","","","","html-keyboard-response","122","402648","0.0-145.0","69","1","2023-11-01 20:35:51","a725c3012b74bf33a1020a98cb69c237","190.190.193.126","Mozilla/5.0 (Windows NT 10.0; Win64; x64) AppleWebKit/537.36 (KHTML, like Gecko) Chrome/118.0.0.0 Safari/537.36","WebKit","Chrome","118.0.0.0","Windows","10.0","null","es-419,es;q=0.9","true","null","<div style=""font-size:100px;"">X</div>","null","","","fixation","","","","","","","",""
"","","","","","audio-keyboard-response","123","403827","0.0-146.0","69","1","2023-11-01 20:35:51","a725c3012b74bf33a1020a98cb69c237","190.190.193.126","Mozilla/5.0 (Windows NT 10.0; Win64; x64) AppleWebKit/537.36 (KHTML, like Gecko) Chrome/118.0.0.0 Safari/537.36","WebKit","Chrome","118.0.0.0","Windows","10.0","null","es-419,es;q=0.9","true","null","tones/880hz_short.mp3","null","","","tone_number_task","1025","37","tones/880hz_short.mp3","1175","100","0","20",""
"","","","","","html-keyboard-response","124","404292","0.0-149.0-0.0","69","1","2023-11-01 20:35:51","a725c3012b74bf33a1020a98cb69c237","190.190.193.126","Mozilla/5.0 (Windows NT 10.0; Win64; x64) AppleWebKit/537.36 (KHTML, like Gecko) Chrome/118.0.0.0 Safari/537.36","WebKit","Chrome","118.0.0.0","Windows","10.0","null","es-419,es;q=0.9","true","459","tones/880hz_short.mp3","s","","","empty_block","","37","","","","0","20",""
"","","","","","html-keyboard-response","125","404436","0.0-149.0-1.0","69","1","2023-11-01 20:35:51","a725c3012b74bf33a1020a98cb69c237","190.190.193.126","Mozilla/5.0 (Windows NT 10.0; Win64; x64) AppleWebKit/537.36 (KHTML, like Gecko) Chrome/118.0.0.0 Safari/537.36","WebKit","Chrome","118.0.0.0","Windows","10.0","null","es-419,es;q=0.9","true","141","tones/880hz_short.mp3","j","","","empty_block","","37","","","","0","20",""
"","","","","","html-keyboard-response","126","407371","0.0-151.0","69","1","2023-11-01 20:35:51","a725c3012b74bf33a1020a98cb69c237","190.190.193.126","Mozilla/5.0 (Windows NT 10.0; Win64; x64) AppleWebKit/537.36 (KHTML, like Gecko) Chrome/118.0.0.0 Safari/537.36","WebKit","Chrome","118.0.0.0","Windows","10.0","null","es-419,es;q=0.9","true","null","<div style=""font-size:100px;"">X</div>","null","","","fixation","","","","","","","",""
"","","","","","audio-keyboard-response","127","408552","0.0-152.0","69","1","2023-11-01 20:35:51","a725c3012b74bf33a1020a98cb69c237","190.190.193.126","Mozilla/5.0 (Windows NT 10.0; Win64; x64) AppleWebKit/537.36 (KHTML, like Gecko) Chrome/118.0.0.0 Safari/537.36","WebKit","Chrome","118.0.0.0","Windows","10.0","null","es-419,es;q=0.9","true","null","tones/440hz_short.mp3","null","","","tone_number_task","1025","53","tones/440hz_short.mp3","1175","100","0","21",""
"","","","","","html-keyboard-response","128","409085","0.0-155.0-0.0","69","1","2023-11-01 20:35:51","a725c3012b74bf33a1020a98cb69c237","190.190.193.126","Mozilla/5.0 (Windows NT 10.0; Win64; x64) AppleWebKit/537.36 (KHTML, like Gecko) Chrome/118.0.0.0 Safari/537.36","WebKit","Chrome","118.0.0.0","Windows","10.0","null","es-419,es;q=0.9","true","531","tones/440hz_short.mp3","a","","","empty_block","","53","","","","0","21",""
"","","","","","html-keyboard-response","129","409244","0.0-155.0-1.0","69","1","2023-11-01 20:35:51","a725c3012b74bf33a1020a98cb69c237","190.190.193.126","Mozilla/5.0 (Windows NT 10.0; Win64; x64) AppleWebKit/537.36 (KHTML, like Gecko) Chrome/118.0.0.0 Safari/537.36","WebKit","Chrome","118.0.0.0","Windows","10.0","null","es-419,es;q=0.9","true","156","tones/440hz_short.mp3","k","","","empty_block","","53","","","","0","21",""
"","","","","","html-keyboard-response","130","412179","0.0-157.0","69","1","2023-11-01 20:35:51","a725c3012b74bf33a1020a98cb69c237","190.190.193.126","Mozilla/5.0 (Windows NT 10.0; Win64; x64) AppleWebKit/537.36 (KHTML, like Gecko) Chrome/118.0.0.0 Safari/537.36","WebKit","Chrome","118.0.0.0","Windows","10.0","null","es-419,es;q=0.9","true","null","<div style=""font-size:100px;"">X</div>","null","","","fixation","","","","","","","",""
"","","","","","audio-keyboard-response","131","413326","0.0-158.0","69","1","2023-11-01 20:35:51","a725c3012b74bf33a1020a98cb69c237","190.190.193.126","Mozilla/5.0 (Windows NT 10.0; Win64; x64) AppleWebKit/537.36 (KHTML, like Gecko) Chrome/118.0.0.0 Safari/537.36","WebKit","Chrome","118.0.0.0","Windows","10.0","null","es-419,es;q=0.9","true","null","tones/440hz_short.mp3","null","","","tone_number_task","992.5","29","tones/440hz_short.mp3","1142.5","100","0","22",""
"","","","","","html-keyboard-response","132","414532","0.0-161.0-0.0","69","1","2023-11-01 20:35:51","a725c3012b74bf33a1020a98cb69c237","190.190.193.126","Mozilla/5.0 (Windows NT 10.0; Win64; x64) AppleWebKit/537.36 (KHTML, like Gecko) Chrome/118.0.0.0 Safari/537.36","WebKit","Chrome","118.0.0.0","Windows","10.0","null","es-419,es;q=0.9","true","null","tones/440hz_short.mp3","null","","","empty_block","","29","","","","0","22",""
"","","","","","html-keyboard-response","133","414990","0.0-161.0-1.0","69","1","2023-11-01 20:35:51","a725c3012b74bf33a1020a98cb69c237","190.190.193.126","Mozilla/5.0 (Windows NT 10.0; Win64; x64) AppleWebKit/537.36 (KHTML, like Gecko) Chrome/118.0.0.0 Safari/537.36","WebKit","Chrome","118.0.0.0","Windows","10.0","null","es-419,es;q=0.9","true","453","tones/440hz_short.mp3","a","","","empty_block","","29","","","","0","22",""
"","","","","","html-keyboard-response","134","417928","0.0-163.0","69","1","2023-11-01 20:35:51","a725c3012b74bf33a1020a98cb69c237","190.190.193.126","Mozilla/5.0 (Windows NT 10.0; Win64; x64) AppleWebKit/537.36 (KHTML, like Gecko) Chrome/118.0.0.0 Safari/537.36","WebKit","Chrome","118.0.0.0","Windows","10.0","null","es-419,es;q=0.9","true","null","<div style=""font-size:100px;"">X</div>","null","","","fixation","","","","","","","",""
"","","","","","audio-keyboard-response","135","419077","0.0-164.0","69","1","2023-11-01 20:35:51","a725c3012b74bf33a1020a98cb69c237","190.190.193.126","Mozilla/5.0 (Windows NT 10.0; Win64; x64) AppleWebKit/537.36 (KHTML, like Gecko) Chrome/118.0.0.0 Safari/537.36","WebKit","Chrome","118.0.0.0","Windows","10.0","null","es-419,es;q=0.9","true","null","tones/880hz_short.mp3","null","","","tone_number_task","992.5","46","tones/880hz_short.mp3","1142.5","100","0","23",""
"","","","","","html-keyboard-response","136","419773","0.0-167.0-0.0","69","1","2023-11-01 20:35:51","a725c3012b74bf33a1020a98cb69c237","190.190.193.126","Mozilla/5.0 (Windows NT 10.0; Win64; x64) AppleWebKit/537.36 (KHTML, like Gecko) Chrome/118.0.0.0 Safari/537.36","WebKit","Chrome","118.0.0.0","Windows","10.0","null","es-419,es;q=0.9","true","694","tones/880hz_short.mp3","s","","","empty_block","","46","","","","0","23",""
"","","","","","html-keyboard-response","137","419925","0.0-167.0-1.0","69","1","2023-11-01 20:35:51","a725c3012b74bf33a1020a98cb69c237","190.190.193.126","Mozilla/5.0 (Windows NT 10.0; Win64; x64) AppleWebKit/537.36 (KHTML, like Gecko) Chrome/118.0.0.0 Safari/537.36","WebKit","Chrome","118.0.0.0","Windows","10.0","null","es-419,es;q=0.9","true","148","tones/880hz_short.mp3","k","","","empty_block","","46","","","","0","23",""
"","","","","","html-keyboard-response","138","422860","0.0-169.0","69","1","2023-11-01 20:35:51","a725c3012b74bf33a1020a98cb69c237","190.190.193.126","Mozilla/5.0 (Windows NT 10.0; Win64; x64) AppleWebKit/537.36 (KHTML, like Gecko) Chrome/118.0.0.0 Safari/537.36","WebKit","Chrome","118.0.0.0","Windows","10.0","null","es-419,es;q=0.9","true","null","<div style=""font-size:100px;"">X</div>","null","","","fixation","","","","","","","",""
"","","","","","audio-keyboard-response","139","423018","0.0-170.0","69","1","2023-11-01 20:35:51","a725c3012b74bf33a1020a98cb69c237","190.190.193.126","Mozilla/5.0 (Windows NT 10.0; Win64; x64) AppleWebKit/537.36 (KHTML, like Gecko) Chrome/118.0.0.0 Safari/537.36","WebKit","Chrome","118.0.0.0","Windows","10.0","null","es-419,es;q=0.9","true","null","tones/440hz_short.mp3","null","","","tone_number_task","0","28","tones/440hz_short.mp3","150","100","0","24",""
"","","","","","html-keyboard-response","140","423906","0.0-173.0-0.0","69","1","2023-11-01 20:35:51","a725c3012b74bf33a1020a98cb69c237","190.190.193.126","Mozilla/5.0 (Windows NT 10.0; Win64; x64) AppleWebKit/537.36 (KHTML, like Gecko) Chrome/118.0.0.0 Safari/537.36","WebKit","Chrome","118.0.0.0","Windows","10.0","null","es-419,es;q=0.9","true","880","tones/440hz_short.mp3","a","","","empty_block","","28","","","","0","24",""
"","","","","","html-keyboard-response","141","424071","0.0-173.0-1.0","69","1","2023-11-01 20:35:51","a725c3012b74bf33a1020a98cb69c237","190.190.193.126","Mozilla/5.0 (Windows NT 10.0; Win64; x64) AppleWebKit/537.36 (KHTML, like Gecko) Chrome/118.0.0.0 Safari/537.36","WebKit","Chrome","118.0.0.0","Windows","10.0","null","es-419,es;q=0.9","true","158","tones/440hz_short.mp3","j","","","empty_block","","28","","","","0","24",""
"","","","","","html-keyboard-response","142","427009","0.0-175.0","69","1","2023-11-01 20:35:51","a725c3012b74bf33a1020a98cb69c237","190.190.193.126","Mozilla/5.0 (Windows NT 10.0; Win64; x64) AppleWebKit/537.36 (KHTML, like Gecko) Chrome/118.0.0.0 Safari/537.36","WebKit","Chrome","118.0.0.0","Windows","10.0","null","es-419,es;q=0.9","true","null","<div style=""font-size:100px;"">X</div>","null","","","fixation","","","","","","","",""
"","","","","","audio-keyboard-response","143","428160","0.0-176.0","69","1","2023-11-01 20:35:51","a725c3012b74bf33a1020a98cb69c237","190.190.193.126","Mozilla/5.0 (Windows NT 10.0; Win64; x64) AppleWebKit/537.36 (KHTML, like Gecko) Chrome/118.0.0.0 Safari/537.36","WebKit","Chrome","118.0.0.0","Windows","10.0","null","es-419,es;q=0.9","true","null","tones/880hz_short.mp3","null","","","tone_number_task","992.5","41","tones/880hz_short.mp3","1142.5","100","0","25",""
"","","","","","html-keyboard-response","144","428754","0.0-179.0-0.0","69","1","2023-11-01 20:35:51","a725c3012b74bf33a1020a98cb69c237","190.190.193.126","Mozilla/5.0 (Windows NT 10.0; Win64; x64) AppleWebKit/537.36 (KHTML, like Gecko) Chrome/118.0.0.0 Safari/537.36","WebKit","Chrome","118.0.0.0","Windows","10.0","null","es-419,es;q=0.9","true","591","tones/880hz_short.mp3","s","","","empty_block","","41","","","","0","25",""
"","","","","","html-keyboard-response","145","428938","0.0-179.0-1.0","69","1","2023-11-01 20:35:51","a725c3012b74bf33a1020a98cb69c237","190.190.193.126","Mozilla/5.0 (Windows NT 10.0; Win64; x64) AppleWebKit/537.36 (KHTML, like Gecko) Chrome/118.0.0.0 Safari/537.36","WebKit","Chrome","118.0.0.0","Windows","10.0","null","es-419,es;q=0.9","true","180","tones/880hz_short.mp3","j","","","empty_block","","41","","","","0","25",""
"","","","","","html-keyboard-response","146","431874","0.0-181.0","69","1","2023-11-01 20:35:51","a725c3012b74bf33a1020a98cb69c237","190.190.193.126","Mozilla/5.0 (Windows NT 10.0; Win64; x64) AppleWebKit/537.36 (KHTML, like Gecko) Chrome/118.0.0.0 Safari/537.36","WebKit","Chrome","118.0.0.0","Windows","10.0","null","es-419,es;q=0.9","true","null","<div style=""font-size:100px;"">X</div>","null","","","fixation","","","","","","","",""
"","","","","","audio-keyboard-response","147","432131","0.0-182.0","69","1","2023-11-01 20:35:51","a725c3012b74bf33a1020a98cb69c237","190.190.193.126","Mozilla/5.0 (Windows NT 10.0; Win64; x64) AppleWebKit/537.36 (KHTML, like Gecko) Chrome/118.0.0.0 Safari/537.36","WebKit","Chrome","118.0.0.0","Windows","10.0","null","es-419,es;q=0.9","true","null","tones/880hz_short.mp3","null","","","tone_number_task","102.5","65","tones/880hz_short.mp3","252.5","100","0","26",""
"","","","","","html-keyboard-response","148","432927","0.0-185.0-0.0","69","1","2023-11-01 20:35:51","a725c3012b74bf33a1020a98cb69c237","190.190.193.126","Mozilla/5.0 (Windows NT 10.0; Win64; x64) AppleWebKit/537.36 (KHTML, like Gecko) Chrome/118.0.0.0 Safari/537.36","WebKit","Chrome","118.0.0.0","Windows","10.0","null","es-419,es;q=0.9","true","792","tones/880hz_short.mp3","s","","","empty_block","","65","","","","0","26",""
"","","","","","html-keyboard-response","149","433035","0.0-185.0-1.0","69","1","2023-11-01 20:35:51","a725c3012b74bf33a1020a98cb69c237","190.190.193.126","Mozilla/5.0 (Windows NT 10.0; Win64; x64) AppleWebKit/537.36 (KHTML, like Gecko) Chrome/118.0.0.0 Safari/537.36","WebKit","Chrome","118.0.0.0","Windows","10.0","null","es-419,es;q=0.9","true","104","tones/880hz_short.mp3","k","","","empty_block","","65","","","","0","26",""
"","","","","","html-keyboard-response","150","435976","0.0-187.0","69","1","2023-11-01 20:35:51","a725c3012b74bf33a1020a98cb69c237","190.190.193.126","Mozilla/5.0 (Windows NT 10.0; Win64; x64) AppleWebKit/537.36 (KHTML, like Gecko) Chrome/118.0.0.0 Safari/537.36","WebKit","Chrome","118.0.0.0","Windows","10.0","null","es-419,es;q=0.9","true","null","<div style=""font-size:100px;"">X</div>","null","","","fixation","","","","","","","",""
"","","","","","audio-keyboard-response","151","436131","0.0-188.0","69","1","2023-11-01 20:35:51","a725c3012b74bf33a1020a98cb69c237","190.190.193.126","Mozilla/5.0 (Windows NT 10.0; Win64; x64) AppleWebKit/537.36 (KHTML, like Gecko) Chrome/118.0.0.0 Safari/537.36","WebKit","Chrome","118.0.0.0","Windows","10.0","null","es-419,es;q=0.9","true","null","tones/440hz_short.mp3","null","","","tone_number_task","0","38","tones/440hz_short.mp3","150","100","0","27",""
"","","","","","html-keyboard-response","152","437224","0.0-191.0-0.0","69","1","2023-11-01 20:35:51","a725c3012b74bf33a1020a98cb69c237","190.190.193.126","Mozilla/5.0 (Windows NT 10.0; Win64; x64) AppleWebKit/537.36 (KHTML, like Gecko) Chrome/118.0.0.0 Safari/537.36","WebKit","Chrome","118.0.0.0","Windows","10.0","null","es-419,es;q=0.9","true","1088","tones/440hz_short.mp3","a","","","empty_block","","38","","","","0","27",""
"","","","","","html-keyboard-response","153","437356","0.0-191.0-1.0","69","1","2023-11-01 20:35:51","a725c3012b74bf33a1020a98cb69c237","190.190.193.126","Mozilla/5.0 (Windows NT 10.0; Win64; x64) AppleWebKit/537.36 (KHTML, like Gecko) Chrome/118.0.0.0 Safari/537.36","WebKit","Chrome","118.0.0.0","Windows","10.0","null","es-419,es;q=0.9","true","129","tones/440hz_short.mp3","j","","","empty_block","","38","","","","0","27",""
"","","","","","html-keyboard-response","154","440292","0.0-193.0","69","1","2023-11-01 20:35:51","a725c3012b74bf33a1020a98cb69c237","190.190.193.126","Mozilla/5.0 (Windows NT 10.0; Win64; x64) AppleWebKit/537.36 (KHTML, like Gecko) Chrome/118.0.0.0 Safari/537.36","WebKit","Chrome","118.0.0.0","Windows","10.0","null","es-419,es;q=0.9","true","null","<div style=""font-size:100px;"">X</div>","null","","","fixation","","","","","","","",""
"","","","","","audio-keyboard-response","155","440549","0.0-194.0","69","1","2023-11-01 20:35:51","a725c3012b74bf33a1020a98cb69c237","190.190.193.126","Mozilla/5.0 (Windows NT 10.0; Win64; x64) AppleWebKit/537.36 (KHTML, like Gecko) Chrome/118.0.0.0 Safari/537.36","WebKit","Chrome","118.0.0.0","Windows","10.0","null","es-419,es;q=0.9","true","null","tones/880hz_short.mp3","null","","","tone_number_task","102.5","57","tones/880hz_short.mp3","252.5","100","0","28",""
"","","","","","html-keyboard-response","156","441753","0.0-197.0-0.0","69","1","2023-11-01 20:35:51","a725c3012b74bf33a1020a98cb69c237","190.190.193.126","Mozilla/5.0 (Windows NT 10.0; Win64; x64) AppleWebKit/537.36 (KHTML, like Gecko) Chrome/118.0.0.0 Safari/537.36","WebKit","Chrome","118.0.0.0","Windows","10.0","null","es-419,es;q=0.9","true","null","tones/880hz_short.mp3","null","","","empty_block","","57","","","","0","28",""
"","","","","","html-keyboard-response","157","441898","0.0-197.0-1.0","69","1","2023-11-01 20:35:51","a725c3012b74bf33a1020a98cb69c237","190.190.193.126","Mozilla/5.0 (Windows NT 10.0; Win64; x64) AppleWebKit/537.36 (KHTML, like Gecko) Chrome/118.0.0.0 Safari/537.36","WebKit","Chrome","118.0.0.0","Windows","10.0","null","es-419,es;q=0.9","true","142","tones/880hz_short.mp3","s","","","empty_block","","57","","","","0","28",""
"","","","","","html-keyboard-response","158","444832","0.0-199.0","69","1","2023-11-01 20:35:51","a725c3012b74bf33a1020a98cb69c237","190.190.193.126","Mozilla/5.0 (Windows NT 10.0; Win64; x64) AppleWebKit/537.36 (KHTML, like Gecko) Chrome/118.0.0.0 Safari/537.36","WebKit","Chrome","118.0.0.0","Windows","10.0","null","es-419,es;q=0.9","true","null","<div style=""font-size:100px;"">X</div>","null","","","fixation","","","","","","","",""
"","","","","","audio-keyboard-response","159","444986","0.0-200.0","69","1","2023-11-01 20:35:51","a725c3012b74bf33a1020a98cb69c237","190.190.193.126","Mozilla/5.0 (Windows NT 10.0; Win64; x64) AppleWebKit/537.36 (KHTML, like Gecko) Chrome/118.0.0.0 Safari/537.36","WebKit","Chrome","118.0.0.0","Windows","10.0","null","es-419,es;q=0.9","true","null","tones/880hz_short.mp3","null","","","tone_number_task","0","54","tones/880hz_short.mp3","150","100","0","29",""
"","","","","","html-keyboard-response","160","446191","0.0-203.0-0.0","69","1","2023-11-01 20:35:51","a725c3012b74bf33a1020a98cb69c237","190.190.193.126","Mozilla/5.0 (Windows NT 10.0; Win64; x64) AppleWebKit/537.36 (KHTML, like Gecko) Chrome/118.0.0.0 Safari/537.36","WebKit","Chrome","118.0.0.0","Windows","10.0","null","es-419,es;q=0.9","true","null","tones/880hz_short.mp3","null","","","empty_block","","54","","","","0","29",""
"","","","","","html-keyboard-response","161","446358","0.0-203.0-1.0","69","1","2023-11-01 20:35:51","a725c3012b74bf33a1020a98cb69c237","190.190.193.126","Mozilla/5.0 (Windows NT 10.0; Win64; x64) AppleWebKit/537.36 (KHTML, like Gecko) Chrome/118.0.0.0 Safari/537.36","WebKit","Chrome","118.0.0.0","Windows","10.0","null","es-419,es;q=0.9","true","161","tones/880hz_short.mp3","s","","","empty_block","","54","","","","0","29",""
"","","","","","html-keyboard-response","162","449296","0.0-205.0","69","1","2023-11-01 20:35:51","a725c3012b74bf33a1020a98cb69c237","190.190.193.126","Mozilla/5.0 (Windows NT 10.0; Win64; x64) AppleWebKit/537.36 (KHTML, like Gecko) Chrome/118.0.0.0 Safari/537.36","WebKit","Chrome","118.0.0.0","Windows","10.0","null","es-419,es;q=0.9","true","null","<div style=""font-size:100px;"">X</div>","null","","","fixation","","","","","","","",""
"","","","","","audio-keyboard-response","163","449553","0.0-206.0","69","1","2023-11-01 20:35:51","a725c3012b74bf33a1020a98cb69c237","190.190.193.126","Mozilla/5.0 (Windows NT 10.0; Win64; x64) AppleWebKit/537.36 (KHTML, like Gecko) Chrome/118.0.0.0 Safari/537.36","WebKit","Chrome","118.0.0.0","Windows","10.0","null","es-419,es;q=0.9","true","null","tones/880hz_short.mp3","null","","","tone_number_task","102.5","67","tones/880hz_short.mp3","252.5","100","0","30",""
"","","","","","html-keyboard-response","164","450526","0.0-209.0-0.0","69","1","2023-11-01 20:35:51","a725c3012b74bf33a1020a98cb69c237","190.190.193.126","Mozilla/5.0 (Windows NT 10.0; Win64; x64) AppleWebKit/537.36 (KHTML, like Gecko) Chrome/118.0.0.0 Safari/537.36","WebKit","Chrome","118.0.0.0","Windows","10.0","null","es-419,es;q=0.9","true","964","tones/880hz_short.mp3","s","","","empty_block","","67","","","","0","30",""
"","","","","","html-keyboard-response","165","450684","0.0-209.0-1.0","69","1","2023-11-01 20:35:51","a725c3012b74bf33a1020a98cb69c237","190.190.193.126","Mozilla/5.0 (Windows NT 10.0; Win64; x64) AppleWebKit/537.36 (KHTML, like Gecko) Chrome/118.0.0.0 Safari/537.36","WebKit","Chrome","118.0.0.0","Windows","10.0","null","es-419,es;q=0.9","true","149","tones/880hz_short.mp3","k","","","empty_block","","67","","","","0","30",""
"","","","","","html-keyboard-response","166","453624","0.0-211.0","69","1","2023-11-01 20:35:51","a725c3012b74bf33a1020a98cb69c237","190.190.193.126","Mozilla/5.0 (Windows NT 10.0; Win64; x64) AppleWebKit/537.36 (KHTML, like Gecko) Chrome/118.0.0.0 Safari/537.36","WebKit","Chrome","118.0.0.0","Windows","10.0","null","es-419,es;q=0.9","true","null","<div style=""font-size:100px;"">X</div>","null","","","fixation","","","","","","","",""
"","","","","","audio-keyboard-response","167","454771","0.0-212.0","69","1","2023-11-01 20:35:51","a725c3012b74bf33a1020a98cb69c237","190.190.193.126","Mozilla/5.0 (Windows NT 10.0; Win64; x64) AppleWebKit/537.36 (KHTML, like Gecko) Chrome/118.0.0.0 Safari/537.36","WebKit","Chrome","118.0.0.0","Windows","10.0","null","es-419,es;q=0.9","true","null","tones/880hz_short.mp3","null","","","tone_number_task","992.5","62","tones/880hz_short.mp3","1142.5","100","0","31",""
"","","","","","html-keyboard-response","168","455389","0.0-215.0-0.0","69","1","2023-11-01 20:35:51","a725c3012b74bf33a1020a98cb69c237","190.190.193.126","Mozilla/5.0 (Windows NT 10.0; Win64; x64) AppleWebKit/537.36 (KHTML, like Gecko) Chrome/118.0.0.0 Safari/537.36","WebKit","Chrome","118.0.0.0","Windows","10.0","null","es-419,es;q=0.9","true","615","tones/880hz_short.mp3","s","","","empty_block","","62","","","","0","31",""
"","","","","","html-keyboard-response","169","455586","0.0-215.0-1.0","69","1","2023-11-01 20:35:51","a725c3012b74bf33a1020a98cb69c237","190.190.193.126","Mozilla/5.0 (Windows NT 10.0; Win64; x64) AppleWebKit/537.36 (KHTML, like Gecko) Chrome/118.0.0.0 Safari/537.36","WebKit","Chrome","118.0.0.0","Windows","10.0","null","es-419,es;q=0.9","true","191","tones/880hz_short.mp3","k","","","empty_block","","62","","","","0","31",""
"","","","","","html-keyboard-response","170","458524","0.0-217.0","69","1","2023-11-01 20:35:51","a725c3012b74bf33a1020a98cb69c237","190.190.193.126","Mozilla/5.0 (Windows NT 10.0; Win64; x64) AppleWebKit/537.36 (KHTML, like Gecko) Chrome/118.0.0.0 Safari/537.36","WebKit","Chrome","118.0.0.0","Windows","10.0","null","es-419,es;q=0.9","true","null","<div style=""font-size:100px;"">X</div>","null","","","fixation","","","","","","","",""
"","","","","","audio-keyboard-response","171","458780","0.0-218.0","69","1","2023-11-01 20:35:51","a725c3012b74bf33a1020a98cb69c237","190.190.193.126","Mozilla/5.0 (Windows NT 10.0; Win64; x64) AppleWebKit/537.36 (KHTML, like Gecko) Chrome/118.0.0.0 Safari/537.36","WebKit","Chrome","118.0.0.0","Windows","10.0","null","es-419,es;q=0.9","true","null","tones/440hz_short.mp3","null","","","tone_number_task","102.5","36","tones/440hz_short.mp3","252.5","100","0","32",""
"","","","","","html-keyboard-response","172","459841","0.0-221.0-0.0","69","1","2023-11-01 20:35:51","a725c3012b74bf33a1020a98cb69c237","190.190.193.126","Mozilla/5.0 (Windows NT 10.0; Win64; x64) AppleWebKit/537.36 (KHTML, like Gecko) Chrome/118.0.0.0 Safari/537.36","WebKit","Chrome","118.0.0.0","Windows","10.0","null","es-419,es;q=0.9","true","1057","tones/440hz_short.mp3","a","","","empty_block","","36","","","","0","32",""
"","","","","","html-keyboard-response","173","460050","0.0-221.0-1.0","69","1","2023-11-01 20:35:51","a725c3012b74bf33a1020a98cb69c237","190.190.193.126","Mozilla/5.0 (Windows NT 10.0; Win64; x64) AppleWebKit/537.36 (KHTML, like Gecko) Chrome/118.0.0.0 Safari/537.36","WebKit","Chrome","118.0.0.0","Windows","10.0","null","es-419,es;q=0.9","true","201","tones/440hz_short.mp3","j","","","empty_block","","36","","","","0","32",""
"","","","","","html-keyboard-response","174","462987","0.0-223.0","69","1","2023-11-01 20:35:51","a725c3012b74bf33a1020a98cb69c237","190.190.193.126","Mozilla/5.0 (Windows NT 10.0; Win64; x64) AppleWebKit/537.36 (KHTML, like Gecko) Chrome/118.0.0.0 Safari/537.36","WebKit","Chrome","118.0.0.0","Windows","10.0","null","es-419,es;q=0.9","true","null","<div style=""font-size:100px;"">X</div>","null","","","fixation","","","","","","","",""
"","","","","","audio-keyboard-response","175","463247","0.0-224.0","69","1","2023-11-01 20:35:51","a725c3012b74bf33a1020a98cb69c237","190.190.193.126","Mozilla/5.0 (Windows NT 10.0; Win64; x64) AppleWebKit/537.36 (KHTML, like Gecko) Chrome/118.0.0.0 Safari/537.36","WebKit","Chrome","118.0.0.0","Windows","10.0","null","es-419,es;q=0.9","true","null","tones/880hz_short.mp3","null","","","tone_number_task","102.5","66","tones/880hz_short.mp3","252.5","100","0","33",""
"","","","","","html-keyboard-response","176","464097","0.0-227.0-0.0","69","1","2023-11-01 20:35:51","a725c3012b74bf33a1020a98cb69c237","190.190.193.126","Mozilla/5.0 (Windows NT 10.0; Win64; x64) AppleWebKit/537.36 (KHTML, like Gecko) Chrome/118.0.0.0 Safari/537.36","WebKit","Chrome","118.0.0.0","Windows","10.0","null","es-419,es;q=0.9","true","841","tones/880hz_short.mp3","s","","","empty_block","","66","","","","0","33",""
"","","","","","html-keyboard-response","177","464242","0.0-227.0-1.0","69","1","2023-11-01 20:35:51","a725c3012b74bf33a1020a98cb69c237","190.190.193.126","Mozilla/5.0 (Windows NT 10.0; Win64; x64) AppleWebKit/537.36 (KHTML, like Gecko) Chrome/118.0.0.0 Safari/537.36","WebKit","Chrome","118.0.0.0","Windows","10.0","null","es-419,es;q=0.9","true","137","tones/880hz_short.mp3","k","","","empty_block","","66","","","","0","33",""
"","","","","","html-keyboard-response","178","467183","0.0-229.0","69","1","2023-11-01 20:35:51","a725c3012b74bf33a1020a98cb69c237","190.190.193.126","Mozilla/5.0 (Windows NT 10.0; Win64; x64) AppleWebKit/537.36 (KHTML, like Gecko) Chrome/118.0.0.0 Safari/537.36","WebKit","Chrome","118.0.0.0","Windows","10.0","null","es-419,es;q=0.9","true","null","<div style=""font-size:100px;"">X</div>","null","","","fixation","","","","","","","",""
"","","","","","audio-keyboard-response","179","468330","0.0-230.0","69","1","2023-11-01 20:35:51","a725c3012b74bf33a1020a98cb69c237","190.190.193.126","Mozilla/5.0 (Windows NT 10.0; Win64; x64) AppleWebKit/537.36 (KHTML, like Gecko) Chrome/118.0.0.0 Safari/537.36","WebKit","Chrome","118.0.0.0","Windows","10.0","null","es-419,es;q=0.9","true","null","tones/880hz_short.mp3","null","","","tone_number_task","992.5","30","tones/880hz_short.mp3","1142.5","100","0","34",""
"","","","","","html-keyboard-response","180","469144","0.0-233.0-0.0","69","1","2023-11-01 20:35:51","a725c3012b74bf33a1020a98cb69c237","190.190.193.126","Mozilla/5.0 (Windows NT 10.0; Win64; x64) AppleWebKit/537.36 (KHTML, like Gecko) Chrome/118.0.0.0 Safari/537.36","WebKit","Chrome","118.0.0.0","Windows","10.0","null","es-419,es;q=0.9","true","808","tones/880hz_short.mp3","s","","","empty_block","","30","","","","0","34",""
"","","","","","html-keyboard-response","181","469305","0.0-233.0-1.0","69","1","2023-11-01 20:35:51","a725c3012b74bf33a1020a98cb69c237","190.190.193.126","Mozilla/5.0 (Windows NT 10.0; Win64; x64) AppleWebKit/537.36 (KHTML, like Gecko) Chrome/118.0.0.0 Safari/537.36","WebKit","Chrome","118.0.0.0","Windows","10.0","null","es-419,es;q=0.9","true","155","tones/880hz_short.mp3","j","","","empty_block","","30","","","","0","34",""
"","","","","","html-keyboard-response","182","472245","0.0-235.0","69","1","2023-11-01 20:35:51","a725c3012b74bf33a1020a98cb69c237","190.190.193.126","Mozilla/5.0 (Windows NT 10.0; Win64; x64) AppleWebKit/537.36 (KHTML, like Gecko) Chrome/118.0.0.0 Safari/537.36","WebKit","Chrome","118.0.0.0","Windows","10.0","null","es-419,es;q=0.9","true","null","<div style=""font-size:100px;"">X</div>","null","","","fixation","","","","","","","",""
"","","","","","audio-keyboard-response","183","472406","0.0-236.0","69","1","2023-11-01 20:35:51","a725c3012b74bf33a1020a98cb69c237","190.190.193.126","Mozilla/5.0 (Windows NT 10.0; Win64; x64) AppleWebKit/537.36 (KHTML, like Gecko) Chrome/118.0.0.0 Safari/537.36","WebKit","Chrome","118.0.0.0","Windows","10.0","null","es-419,es;q=0.9","true","null","tones/440hz_short.mp3","null","","","tone_number_task","0","51","tones/440hz_short.mp3","150","100","0","35",""
"","","","","","html-keyboard-response","184","473612","0.0-239.0-0.0","69","1","2023-11-01 20:35:51","a725c3012b74bf33a1020a98cb69c237","190.190.193.126","Mozilla/5.0 (Windows NT 10.0; Win64; x64) AppleWebKit/537.36 (KHTML, like Gecko) Chrome/118.0.0.0 Safari/537.36","WebKit","Chrome","118.0.0.0","Windows","10.0","null","es-419,es;q=0.9","true","null","tones/440hz_short.mp3","null","","","empty_block","","51","","","","0","35",""
"","","","","","html-keyboard-response","185","473702","0.0-239.0-1.0","69","1","2023-11-01 20:35:51","a725c3012b74bf33a1020a98cb69c237","190.190.193.126","Mozilla/5.0 (Windows NT 10.0; Win64; x64) AppleWebKit/537.36 (KHTML, like Gecko) Chrome/118.0.0.0 Safari/537.36","WebKit","Chrome","118.0.0.0","Windows","10.0","null","es-419,es;q=0.9","true","84","tones/440hz_short.mp3","a","","","empty_block","","51","","","","0","35",""
"","","","","","html-keyboard-response","186","476639","0.0-241.0","69","1","2023-11-01 20:35:51","a725c3012b74bf33a1020a98cb69c237","190.190.193.126","Mozilla/5.0 (Windows NT 10.0; Win64; x64) AppleWebKit/537.36 (KHTML, like Gecko) Chrome/118.0.0.0 Safari/537.36","WebKit","Chrome","118.0.0.0","Windows","10.0","null","es-419,es;q=0.9","true","null","<div style=""font-size:100px;"">X</div>","null","","","fixation","","","","","","","",""
"","","","","","audio-keyboard-response","187","476897","0.0-242.0","69","1","2023-11-01 20:35:51","a725c3012b74bf33a1020a98cb69c237","190.190.193.126","Mozilla/5.0 (Windows NT 10.0; Win64; x64) AppleWebKit/537.36 (KHTML, like Gecko) Chrome/118.0.0.0 Safari/537.36","WebKit","Chrome","118.0.0.0","Windows","10.0","null","es-419,es;q=0.9","true","null","tones/880hz_short.mp3","null","","","tone_number_task","102.5","34","tones/880hz_short.mp3","252.5","100","0","36",""
"","","","","","html-keyboard-response","188","478101","0.0-245.0-0.0","69","1","2023-11-01 20:35:51","a725c3012b74bf33a1020a98cb69c237","190.190.193.126","Mozilla/5.0 (Windows NT 10.0; Win64; x64) AppleWebKit/537.36 (KHTML, like Gecko) Chrome/118.0.0.0 Safari/537.36","WebKit","Chrome","118.0.0.0","Windows","10.0","null","es-419,es;q=0.9","true","null","tones/880hz_short.mp3","null","","","empty_block","","34","","","","0","36",""
"","","","","","html-keyboard-response","189","479097","0.0-245.0-1.0","69","1","2023-11-01 20:35:51","a725c3012b74bf33a1020a98cb69c237","190.190.193.126","Mozilla/5.0 (Windows NT 10.0; Win64; x64) AppleWebKit/537.36 (KHTML, like Gecko) Chrome/118.0.0.0 Safari/537.36","WebKit","Chrome","118.0.0.0","Windows","10.0","null","es-419,es;q=0.9","true","990","tones/880hz_short.mp3","s","","","empty_block","","34","","","","0","36",""
"","","","","","html-keyboard-response","190","482035","0.0-247.0","69","1","2023-11-01 20:35:51","a725c3012b74bf33a1020a98cb69c237","190.190.193.126","Mozilla/5.0 (Windows NT 10.0; Win64; x64) AppleWebKit/537.36 (KHTML, like Gecko) Chrome/118.0.0.0 Safari/537.36","WebKit","Chrome","118.0.0.0","Windows","10.0","null","es-419,es;q=0.9","true","null","<div style=""font-size:100px;"">X</div>","null","","","fixation","","","","","","","",""
"","","","","","audio-keyboard-response","191","482190","0.0-248.0","69","1","2023-11-01 20:35:51","a725c3012b74bf33a1020a98cb69c237","190.190.193.126","Mozilla/5.0 (Windows NT 10.0; Win64; x64) AppleWebKit/537.36 (KHTML, like Gecko) Chrome/118.0.0.0 Safari/537.36","WebKit","Chrome","118.0.0.0","Windows","10.0","null","es-419,es;q=0.9","true","null","tones/440hz_short.mp3","null","","","tone_number_task","0","25","tones/440hz_short.mp3","150","100","0","37",""
"","","","","","html-keyboard-response","192","483396","0.0-251.0-0.0","69","1","2023-11-01 20:35:51","a725c3012b74bf33a1020a98cb69c237","190.190.193.126","Mozilla/5.0 (Windows NT 10.0; Win64; x64) AppleWebKit/537.36 (KHTML, like Gecko) Chrome/118.0.0.0 Safari/537.36","WebKit","Chrome","118.0.0.0","Windows","10.0","null","es-419,es;q=0.9","true","null","tones/440hz_short.mp3","null","","","empty_block","","25","","","","0","37",""
"","","","","","html-keyboard-response","193","483475","0.0-251.0-1.0","69","1","2023-11-01 20:35:51","a725c3012b74bf33a1020a98cb69c237","190.190.193.126","Mozilla/5.0 (Windows NT 10.0; Win64; x64) AppleWebKit/537.36 (KHTML, like Gecko) Chrome/118.0.0.0 Safari/537.36","WebKit","Chrome","118.0.0.0","Windows","10.0","null","es-419,es;q=0.9","true","76","tones/440hz_short.mp3","a","","","empty_block","","25","","","","0","37",""
"","","","","","html-keyboard-response","194","486411","0.0-253.0","69","1","2023-11-01 20:35:51","a725c3012b74bf33a1020a98cb69c237","190.190.193.126","Mozilla/5.0 (Windows NT 10.0; Win64; x64) AppleWebKit/537.36 (KHTML, like Gecko) Chrome/118.0.0.0 Safari/537.36","WebKit","Chrome","118.0.0.0","Windows","10.0","null","es-419,es;q=0.9","true","null","<div style=""font-size:100px;"">X</div>","null","","","fixation","","","","","","","",""
"","","","","","audio-keyboard-response","195","486667","0.0-254.0","69","1","2023-11-01 20:35:51","a725c3012b74bf33a1020a98cb69c237","190.190.193.126","Mozilla/5.0 (Windows NT 10.0; Win64; x64) AppleWebKit/537.36 (KHTML, like Gecko) Chrome/118.0.0.0 Safari/537.36","WebKit","Chrome","118.0.0.0","Windows","10.0","null","es-419,es;q=0.9","true","null","tones/440hz_short.mp3","null","","","tone_number_task","102.5","25","tones/440hz_short.mp3","252.5","100","0","38",""
"","","","","","html-keyboard-response","196","487878","0.0-257.0-0.0","69","1","2023-11-01 20:35:51","a725c3012b74bf33a1020a98cb69c237","190.190.193.126","Mozilla/5.0 (Windows NT 10.0; Win64; x64) AppleWebKit/537.36 (KHTML, like Gecko) Chrome/118.0.0.0 Safari/537.36","WebKit","Chrome","118.0.0.0","Windows","10.0","null","es-419,es;q=0.9","true","null","tones/440hz_short.mp3","null","","","empty_block","","25","","","","0","38",""
"","","","","","html-keyboard-response","197","488221","0.0-257.0-1.0","69","1","2023-11-01 20:35:51","a725c3012b74bf33a1020a98cb69c237","190.190.193.126","Mozilla/5.0 (Windows NT 10.0; Win64; x64) AppleWebKit/537.36 (KHTML, like Gecko) Chrome/118.0.0.0 Safari/537.36","WebKit","Chrome","118.0.0.0","Windows","10.0","null","es-419,es;q=0.9","true","334","tones/440hz_short.mp3","a","","","empty_block","","25","","","","0","38",""
"","","","","","html-keyboard-response","198","491162","0.0-259.0","69","1","2023-11-01 20:35:51","a725c3012b74bf33a1020a98cb69c237","190.190.193.126","Mozilla/5.0 (Windows NT 10.0; Win64; x64) AppleWebKit/537.36 (KHTML, like Gecko) Chrome/118.0.0.0 Safari/537.36","WebKit","Chrome","118.0.0.0","Windows","10.0","null","es-419,es;q=0.9","true","null","<div style=""font-size:100px;"">X</div>","null","","","fixation","","","","","","","",""
"","","","","","audio-keyboard-response","199","492347","0.0-260.0","69","1","2023-11-01 20:35:51","a725c3012b74bf33a1020a98cb69c237","190.190.193.126","Mozilla/5.0 (Windows NT 10.0; Win64; x64) AppleWebKit/537.36 (KHTML, like Gecko) Chrome/118.0.0.0 Safari/537.36","WebKit","Chrome","118.0.0.0","Windows","10.0","null","es-419,es;q=0.9","true","null","tones/880hz_short.mp3","null","","","tone_number_task","1025","69","tones/880hz_short.mp3","1175","100","0","39",""
"","","","","","html-keyboard-response","200","492825","0.0-263.0-0.0","69","1","2023-11-01 20:35:51","a725c3012b74bf33a1020a98cb69c237","190.190.193.126","Mozilla/5.0 (Windows NT 10.0; Win64; x64) AppleWebKit/537.36 (KHTML, like Gecko) Chrome/118.0.0.0 Safari/537.36","WebKit","Chrome","118.0.0.0","Windows","10.0","null","es-419,es;q=0.9","true","468","tones/880hz_short.mp3","s","","","empty_block","","69","","","","0","39",""
"","","","","","html-keyboard-response","201","493002","0.0-263.0-1.0","69","1","2023-11-01 20:35:51","a725c3012b74bf33a1020a98cb69c237","190.190.193.126","Mozilla/5.0 (Windows NT 10.0; Win64; x64) AppleWebKit/537.36 (KHTML, like Gecko) Chrome/118.0.0.0 Safari/537.36","WebKit","Chrome","118.0.0.0","Windows","10.0","null","es-419,es;q=0.9","true","167","tones/880hz_short.mp3","k","","","empty_block","","69","","","","0","39",""
"","","","","","call-function","202","493012","0.0-265.0","69","1","2023-11-01 20:35:51","a725c3012b74bf33a1020a98cb69c237","190.190.193.126","Mozilla/5.0 (Windows NT 10.0; Win64; x64) AppleWebKit/537.36 (KHTML, like Gecko) Chrome/118.0.0.0 Safari/537.36","WebKit","Chrome","118.0.0.0","Windows","10.0","null","es-419,es;q=0.9","true","","","","","","","","","","","","","",""
"","","","","","external-html","203","507347","0.0-266.0","69","1","2023-11-01 20:35:51","a725c3012b74bf33a1020a98cb69c237","190.190.193.126","Mozilla/5.0 (Windows NT 10.0; Win64; x64) AppleWebKit/537.36 (KHTML, like Gecko) Chrome/118.0.0.0 Safari/537.36","WebKit","Chrome","118.0.0.0","Windows","10.0","null","es-419,es;q=0.9","true","13919","","","","instructions/instructions_digits_last.html","","","","","","","","",""
"","","","","","call-function","204","507353","0.0-267.0","69","1","2023-11-01 20:35:51","a725c3012b74bf33a1020a98cb69c237","190.190.193.126","Mozilla/5.0 (Windows NT 10.0; Win64; x64) AppleWebKit/537.36 (KHTML, like Gecko) Chrome/118.0.0.0 Safari/537.36","WebKit","Chrome","118.0.0.0","Windows","10.0","null","es-419,es;q=0.9","true","","","","","","","","","","","","","",""
"","","","","","html-keyboard-response","205","510290","0.0-268.0","69","1","2023-11-01 20:35:51","a725c3012b74bf33a1020a98cb69c237","190.190.193.126","Mozilla/5.0 (Windows NT 10.0; Win64; x64) AppleWebKit/537.36 (KHTML, like Gecko) Chrome/118.0.0.0 Safari/537.36","WebKit","Chrome","118.0.0.0","Windows","10.0","null","es-419,es;q=0.9","true","null","<div style=""font-size:100px;"">X</div>","null","","","fixation","","","","","","","",""
"","","","","","audio-keyboard-response","206","511438","0.0-269.0","69","1","2023-11-01 20:35:51","a725c3012b74bf33a1020a98cb69c237","190.190.193.126","Mozilla/5.0 (Windows NT 10.0; Win64; x64) AppleWebKit/537.36 (KHTML, like Gecko) Chrome/118.0.0.0 Safari/537.36","WebKit","Chrome","118.0.0.0","Windows","10.0","null","es-419,es;q=0.9","true","null","tones/880hz_short.mp3","null","","","tone_number_task","992.5","35","tones/880hz_short.mp3","1142.5","100","1","0",""
"","","","","","html-keyboard-response","207","512139","0.0-272.0-0.0","69","1","2023-11-01 20:35:51","a725c3012b74bf33a1020a98cb69c237","190.190.193.126","Mozilla/5.0 (Windows NT 10.0; Win64; x64) AppleWebKit/537.36 (KHTML, like Gecko) Chrome/118.0.0.0 Safari/537.36","WebKit","Chrome","118.0.0.0","Windows","10.0","null","es-419,es;q=0.9","true","698","tones/880hz_short.mp3","s","","","empty_block","","35","","","","1","0",""
"","","","","","html-keyboard-response","208","512296","0.0-272.0-1.0","69","1","2023-11-01 20:35:51","a725c3012b74bf33a1020a98cb69c237","190.190.193.126","Mozilla/5.0 (Windows NT 10.0; Win64; x64) AppleWebKit/537.36 (KHTML, like Gecko) Chrome/118.0.0.0 Safari/537.36","WebKit","Chrome","118.0.0.0","Windows","10.0","null","es-419,es;q=0.9","true","149","tones/880hz_short.mp3","j","","","empty_block","","35","","","","1","0",""
"","","","","","html-keyboard-response","209","515239","0.0-274.0","69","1","2023-11-01 20:35:51","a725c3012b74bf33a1020a98cb69c237","190.190.193.126","Mozilla/5.0 (Windows NT 10.0; Win64; x64) AppleWebKit/537.36 (KHTML, like Gecko) Chrome/118.0.0.0 Safari/537.36","WebKit","Chrome","118.0.0.0","Windows","10.0","null","es-419,es;q=0.9","true","null","<div style=""font-size:100px;"">X</div>","null","","","fixation","","","","","","","",""
"","","","","","audio-keyboard-response","210","516420","0.0-275.0","69","1","2023-11-01 20:35:51","a725c3012b74bf33a1020a98cb69c237","190.190.193.126","Mozilla/5.0 (Windows NT 10.0; Win64; x64) AppleWebKit/537.36 (KHTML, like Gecko) Chrome/118.0.0.0 Safari/537.36","WebKit","Chrome","118.0.0.0","Windows","10.0","null","es-419,es;q=0.9","true","null","tones/440hz_short.mp3","null","","","tone_number_task","1025","50","tones/440hz_short.mp3","1175","100","1","1",""
"","","","","","html-keyboard-response","211","516847","0.0-278.0-0.0","69","1","2023-11-01 20:35:51","a725c3012b74bf33a1020a98cb69c237","190.190.193.126","Mozilla/5.0 (Windows NT 10.0; Win64; x64) AppleWebKit/537.36 (KHTML, like Gecko) Chrome/118.0.0.0 Safari/537.36","WebKit","Chrome","118.0.0.0","Windows","10.0","null","es-419,es;q=0.9","true","423","tones/440hz_short.mp3","a","","","empty_block","","50","","","","1","1",""
"","","","","","html-keyboard-response","212","517008","0.0-278.0-1.0","69","1","2023-11-01 20:35:51","a725c3012b74bf33a1020a98cb69c237","190.190.193.126","Mozilla/5.0 (Windows NT 10.0; Win64; x64) AppleWebKit/537.36 (KHTML, like Gecko) Chrome/118.0.0.0 Safari/537.36","WebKit","Chrome","118.0.0.0","Windows","10.0","null","es-419,es;q=0.9","true","157","tones/440hz_short.mp3","k","","","empty_block","","50","","","","1","1",""
"","","","","","html-keyboard-response","213","519943","0.0-280.0","69","1","2023-11-01 20:35:51","a725c3012b74bf33a1020a98cb69c237","190.190.193.126","Mozilla/5.0 (Windows NT 10.0; Win64; x64) AppleWebKit/537.36 (KHTML, like Gecko) Chrome/118.0.0.0 Safari/537.36","WebKit","Chrome","118.0.0.0","Windows","10.0","null","es-419,es;q=0.9","true","null","<div style=""font-size:100px;"">X</div>","null","","","fixation","","","","","","","",""
"","","","","","audio-keyboard-response","214","521092","0.0-281.0","69","1","2023-11-01 20:35:51","a725c3012b74bf33a1020a98cb69c237","190.190.193.126","Mozilla/5.0 (Windows NT 10.0; Win64; x64) AppleWebKit/537.36 (KHTML, like Gecko) Chrome/118.0.0.0 Safari/537.36","WebKit","Chrome","118.0.0.0","Windows","10.0","null","es-419,es;q=0.9","true","null","tones/880hz_short.mp3","null","","","tone_number_task","992.5","25","tones/880hz_short.mp3","1142.5","100","1","2",""
"","","","","","html-keyboard-response","215","521545","0.0-284.0-0.0","69","1","2023-11-01 20:35:51","a725c3012b74bf33a1020a98cb69c237","190.190.193.126","Mozilla/5.0 (Windows NT 10.0; Win64; x64) AppleWebKit/537.36 (KHTML, like Gecko) Chrome/118.0.0.0 Safari/537.36","WebKit","Chrome","118.0.0.0","Windows","10.0","null","es-419,es;q=0.9","true","445","tones/880hz_short.mp3","s","","","empty_block","","25","","","","1","2",""
"","","","","","html-keyboard-response","216","521734","0.0-284.0-1.0","69","1","2023-11-01 20:35:51","a725c3012b74bf33a1020a98cb69c237","190.190.193.126","Mozilla/5.0 (Windows NT 10.0; Win64; x64) AppleWebKit/537.36 (KHTML, like Gecko) Chrome/118.0.0.0 Safari/537.36","WebKit","Chrome","118.0.0.0","Windows","10.0","null","es-419,es;q=0.9","true","185","tones/880hz_short.mp3","j","","","empty_block","","25","","","","1","2",""
"","","","","","html-keyboard-response","217","524670","0.0-286.0","69","1","2023-11-01 20:35:51","a725c3012b74bf33a1020a98cb69c237","190.190.193.126","Mozilla/5.0 (Windows NT 10.0; Win64; x64) AppleWebKit/537.36 (KHTML, like Gecko) Chrome/118.0.0.0 Safari/537.36","WebKit","Chrome","118.0.0.0","Windows","10.0","null","es-419,es;q=0.9","true","null","<div style=""font-size:100px;"">X</div>","null","","","fixation","","","","","","","",""
"","","","","","audio-keyboard-response","218","525853","0.0-287.0","69","1","2023-11-01 20:35:51","a725c3012b74bf33a1020a98cb69c237","190.190.193.126","Mozilla/5.0 (Windows NT 10.0; Win64; x64) AppleWebKit/537.36 (KHTML, like Gecko) Chrome/118.0.0.0 Safari/537.36","WebKit","Chrome","118.0.0.0","Windows","10.0","null","es-419,es;q=0.9","true","null","tones/880hz_short.mp3","null","","","tone_number_task","1025","34","tones/880hz_short.mp3","1175","100","1","3",""
"","","","","","html-keyboard-response","219","527009","0.0-290.0-0.0","69","1","2023-11-01 20:35:51","a725c3012b74bf33a1020a98cb69c237","190.190.193.126","Mozilla/5.0 (Windows NT 10.0; Win64; x64) AppleWebKit/537.36 (KHTML, like Gecko) Chrome/118.0.0.0 Safari/537.36","WebKit","Chrome","118.0.0.0","Windows","10.0","null","es-419,es;q=0.9","true","1148","tones/880hz_short.mp3","s","","","empty_block","","34","","","","1","3",""
"","","","","","html-keyboard-response","220","527327","0.0-290.0-1.0","69","1","2023-11-01 20:35:51","a725c3012b74bf33a1020a98cb69c237","190.190.193.126","Mozilla/5.0 (Windows NT 10.0; Win64; x64) AppleWebKit/537.36 (KHTML, like Gecko) Chrome/118.0.0.0 Safari/537.36","WebKit","Chrome","118.0.0.0","Windows","10.0","null","es-419,es;q=0.9","true","312","tones/880hz_short.mp3","j","","","empty_block","","34","","","","1","3",""
"","","","","","html-keyboard-response","221","530263","0.0-292.0","69","1","2023-11-01 20:35:51","a725c3012b74bf33a1020a98cb69c237","190.190.193.126","Mozilla/5.0 (Windows NT 10.0; Win64; x64) AppleWebKit/537.36 (KHTML, like Gecko) Chrome/118.0.0.0 Safari/537.36","WebKit","Chrome","118.0.0.0","Windows","10.0","null","es-419,es;q=0.9","true","null","<div style=""font-size:100px;"">X</div>","null","","","fixation","","","","","","","",""
"","","","","","audio-keyboard-response","222","531409","0.0-293.0","69","1","2023-11-01 20:35:51","a725c3012b74bf33a1020a98cb69c237","190.190.193.126","Mozilla/5.0 (Windows NT 10.0; Win64; x64) AppleWebKit/537.36 (KHTML, like Gecko) Chrome/118.0.0.0 Safari/537.36","WebKit","Chrome","118.0.0.0","Windows","10.0","null","es-419,es;q=0.9","true","null","tones/880hz_short.mp3","null","","","tone_number_task","992.5","21","tones/880hz_short.mp3","1142.5","100","1","4",""
