"success","timeout","failed_images","failed_audio","failed_video","trial_type","trial_index","time_elapsed","internal_node_id","run_id","condition","recorded_at","source_code_version","ip","user_agent","device","browser","browser_version","platform","platform_version","referer","accept_language","check","rt","stimulus","response","question_order","url","task","delay","number","audioFile","trial_duration","font_size","block","round","value"
"true","false","[]","[]","[]","preload","0","462","0.0-0.0","6","1","2023-10-27 12:15:13","a725c3012b74bf33a1020a98cb69c237","181.230.217.84","Mozilla/5.0 (Windows NT 10.0; Win64; x64) AppleWebKit/537.36 (KHTML, like Gecko) Chrome/118.0.0.0 Safari/537.36","WebKit","Chrome","118.0.0.0","Windows","10.0","null","es-ES,es;q=0.9,en;q=0.8,pt;q=0.7","true","","","","","","","","","","","","","",""
"true","","","","","fullscreen","1","23084","0.0-1.0","6","1","2023-10-27 12:15:13","a725c3012b74bf33a1020a98cb69c237","181.230.217.84","Mozilla/5.0 (Windows NT 10.0; Win64; x64) AppleWebKit/537.36 (KHTML, like Gecko) Chrome/118.0.0.0 Safari/537.36","WebKit","Chrome","118.0.0.0","Windows","10.0","null","es-ES,es;q=0.9,en;q=0.8,pt;q=0.7","true","","","","","","","","","","","","","",""
"","","","","","html-button-response","2","26218","0.0-2.0","6","1","2023-10-27 12:15:13","a725c3012b74bf33a1020a98cb69c237","181.230.217.84","Mozilla/5.0 (Windows NT 10.0; Win64; x64) AppleWebKit/537.36 (KHTML, like Gecko) Chrome/118.0.0.0 Safari/537.36","WebKit","Chrome","118.0.0.0","Windows","10.0","null","es-ES,es;q=0.9,en;q=0.8,pt;q=0.7","true","3133","<p style=""font-size:24px; color:red;"">Cosas importantes a tener en cuenta antes de comenzar el experimento:</p>","0","","","","","","","","","","",""
"","","","","","html-button-response","3","37075","0.0-3.0","6","1","2023-10-27 12:15:13","a725c3012b74bf33a1020a98cb69c237","181.230.217.84","Mozilla/5.0 (Windows NT 10.0; Win64; x64) AppleWebKit/537.36 (KHTML, like Gecko) Chrome/118.0.0.0 Safari/537.36","WebKit","Chrome","118.0.0.0","Windows","10.0","null","es-ES,es;q=0.9,en;q=0.8,pt;q=0.7","true","10856","<p style=""font-size:24px;"">El experimento dura aproximadamente 15 minutos.</p><p style=""font-size:24px;"">Por favor, no cierres la ventana del navegador durante el experimento.</p><p style=""font-size:24px;"">Si se completa de forma parcial, no se guardará ningún resultado.</p>","0","","","","","","","","","","",""
"","","","","","html-button-response","4","41908","0.0-4.0","6","1","2023-10-27 12:15:13","a725c3012b74bf33a1020a98cb69c237","181.230.217.84","Mozilla/5.0 (Windows NT 10.0; Win64; x64) AppleWebKit/537.36 (KHTML, like Gecko) Chrome/118.0.0.0 Safari/537.36","WebKit","Chrome","118.0.0.0","Windows","10.0","null","es-ES,es;q=0.9,en;q=0.8,pt;q=0.7","true","4831","<p style=""font-size:24px;"">El experimento contiene estímulos sonoros.</p>","0","","","","","","","","","","",""
"","","","","","audio-button-response","5","48693","0.0-5.0-0.0","6","1","2023-10-27 12:15:13","a725c3012b74bf33a1020a98cb69c237","181.230.217.84","Mozilla/5.0 (Windows NT 10.0; Win64; x64) AppleWebKit/537.36 (KHTML, like Gecko) Chrome/118.0.0.0 Safari/537.36","WebKit","Chrome","118.0.0.0","Windows","10.0","null","es-ES,es;q=0.9,en;q=0.8,pt;q=0.7","true","6749","tones/440hz_short.mp3","1","","","","","","","","","","",""
"","","","","","audio-button-response","6","50877","0.0-6.0-0.0","6","1","2023-10-27 12:15:13","a725c3012b74bf33a1020a98cb69c237","181.230.217.84","Mozilla/5.0 (Windows NT 10.0; Win64; x64) AppleWebKit/537.36 (KHTML, like Gecko) Chrome/118.0.0.0 Safari/537.36","WebKit","Chrome","118.0.0.0","Windows","10.0","null","es-ES,es;q=0.9,en;q=0.8,pt;q=0.7","true","2181","tones/880hz_short.mp3","1","","","","","","","","","","",""
"","","","","","survey-html-form","7","54582","0.0-7.0","6","1","2023-10-27 12:15:13","a725c3012b74bf33a1020a98cb69c237","181.230.217.84","Mozilla/5.0 (Windows NT 10.0; Win64; x64) AppleWebKit/537.36 (KHTML, like Gecko) Chrome/118.0.0.0 Safari/537.36","WebKit","Chrome","118.0.0.0","Windows","10.0","null","es-ES,es;q=0.9,en;q=0.8,pt;q=0.7","true","3702","","{""response"":""29""}","","","","","","","","","","",""
"","","","","","survey-multi-choice","8","62696","0.0-8.0","6","1","2023-10-27 12:15:13","a725c3012b74bf33a1020a98cb69c237","181.230.217.84","Mozilla/5.0 (Windows NT 10.0; Win64; x64) AppleWebKit/537.36 (KHTML, like Gecko) Chrome/118.0.0.0 Safari/537.36","WebKit","Chrome","118.0.0.0","Windows","10.0","null","es-ES,es;q=0.9,en;q=0.8,pt;q=0.7","true","8110","","{""gender"":""Mujer"",""hand"":""Derecha""}","[0,1]","","","","","","","","","",""
"","","","","","external-html","9","204791","0.0-9.0","6","1","2023-10-27 12:15:13","a725c3012b74bf33a1020a98cb69c237","181.230.217.84","Mozilla/5.0 (Windows NT 10.0; Win64; x64) AppleWebKit/537.36 (KHTML, like Gecko) Chrome/118.0.0.0 Safari/537.36","WebKit","Chrome","118.0.0.0","Windows","10.0","null","es-ES,es;q=0.9,en;q=0.8,pt;q=0.7","true","141756","","","","instructions/instructions.html","","","","","","","","",""
"","","","","","external-html","10","254028","0.0-10.0","6","1","2023-10-27 12:15:13","a725c3012b74bf33a1020a98cb69c237","181.230.217.84","Mozilla/5.0 (Windows NT 10.0; Win64; x64) AppleWebKit/537.36 (KHTML, like Gecko) Chrome/118.0.0.0 Safari/537.36","WebKit","Chrome","118.0.0.0","Windows","10.0","null","es-ES,es;q=0.9,en;q=0.8,pt;q=0.7","true","48906","","","","instructions/animation.html","","","","","","","","",""
"","","","","","html-keyboard-response","11","257015","0.0-11.0-0.0","6","1","2023-10-27 12:15:13","a725c3012b74bf33a1020a98cb69c237","181.230.217.84","Mozilla/5.0 (Windows NT 10.0; Win64; x64) AppleWebKit/537.36 (KHTML, like Gecko) Chrome/118.0.0.0 Safari/537.36","WebKit","Chrome","118.0.0.0","Windows","10.0","null","es-ES,es;q=0.9,en;q=0.8,pt;q=0.7","true","null","<div style=""font-size:100px;"">X</div>","null","","","fixation","","","","","","","",""
"","","","","","audio-keyboard-response","12","258168","0.0-11.0-1.0","6","1","2023-10-27 12:15:13","a725c3012b74bf33a1020a98cb69c237","181.230.217.84","Mozilla/5.0 (Windows NT 10.0; Win64; x64) AppleWebKit/537.36 (KHTML, like Gecko) Chrome/118.0.0.0 Safari/537.36","WebKit","Chrome","118.0.0.0","Windows","10.0","null","es-ES,es;q=0.9,en;q=0.8,pt;q=0.7","true","null","tones/440hz_short.mp3","null","","","tone_number_task","1000","24","tones/440hz_short.mp3","1150","100","null","null",""
"","","","","","html-keyboard-response","13","259157","0.0-11.0-4.0-0.0","6","1","2023-10-27 12:15:13","a725c3012b74bf33a1020a98cb69c237","181.230.217.84","Mozilla/5.0 (Windows NT 10.0; Win64; x64) AppleWebKit/537.36 (KHTML, like Gecko) Chrome/118.0.0.0 Safari/537.36","WebKit","Chrome","118.0.0.0","Windows","10.0","null","es-ES,es;q=0.9,en;q=0.8,pt;q=0.7","true","988","tones/440hz_short.mp3","a","","","empty_block","","24","","","","null","null",""
"","","","","","html-keyboard-response","14","269159","0.0-11.0-4.0-1.0","6","1","2023-10-27 12:15:13","a725c3012b74bf33a1020a98cb69c237","181.230.217.84","Mozilla/5.0 (Windows NT 10.0; Win64; x64) AppleWebKit/537.36 (KHTML, like Gecko) Chrome/118.0.0.0 Safari/537.36","WebKit","Chrome","118.0.0.0","Windows","10.0","null","es-ES,es;q=0.9,en;q=0.8,pt;q=0.7","true","null","tones/440hz_short.mp3","null","","","empty_block","","24","","","","null","null",""
"","","","","","html-keyboard-response","15","272144","0.0-13.0-0.0","6","1","2023-10-27 12:15:13","a725c3012b74bf33a1020a98cb69c237","181.230.217.84","Mozilla/5.0 (Windows NT 10.0; Win64; x64) AppleWebKit/537.36 (KHTML, like Gecko) Chrome/118.0.0.0 Safari/537.36","WebKit","Chrome","118.0.0.0","Windows","10.0","null","es-ES,es;q=0.9,en;q=0.8,pt;q=0.7","true","null","<div style=""font-size:100px;"">X</div>","null","","","fixation","","","","","","","",""
"","","","","","audio-keyboard-response","16","272796","0.0-13.0-1.0","6","1","2023-10-27 12:15:13","a725c3012b74bf33a1020a98cb69c237","181.230.217.84","Mozilla/5.0 (Windows NT 10.0; Win64; x64) AppleWebKit/537.36 (KHTML, like Gecko) Chrome/118.0.0.0 Safari/537.36","WebKit","Chrome","118.0.0.0","Windows","10.0","null","es-ES,es;q=0.9,en;q=0.8,pt;q=0.7","true","null","tones/440hz_short.mp3","null","","","tone_number_task","500","54","tones/440hz_short.mp3","650","100","null","null",""
"","","","","","html-keyboard-response","17","274767","0.0-13.0-4.0-0.0","6","1","2023-10-27 12:15:13","a725c3012b74bf33a1020a98cb69c237","181.230.217.84","Mozilla/5.0 (Windows NT 10.0; Win64; x64) AppleWebKit/537.36 (KHTML, like Gecko) Chrome/118.0.0.0 Safari/537.36","WebKit","Chrome","118.0.0.0","Windows","10.0","null","es-ES,es;q=0.9,en;q=0.8,pt;q=0.7","true","1970","tones/440hz_short.mp3","a","","","empty_block","","54","","","","null","null",""
"","","","","","html-keyboard-response","18","276126","0.0-13.0-4.0-1.0","6","1","2023-10-27 12:15:13","a725c3012b74bf33a1020a98cb69c237","181.230.217.84","Mozilla/5.0 (Windows NT 10.0; Win64; x64) AppleWebKit/537.36 (KHTML, like Gecko) Chrome/118.0.0.0 Safari/537.36","WebKit","Chrome","118.0.0.0","Windows","10.0","null","es-ES,es;q=0.9,en;q=0.8,pt;q=0.7","true","1358","tones/440hz_short.mp3","k","","","empty_block","","54","","","","null","null",""
"","","","","","html-keyboard-response","19","279113","0.0-15.0-0.0","6","1","2023-10-27 12:15:13","a725c3012b74bf33a1020a98cb69c237","181.230.217.84","Mozilla/5.0 (Windows NT 10.0; Win64; x64) AppleWebKit/537.36 (KHTML, like Gecko) Chrome/118.0.0.0 Safari/537.36","WebKit","Chrome","118.0.0.0","Windows","10.0","null","es-ES,es;q=0.9,en;q=0.8,pt;q=0.7","true","null","<div style=""font-size:100px;"">X</div>","null","","","fixation","","","","","","","",""
"","","","","","audio-keyboard-response","20","279415","0.0-15.0-1.0","6","1","2023-10-27 12:15:13","a725c3012b74bf33a1020a98cb69c237","181.230.217.84","Mozilla/5.0 (Windows NT 10.0; Win64; x64) AppleWebKit/537.36 (KHTML, like Gecko) Chrome/118.0.0.0 Safari/537.36","WebKit","Chrome","118.0.0.0","Windows","10.0","null","es-ES,es;q=0.9,en;q=0.8,pt;q=0.7","true","null","tones/440hz_short.mp3","null","","","tone_number_task","150","25","tones/440hz_short.mp3","300","100","null","null",""
"","","","","","html-keyboard-response","21","280743","0.0-15.0-4.0-0.0","6","1","2023-10-27 12:15:13","a725c3012b74bf33a1020a98cb69c237","181.230.217.84","Mozilla/5.0 (Windows NT 10.0; Win64; x64) AppleWebKit/537.36 (KHTML, like Gecko) Chrome/118.0.0.0 Safari/537.36","WebKit","Chrome","118.0.0.0","Windows","10.0","null","es-ES,es;q=0.9,en;q=0.8,pt;q=0.7","true","1327","tones/440hz_short.mp3","j","","","empty_block","","25","","","","null","null",""
"","","","","","html-keyboard-response","22","281576","0.0-15.0-4.0-1.0","6","1","2023-10-27 12:15:13","a725c3012b74bf33a1020a98cb69c237","181.230.217.84","Mozilla/5.0 (Windows NT 10.0; Win64; x64) AppleWebKit/537.36 (KHTML, like Gecko) Chrome/118.0.0.0 Safari/537.36","WebKit","Chrome","118.0.0.0","Windows","10.0","null","es-ES,es;q=0.9,en;q=0.8,pt;q=0.7","true","831","tones/440hz_short.mp3","a","","","empty_block","","25","","","","null","null",""
"","","","","","html-keyboard-response","23","284562","0.0-17.0-0.0","6","1","2023-10-27 12:15:13","a725c3012b74bf33a1020a98cb69c237","181.230.217.84","Mozilla/5.0 (Windows NT 10.0; Win64; x64) AppleWebKit/537.36 (KHTML, like Gecko) Chrome/118.0.0.0 Safari/537.36","WebKit","Chrome","118.0.0.0","Windows","10.0","null","es-ES,es;q=0.9,en;q=0.8,pt;q=0.7","true","null","<div style=""font-size:100px;"">X</div>","null","","","fixation","","","","","","","",""
"","","","","","audio-keyboard-response","24","284765","0.0-17.0-1.0","6","1","2023-10-27 12:15:13","a725c3012b74bf33a1020a98cb69c237","181.230.217.84","Mozilla/5.0 (Windows NT 10.0; Win64; x64) AppleWebKit/537.36 (KHTML, like Gecko) Chrome/118.0.0.0 Safari/537.36","WebKit","Chrome","118.0.0.0","Windows","10.0","null","es-ES,es;q=0.9,en;q=0.8,pt;q=0.7","true","null","tones/880hz_short.mp3","null","","","tone_number_task","50","44","tones/880hz_short.mp3","200","100","null","null",""
"","","","","","html-keyboard-response","25","286161","0.0-17.0-4.0-0.0","6","1","2023-10-27 12:15:13","a725c3012b74bf33a1020a98cb69c237","181.230.217.84","Mozilla/5.0 (Windows NT 10.0; Win64; x64) AppleWebKit/537.36 (KHTML, like Gecko) Chrome/118.0.0.0 Safari/537.36","WebKit","Chrome","118.0.0.0","Windows","10.0","null","es-ES,es;q=0.9,en;q=0.8,pt;q=0.7","true","1395","tones/880hz_short.mp3","s","","","empty_block","","44","","","","null","null",""
"","","","","","html-keyboard-response","26","288080","0.0-17.0-4.0-1.0","6","1","2023-10-27 12:15:13","a725c3012b74bf33a1020a98cb69c237","181.230.217.84","Mozilla/5.0 (Windows NT 10.0; Win64; x64) AppleWebKit/537.36 (KHTML, like Gecko) Chrome/118.0.0.0 Safari/537.36","WebKit","Chrome","118.0.0.0","Windows","10.0","null","es-ES,es;q=0.9,en;q=0.8,pt;q=0.7","true","1918","tones/880hz_short.mp3","j","","","empty_block","","44","","","","null","null",""
"","","","","","html-button-response","27","300618","0.0-19.0","6","1","2023-10-27 12:15:13","a725c3012b74bf33a1020a98cb69c237","181.230.217.84","Mozilla/5.0 (Windows NT 10.0; Win64; x64) AppleWebKit/537.36 (KHTML, like Gecko) Chrome/118.0.0.0 Safari/537.36","WebKit","Chrome","118.0.0.0","Windows","10.0","null","es-ES,es;q=0.9,en;q=0.8,pt;q=0.7","true","12537","
  <h1> Muy bien </h1>
  <p> Ahora, en vez de ser presentados en dígitos, los números vendrán escritos en palabras. </p>
  <p> Por ejemplo, en vez de 44 te aparecerá ""cuarenta y cuatro"". </p>
  ","0","","","","","","","","","","",""
"","","","","","html-keyboard-response","28","303605","0.0-20.0-0.0","6","1","2023-10-27 12:15:13","a725c3012b74bf33a1020a98cb69c237","181.230.217.84","Mozilla/5.0 (Windows NT 10.0; Win64; x64) AppleWebKit/537.36 (KHTML, like Gecko) Chrome/118.0.0.0 Safari/537.36","WebKit","Chrome","118.0.0.0","Windows","10.0","null","es-ES,es;q=0.9,en;q=0.8,pt;q=0.7","true","null","<div style=""font-size:100px;"">X</div>","null","","","fixation","","","","","","","",""
"","","","","","audio-keyboard-response","29","304758","0.0-20.0-1.0","6","1","2023-10-27 12:15:13","a725c3012b74bf33a1020a98cb69c237","181.230.217.84","Mozilla/5.0 (Windows NT 10.0; Win64; x64) AppleWebKit/537.36 (KHTML, like Gecko) Chrome/118.0.0.0 Safari/537.36","WebKit","Chrome","118.0.0.0","Windows","10.0","null","es-ES,es;q=0.9,en;q=0.8,pt;q=0.7","true","null","tones/880hz_short.mp3","null","","","tone_number_task","1000","treinta y ocho","tones/880hz_short.mp3","1150","60","null","null",""
"","","","","","html-keyboard-response","30","304874","0.0-20.0-4.0-0.0","6","1","2023-10-27 12:15:13","a725c3012b74bf33a1020a98cb69c237","181.230.217.84","Mozilla/5.0 (Windows NT 10.0; Win64; x64) AppleWebKit/537.36 (KHTML, like Gecko) Chrome/118.0.0.0 Safari/537.36","WebKit","Chrome","118.0.0.0","Windows","10.0","null","es-ES,es;q=0.9,en;q=0.8,pt;q=0.7","true","115","tones/880hz_short.mp3","s","","","empty_block","","treinta y ocho","","","","null","null",""
"","","","","","html-keyboard-response","31","306803","0.0-20.0-4.0-1.0","6","1","2023-10-27 12:15:13","a725c3012b74bf33a1020a98cb69c237","181.230.217.84","Mozilla/5.0 (Windows NT 10.0; Win64; x64) AppleWebKit/537.36 (KHTML, like Gecko) Chrome/118.0.0.0 Safari/537.36","WebKit","Chrome","118.0.0.0","Windows","10.0","null","es-ES,es;q=0.9,en;q=0.8,pt;q=0.7","true","1927","tones/880hz_short.mp3","k","","","empty_block","","treinta y ocho","","","","null","null",""
"","","","","","html-button-response","32","311795","0.0-20.0-6.0-0.0","6","1","2023-10-27 12:15:13","a725c3012b74bf33a1020a98cb69c237","181.230.217.84","Mozilla/5.0 (Windows NT 10.0; Win64; x64) AppleWebKit/537.36 (KHTML, like Gecko) Chrome/118.0.0.0 Safari/537.36","WebKit","Chrome","118.0.0.0","Windows","10.0","null","es-ES,es;q=0.9,en;q=0.8,pt;q=0.7","true","4991","
  '<p style=""font-size:24px; color:red;"">Incorrecto</p><p> Respondiste alguno de los estímulos de manera incorrecta.</p><p>Por favor, repasá las instrucciones y seguimos desde donde nos quedamos. </p>
  ","0","","","","","","","","","","",""
"","","","","","external-html","33","324189","0.0-20.0-6.0-1.0","6","1","2023-10-27 12:15:13","a725c3012b74bf33a1020a98cb69c237","181.230.217.84","Mozilla/5.0 (Windows NT 10.0; Win64; x64) AppleWebKit/537.36 (KHTML, like Gecko) Chrome/118.0.0.0 Safari/537.36","WebKit","Chrome","118.0.0.0","Windows","10.0","null","es-ES,es;q=0.9,en;q=0.8,pt;q=0.7","true","12071","","","","instructions/instructions_B.html","","","","","","","","",""
"","","","","","html-keyboard-response","34","327177","0.0-20.1-0.1","6","1","2023-10-27 12:15:13","a725c3012b74bf33a1020a98cb69c237","181.230.217.84","Mozilla/5.0 (Windows NT 10.0; Win64; x64) AppleWebKit/537.36 (KHTML, like Gecko) Chrome/118.0.0.0 Safari/537.36","WebKit","Chrome","118.0.0.0","Windows","10.0","null","es-ES,es;q=0.9,en;q=0.8,pt;q=0.7","true","null","<div style=""font-size:100px;"">X</div>","null","","","fixation","","","","","","","",""
"","","","","","audio-keyboard-response","35","328278","0.0-20.1-1.1","6","1","2023-10-27 12:15:13","a725c3012b74bf33a1020a98cb69c237","181.230.217.84","Mozilla/5.0 (Windows NT 10.0; Win64; x64) AppleWebKit/537.36 (KHTML, like Gecko) Chrome/118.0.0.0 Safari/537.36","WebKit","Chrome","118.0.0.0","Windows","10.0","null","es-ES,es;q=0.9,en;q=0.8,pt;q=0.7","true","1099","tones/880hz_short.mp3","s","","","tone_number_task","1000","treinta y ocho","tones/880hz_short.mp3","1150","60","null","null",""
"","","","","","html-keyboard-response","36","328331","0.0-20.1-3.1-0.1","6","1","2023-10-27 12:15:13","a725c3012b74bf33a1020a98cb69c237","181.230.217.84","Mozilla/5.0 (Windows NT 10.0; Win64; x64) AppleWebKit/537.36 (KHTML, like Gecko) Chrome/118.0.0.0 Safari/537.36","WebKit","Chrome","118.0.0.0","Windows","10.0","null","es-ES,es;q=0.9,en;q=0.8,pt;q=0.7","true","null","<p id=""stimulus"" style=""font-size:60px;"">treinta y ocho</p>","null","","","tone_number_task_remaining_after_delay","","treinta y ocho","","","60","null","null",""
"","","","","","html-keyboard-response","37","332383","0.0-20.1-5.1-0.1","6","1","2023-10-27 12:15:13","a725c3012b74bf33a1020a98cb69c237","181.230.217.84","Mozilla/5.0 (Windows NT 10.0; Win64; x64) AppleWebKit/537.36 (KHTML, like Gecko) Chrome/118.0.0.0 Safari/537.36","WebKit","Chrome","118.0.0.0","Windows","10.0","null","es-ES,es;q=0.9,en;q=0.8,pt;q=0.7","true","4050","<p id=""stimulus"" style=""font-size:60px;"">treinta y ocho</p>","k","","","empty_block","","treinta y ocho","","","","null","null",""
"","","","","","html-button-response","38","334383","0.0-20.1-6.1-0.1","6","1","2023-10-27 12:15:13","a725c3012b74bf33a1020a98cb69c237","181.230.217.84","Mozilla/5.0 (Windows NT 10.0; Win64; x64) AppleWebKit/537.36 (KHTML, like Gecko) Chrome/118.0.0.0 Safari/537.36","WebKit","Chrome","118.0.0.0","Windows","10.0","null","es-ES,es;q=0.9,en;q=0.8,pt;q=0.7","true","1998","
  '<p style=""font-size:24px; color:red;"">Incorrecto</p><p> Respondiste alguno de los estímulos de manera incorrecta.</p><p>Por favor, repasá las instrucciones y seguimos desde donde nos quedamos. </p>
  ","0","","","","","","","","","","",""
"","","","","","external-html","39","346393","0.0-20.1-6.1-1.1","6","1","2023-10-27 12:15:13","a725c3012b74bf33a1020a98cb69c237","181.230.217.84","Mozilla/5.0 (Windows NT 10.0; Win64; x64) AppleWebKit/537.36 (KHTML, like Gecko) Chrome/118.0.0.0 Safari/537.36","WebKit","Chrome","118.0.0.0","Windows","10.0","null","es-ES,es;q=0.9,en;q=0.8,pt;q=0.7","true","11718","","","","instructions/instructions_B.html","","","","","","","","",""
"","","","","","html-keyboard-response","40","349381","0.0-20.2-0.2","6","1","2023-10-27 12:15:13","a725c3012b74bf33a1020a98cb69c237","181.230.217.84","Mozilla/5.0 (Windows NT 10.0; Win64; x64) AppleWebKit/537.36 (KHTML, like Gecko) Chrome/118.0.0.0 Safari/537.36","WebKit","Chrome","118.0.0.0","Windows","10.0","null","es-ES,es;q=0.9,en;q=0.8,pt;q=0.7","true","null","<div style=""font-size:100px;"">X</div>","null","","","fixation","","","","","","","",""
"","","","","","audio-keyboard-response","41","350533","0.0-20.2-1.2","6","1","2023-10-27 12:15:13","a725c3012b74bf33a1020a98cb69c237","181.230.217.84","Mozilla/5.0 (Windows NT 10.0; Win64; x64) AppleWebKit/537.36 (KHTML, like Gecko) Chrome/118.0.0.0 Safari/537.36","WebKit","Chrome","118.0.0.0","Windows","10.0","null","es-ES,es;q=0.9,en;q=0.8,pt;q=0.7","true","null","tones/880hz_short.mp3","null","","","tone_number_task","1000","treinta y ocho","tones/880hz_short.mp3","1150","60","null","null",""
"","","","","","html-keyboard-response","42","350536","0.0-20.2-4.2-0.2","6","1","2023-10-27 12:15:13","a725c3012b74bf33a1020a98cb69c237","181.230.217.84","Mozilla/5.0 (Windows NT 10.0; Win64; x64) AppleWebKit/537.36 (KHTML, like Gecko) Chrome/118.0.0.0 Safari/537.36","WebKit","Chrome","118.0.0.0","Windows","10.0","null","es-ES,es;q=0.9,en;q=0.8,pt;q=0.7","true","2","tones/880hz_short.mp3","s","","","empty_block","","treinta y ocho","","","","null","null",""
"","","","","","html-keyboard-response","43","352200","0.0-20.2-4.2-1.2","6","1","2023-10-27 12:15:13","a725c3012b74bf33a1020a98cb69c237","181.230.217.84","Mozilla/5.0 (Windows NT 10.0; Win64; x64) AppleWebKit/537.36 (KHTML, like Gecko) Chrome/118.0.0.0 Safari/537.36","WebKit","Chrome","118.0.0.0","Windows","10.0","null","es-ES,es;q=0.9,en;q=0.8,pt;q=0.7","true","1663","tones/880hz_short.mp3","j","","","empty_block","","treinta y ocho","","","","null","null",""
"","","","","","html-button-response","44","355785","0.0-22.0","6","1","2023-10-27 12:15:13","a725c3012b74bf33a1020a98cb69c237","181.230.217.84","Mozilla/5.0 (Windows NT 10.0; Win64; x64) AppleWebKit/537.36 (KHTML, like Gecko) Chrome/118.0.0.0 Safari/537.36","WebKit","Chrome","118.0.0.0","Windows","10.0","null","es-ES,es;q=0.9,en;q=0.8,pt;q=0.7","true","3584","
  <h1> Fin del Entrenamiento </h1>
  <p> ¡Felicitaciones, terminaste el entrenamiento! Ahora vamos a comenzar con el experimento. </p>
  <p> Es importante tener en cuenta que consta de cuatro bloques.</p>
  <p> Podés aprovechar los momentos entre bloques para tomar un breve descanso o tomar agua entre cada uno</p>
  <p> Recordá que tenés que responder lo más rápido que puedas, pero sin equivocarte. </p>
  ","0","","","","","","","","","","",""
"","","","","","external-html","45","363851","0.0-23.0","6","1","2023-10-27 12:15:13","a725c3012b74bf33a1020a98cb69c237","181.230.217.84","Mozilla/5.0 (Windows NT 10.0; Win64; x64) AppleWebKit/537.36 (KHTML, like Gecko) Chrome/118.0.0.0 Safari/537.36","WebKit","Chrome","118.0.0.0","Windows","10.0","null","es-ES,es;q=0.9,en;q=0.8,pt;q=0.7","true","7742","","","","instructions/instructions_words_first.html","","","","","","","","",""
"","","","","","call-function","46","363853","0.0-24.0","6","1","2023-10-27 12:15:13","a725c3012b74bf33a1020a98cb69c237","181.230.217.84","Mozilla/5.0 (Windows NT 10.0; Win64; x64) AppleWebKit/537.36 (KHTML, like Gecko) Chrome/118.0.0.0 Safari/537.36","WebKit","Chrome","118.0.0.0","Windows","10.0","null","es-ES,es;q=0.9,en;q=0.8,pt;q=0.7","true","","","","","","","","","","","","","",""
"","","","","","html-keyboard-response","47","366839","0.0-25.0","6","1","2023-10-27 12:15:13","a725c3012b74bf33a1020a98cb69c237","181.230.217.84","Mozilla/5.0 (Windows NT 10.0; Win64; x64) AppleWebKit/537.36 (KHTML, like Gecko) Chrome/118.0.0.0 Safari/537.36","WebKit","Chrome","118.0.0.0","Windows","10.0","null","es-ES,es;q=0.9,en;q=0.8,pt;q=0.7","true","null","<div style=""font-size:100px;"">X</div>","null","","","fixation","","","","","","","",""
"","","","","","audio-keyboard-response","48","368018","0.0-26.0","6","1","2023-10-27 12:15:13","a725c3012b74bf33a1020a98cb69c237","181.230.217.84","Mozilla/5.0 (Windows NT 10.0; Win64; x64) AppleWebKit/537.36 (KHTML, like Gecko) Chrome/118.0.0.0 Safari/537.36","WebKit","Chrome","118.0.0.0","Windows","10.0","null","es-ES,es;q=0.9,en;q=0.8,pt;q=0.7","true","null","tones/440hz_short.mp3","null","","","tone_number_task","1025","sesenta y tres","tones/440hz_short.mp3","1175","60","2","0",""
"","","","","","html-keyboard-response","49","368131","0.0-29.0-0.0","6","1","2023-10-27 12:15:13","a725c3012b74bf33a1020a98cb69c237","181.230.217.84","Mozilla/5.0 (Windows NT 10.0; Win64; x64) AppleWebKit/537.36 (KHTML, like Gecko) Chrome/118.0.0.0 Safari/537.36","WebKit","Chrome","118.0.0.0","Windows","10.0","null","es-ES,es;q=0.9,en;q=0.8,pt;q=0.7","true","112","tones/440hz_short.mp3","a","","","empty_block","","sesenta y tres","","","","2","0",""
"","","","","","html-keyboard-response","50","368763","0.0-29.0-1.0","6","1","2023-10-27 12:15:13","a725c3012b74bf33a1020a98cb69c237","181.230.217.84","Mozilla/5.0 (Windows NT 10.0; Win64; x64) AppleWebKit/537.36 (KHTML, like Gecko) Chrome/118.0.0.0 Safari/537.36","WebKit","Chrome","118.0.0.0","Windows","10.0","null","es-ES,es;q=0.9,en;q=0.8,pt;q=0.7","true","630","tones/440hz_short.mp3","k","","","empty_block","","sesenta y tres","","","","2","0",""
"","","","","","html-keyboard-response","51","371749","0.0-31.0","6","1","2023-10-27 12:15:13","a725c3012b74bf33a1020a98cb69c237","181.230.217.84","Mozilla/5.0 (Windows NT 10.0; Win64; x64) AppleWebKit/537.36 (KHTML, like Gecko) Chrome/118.0.0.0 Safari/537.36","WebKit","Chrome","118.0.0.0","Windows","10.0","null","es-ES,es;q=0.9,en;q=0.8,pt;q=0.7","true","null","<div style=""font-size:100px;"">X</div>","null","","","fixation","","","","","","","",""
"","","","","","audio-keyboard-response","52","371902","0.0-32.0","6","1","2023-10-27 12:15:13","a725c3012b74bf33a1020a98cb69c237","181.230.217.84","Mozilla/5.0 (Windows NT 10.0; Win64; x64) AppleWebKit/537.36 (KHTML, like Gecko) Chrome/118.0.0.0 Safari/537.36","WebKit","Chrome","118.0.0.0","Windows","10.0","null","es-ES,es;q=0.9,en;q=0.8,pt;q=0.7","true","null","tones/880hz_short.mp3","null","","","tone_number_task","0","treinta","tones/880hz_short.mp3","150","60","2","1",""
"","","","","","html-keyboard-response","53","372859","0.0-35.0-0.0","6","1","2023-10-27 12:15:13","a725c3012b74bf33a1020a98cb69c237","181.230.217.84","Mozilla/5.0 (Windows NT 10.0; Win64; x64) AppleWebKit/537.36 (KHTML, like Gecko) Chrome/118.0.0.0 Safari/537.36","WebKit","Chrome","118.0.0.0","Windows","10.0","null","es-ES,es;q=0.9,en;q=0.8,pt;q=0.7","true","956","tones/880hz_short.mp3","s","","","empty_block","","treinta","","","","2","1",""
"","","","","","html-keyboard-response","54","373771","0.0-35.0-1.0","6","1","2023-10-27 12:15:13","a725c3012b74bf33a1020a98cb69c237","181.230.217.84","Mozilla/5.0 (Windows NT 10.0; Win64; x64) AppleWebKit/537.36 (KHTML, like Gecko) Chrome/118.0.0.0 Safari/537.36","WebKit","Chrome","118.0.0.0","Windows","10.0","null","es-ES,es;q=0.9,en;q=0.8,pt;q=0.7","true","911","tones/880hz_short.mp3","j","","","empty_block","","treinta","","","","2","1",""
"","","","","","html-keyboard-response","55","376758","0.0-37.0","6","1","2023-10-27 12:15:13","a725c3012b74bf33a1020a98cb69c237","181.230.217.84","Mozilla/5.0 (Windows NT 10.0; Win64; x64) AppleWebKit/537.36 (KHTML, like Gecko) Chrome/118.0.0.0 Safari/537.36","WebKit","Chrome","118.0.0.0","Windows","10.0","null","es-ES,es;q=0.9,en;q=0.8,pt;q=0.7","true","null","<div style=""font-size:100px;"">X</div>","null","","","fixation","","","","","","","",""
"","","","","","audio-keyboard-response","56","377452","0.0-38.0","6","1","2023-10-27 12:15:13","a725c3012b74bf33a1020a98cb69c237","181.230.217.84","Mozilla/5.0 (Windows NT 10.0; Win64; x64) AppleWebKit/537.36 (KHTML, like Gecko) Chrome/118.0.0.0 Safari/537.36","WebKit","Chrome","118.0.0.0","Windows","10.0","null","es-ES,es;q=0.9,en;q=0.8,pt;q=0.7","true","691","tones/880hz_short.mp3","s","","","tone_number_task","992.5","cuarenta","tones/880hz_short.mp3","1142.5","60","2","2",""
"","","","","","html-keyboard-response","57","377755","0.0-39.0-0.0","6","1","2023-10-27 12:15:13","a725c3012b74bf33a1020a98cb69c237","181.230.217.84","Mozilla/5.0 (Windows NT 10.0; Win64; x64) AppleWebKit/537.36 (KHTML, like Gecko) Chrome/118.0.0.0 Safari/537.36","WebKit","Chrome","118.0.0.0","Windows","10.0","null","es-ES,es;q=0.9,en;q=0.8,pt;q=0.7","true","null","","null","","","delay_block","","","","","","2","2",""
"","","","","","html-keyboard-response","58","377908","0.0-39.0-1.0","6","1","2023-10-27 12:15:13","a725c3012b74bf33a1020a98cb69c237","181.230.217.84","Mozilla/5.0 (Windows NT 10.0; Win64; x64) AppleWebKit/537.36 (KHTML, like Gecko) Chrome/118.0.0.0 Safari/537.36","WebKit","Chrome","118.0.0.0","Windows","10.0","null","es-ES,es;q=0.9,en;q=0.8,pt;q=0.7","true","null","<p id=""stimulus"" style=""font-size:60px;"">cuarenta</p>","null","","","tone_number_task_remaining_before_delay","","cuarenta","","451.5","60","2","2",""
"","","","","","html-keyboard-response","59","378187","0.0-42.0-0.0","6","1","2023-10-27 12:15:13","a725c3012b74bf33a1020a98cb69c237","181.230.217.84","Mozilla/5.0 (Windows NT 10.0; Win64; x64) AppleWebKit/537.36 (KHTML, like Gecko) Chrome/118.0.0.0 Safari/537.36","WebKit","Chrome","118.0.0.0","Windows","10.0","null","es-ES,es;q=0.9,en;q=0.8,pt;q=0.7","true","278","<p id=""stimulus"" style=""font-size:60px;"">cuarenta</p>","j","","","empty_block","","cuarenta","","","","2","2",""
"","","","","","html-keyboard-response","60","381174","0.0-43.0","6","1","2023-10-27 12:15:13","a725c3012b74bf33a1020a98cb69c237","181.230.217.84","Mozilla/5.0 (Windows NT 10.0; Win64; x64) AppleWebKit/537.36 (KHTML, like Gecko) Chrome/118.0.0.0 Safari/537.36","WebKit","Chrome","118.0.0.0","Windows","10.0","null","es-ES,es;q=0.9,en;q=0.8,pt;q=0.7","true","null","<div style=""font-size:100px;"">X</div>","null","","","fixation","","","","","","","",""
"","","","","","audio-keyboard-response","61","381429","0.0-44.0","6","1","2023-10-27 12:15:13","a725c3012b74bf33a1020a98cb69c237","181.230.217.84","Mozilla/5.0 (Windows NT 10.0; Win64; x64) AppleWebKit/537.36 (KHTML, like Gecko) Chrome/118.0.0.0 Safari/537.36","WebKit","Chrome","118.0.0.0","Windows","10.0","null","es-ES,es;q=0.9,en;q=0.8,pt;q=0.7","true","null","tones/440hz_short.mp3","null","","","tone_number_task","102.5","sesenta y siete","tones/440hz_short.mp3","252.5","60","2","3",""
"","","","","","html-keyboard-response","62","382532","0.0-47.0-0.0","6","1","2023-10-27 12:15:13","a725c3012b74bf33a1020a98cb69c237","181.230.217.84","Mozilla/5.0 (Windows NT 10.0; Win64; x64) AppleWebKit/537.36 (KHTML, like Gecko) Chrome/118.0.0.0 Safari/537.36","WebKit","Chrome","118.0.0.0","Windows","10.0","null","es-ES,es;q=0.9,en;q=0.8,pt;q=0.7","true","1102","tones/440hz_short.mp3","a","","","empty_block","","sesenta y siete","","","","2","3",""
"","","","","","html-keyboard-response","63","383036","0.0-47.0-1.0","6","1","2023-10-27 12:15:13","a725c3012b74bf33a1020a98cb69c237","181.230.217.84","Mozilla/5.0 (Windows NT 10.0; Win64; x64) AppleWebKit/537.36 (KHTML, like Gecko) Chrome/118.0.0.0 Safari/537.36","WebKit","Chrome","118.0.0.0","Windows","10.0","null","es-ES,es;q=0.9,en;q=0.8,pt;q=0.7","true","502","tones/440hz_short.mp3","k","","","empty_block","","sesenta y siete","","","","2","3",""
"","","","","","html-keyboard-response","64","386022","0.0-49.0","6","1","2023-10-27 12:15:13","a725c3012b74bf33a1020a98cb69c237","181.230.217.84","Mozilla/5.0 (Windows NT 10.0; Win64; x64) AppleWebKit/537.36 (KHTML, like Gecko) Chrome/118.0.0.0 Safari/537.36","WebKit","Chrome","118.0.0.0","Windows","10.0","null","es-ES,es;q=0.9,en;q=0.8,pt;q=0.7","true","null","<div style=""font-size:100px;"">X</div>","null","","","fixation","","","","","","","",""
"","","","","","audio-keyboard-response","65","386772","0.0-50.0","6","1","2023-10-27 12:15:13","a725c3012b74bf33a1020a98cb69c237","181.230.217.84","Mozilla/5.0 (Windows NT 10.0; Win64; x64) AppleWebKit/537.36 (KHTML, like Gecko) Chrome/118.0.0.0 Safari/537.36","WebKit","Chrome","118.0.0.0","Windows","10.0","null","es-ES,es;q=0.9,en;q=0.8,pt;q=0.7","true","741","tones/880hz_short.mp3","s","","","tone_number_task","992.5","cuarenta y siete","tones/880hz_short.mp3","1142.5","60","2","4",""
"","","","","","html-keyboard-response","66","387027","0.0-51.0-0.0","6","1","2023-10-27 12:15:13","a725c3012b74bf33a1020a98cb69c237","181.230.217.84","Mozilla/5.0 (Windows NT 10.0; Win64; x64) AppleWebKit/537.36 (KHTML, like Gecko) Chrome/118.0.0.0 Safari/537.36","WebKit","Chrome","118.0.0.0","Windows","10.0","null","es-ES,es;q=0.9,en;q=0.8,pt;q=0.7","true","null","","null","","","delay_block","","","","","","2","4",""
"","","","","","html-keyboard-response","67","387179","0.0-51.0-1.0","6","1","2023-10-27 12:15:13","a725c3012b74bf33a1020a98cb69c237","181.230.217.84","Mozilla/5.0 (Windows NT 10.0; Win64; x64) AppleWebKit/537.36 (KHTML, like Gecko) Chrome/118.0.0.0 Safari/537.36","WebKit","Chrome","118.0.0.0","Windows","10.0","null","es-ES,es;q=0.9,en;q=0.8,pt;q=0.7","true","null","<p id=""stimulus"" style=""font-size:60px;"">cuarenta y siete</p>","null","","","tone_number_task_remaining_before_delay","","cuarenta y siete","","401.5","60","2","4",""
"","","","","","html-keyboard-response","68","387476","0.0-54.0-0.0","6","1","2023-10-27 12:15:13","a725c3012b74bf33a1020a98cb69c237","181.230.217.84","Mozilla/5.0 (Windows NT 10.0; Win64; x64) AppleWebKit/537.36 (KHTML, like Gecko) Chrome/118.0.0.0 Safari/537.36","WebKit","Chrome","118.0.0.0","Windows","10.0","null","es-ES,es;q=0.9,en;q=0.8,pt;q=0.7","true","296","<p id=""stimulus"" style=""font-size:60px;"">cuarenta y siete</p>","j","","","empty_block","","cuarenta y siete","","","","2","4",""
"","","","","","html-keyboard-response","69","390462","0.0-55.0","6","1","2023-10-27 12:15:13","a725c3012b74bf33a1020a98cb69c237","181.230.217.84","Mozilla/5.0 (Windows NT 10.0; Win64; x64) AppleWebKit/537.36 (KHTML, like Gecko) Chrome/118.0.0.0 Safari/537.36","WebKit","Chrome","118.0.0.0","Windows","10.0","null","es-ES,es;q=0.9,en;q=0.8,pt;q=0.7","true","null","<div style=""font-size:100px;"">X</div>","null","","","fixation","","","","","","","",""
"","","","","","audio-keyboard-response","70","390614","0.0-56.0","6","1","2023-10-27 12:15:13","a725c3012b74bf33a1020a98cb69c237","181.230.217.84","Mozilla/5.0 (Windows NT 10.0; Win64; x64) AppleWebKit/537.36 (KHTML, like Gecko) Chrome/118.0.0.0 Safari/537.36","WebKit","Chrome","118.0.0.0","Windows","10.0","null","es-ES,es;q=0.9,en;q=0.8,pt;q=0.7","true","null","tones/880hz_short.mp3","null","","","tone_number_task","0","cuarenta y uno","tones/880hz_short.mp3","150","60","2","5",""
"","","","","","html-keyboard-response","71","391816","0.0-59.0-0.0","6","1","2023-10-27 12:15:13","a725c3012b74bf33a1020a98cb69c237","181.230.217.84","Mozilla/5.0 (Windows NT 10.0; Win64; x64) AppleWebKit/537.36 (KHTML, like Gecko) Chrome/118.0.0.0 Safari/537.36","WebKit","Chrome","118.0.0.0","Windows","10.0","null","es-ES,es;q=0.9,en;q=0.8,pt;q=0.7","true","null","tones/880hz_short.mp3","null","","","empty_block","","cuarenta y uno","","","","2","5",""
"","","","","","html-keyboard-response","72","391821","0.0-59.0-1.0","6","1","2023-10-27 12:15:13","a725c3012b74bf33a1020a98cb69c237","181.230.217.84","Mozilla/5.0 (Windows NT 10.0; Win64; x64) AppleWebKit/537.36 (KHTML, like Gecko) Chrome/118.0.0.0 Safari/537.36","WebKit","Chrome","118.0.0.0","Windows","10.0","null","es-ES,es;q=0.9,en;q=0.8,pt;q=0.7","true","4","tones/880hz_short.mp3","s","","","empty_block","","cuarenta y uno","","","","2","5",""
"","","","","","html-keyboard-response","73","394808","0.0-61.0","6","1","2023-10-27 12:15:13","a725c3012b74bf33a1020a98cb69c237","181.230.217.84","Mozilla/5.0 (Windows NT 10.0; Win64; x64) AppleWebKit/537.36 (KHTML, like Gecko) Chrome/118.0.0.0 Safari/537.36","WebKit","Chrome","118.0.0.0","Windows","10.0","null","es-ES,es;q=0.9,en;q=0.8,pt;q=0.7","true","null","<div style=""font-size:100px;"">X</div>","null","","","fixation","","","","","","","",""
"","","","","","audio-keyboard-response","74","395063","0.0-62.0","6","1","2023-10-27 12:15:13","a725c3012b74bf33a1020a98cb69c237","181.230.217.84","Mozilla/5.0 (Windows NT 10.0; Win64; x64) AppleWebKit/537.36 (KHTML, like Gecko) Chrome/118.0.0.0 Safari/537.36","WebKit","Chrome","118.0.0.0","Windows","10.0","null","es-ES,es;q=0.9,en;q=0.8,pt;q=0.7","true","null","tones/440hz_short.mp3","null","","","tone_number_task","102.5","veintitres","tones/440hz_short.mp3","252.5","60","2","6",""
"","","","","","html-keyboard-response","75","396265","0.0-65.0-0.0","6","1","2023-10-27 12:15:13","a725c3012b74bf33a1020a98cb69c237","181.230.217.84","Mozilla/5.0 (Windows NT 10.0; Win64; x64) AppleWebKit/537.36 (KHTML, like Gecko) Chrome/118.0.0.0 Safari/537.36","WebKit","Chrome","118.0.0.0","Windows","10.0","null","es-ES,es;q=0.9,en;q=0.8,pt;q=0.7","true","null","tones/440hz_short.mp3","null","","","empty_block","","veintitres","","","","2","6",""
"","","","","","html-keyboard-response","76","397214","0.0-65.0-1.0","6","1","2023-10-27 12:15:13","a725c3012b74bf33a1020a98cb69c237","181.230.217.84","Mozilla/5.0 (Windows NT 10.0; Win64; x64) AppleWebKit/537.36 (KHTML, like Gecko) Chrome/118.0.0.0 Safari/537.36","WebKit","Chrome","118.0.0.0","Windows","10.0","null","es-ES,es;q=0.9,en;q=0.8,pt;q=0.7","true","947","tones/440hz_short.mp3","a","","","empty_block","","veintitres","","","","2","6",""
"","","","","","html-keyboard-response","77","400201","0.0-67.0","6","1","2023-10-27 12:15:13","a725c3012b74bf33a1020a98cb69c237","181.230.217.84","Mozilla/5.0 (Windows NT 10.0; Win64; x64) AppleWebKit/537.36 (KHTML, like Gecko) Chrome/118.0.0.0 Safari/537.36","WebKit","Chrome","118.0.0.0","Windows","10.0","null","es-ES,es;q=0.9,en;q=0.8,pt;q=0.7","true","null","<div style=""font-size:100px;"">X</div>","null","","","fixation","","","","","","","",""
"","","","","","audio-keyboard-response","78","400455","0.0-68.0","6","1","2023-10-27 12:15:13","a725c3012b74bf33a1020a98cb69c237","181.230.217.84","Mozilla/5.0 (Windows NT 10.0; Win64; x64) AppleWebKit/537.36 (KHTML, like Gecko) Chrome/118.0.0.0 Safari/537.36","WebKit","Chrome","118.0.0.0","Windows","10.0","null","es-ES,es;q=0.9,en;q=0.8,pt;q=0.7","true","null","tones/880hz_short.mp3","null","","","tone_number_task","102.5","veintidós","tones/880hz_short.mp3","252.5","60","2","7",""
"","","","","","html-keyboard-response","79","400838","0.0-71.0-0.0","6","1","2023-10-27 12:15:13","a725c3012b74bf33a1020a98cb69c237","181.230.217.84","Mozilla/5.0 (Windows NT 10.0; Win64; x64) AppleWebKit/537.36 (KHTML, like Gecko) Chrome/118.0.0.0 Safari/537.36","WebKit","Chrome","118.0.0.0","Windows","10.0","null","es-ES,es;q=0.9,en;q=0.8,pt;q=0.7","true","381","tones/880hz_short.mp3","s","","","empty_block","","veintidós","","","","2","7",""
"","","","","","html-keyboard-response","80","401831","0.0-71.0-1.0","6","1","2023-10-27 12:15:13","a725c3012b74bf33a1020a98cb69c237","181.230.217.84","Mozilla/5.0 (Windows NT 10.0; Win64; x64) AppleWebKit/537.36 (KHTML, like Gecko) Chrome/118.0.0.0 Safari/537.36","WebKit","Chrome","118.0.0.0","Windows","10.0","null","es-ES,es;q=0.9,en;q=0.8,pt;q=0.7","true","991","tones/880hz_short.mp3","j","","","empty_block","","veintidós","","","","2","7",""
"","","","","","html-keyboard-response","81","404818","0.0-73.0","6","1","2023-10-27 12:15:13","a725c3012b74bf33a1020a98cb69c237","181.230.217.84","Mozilla/5.0 (Windows NT 10.0; Win64; x64) AppleWebKit/537.36 (KHTML, like Gecko) Chrome/118.0.0.0 Safari/537.36","WebKit","Chrome","118.0.0.0","Windows","10.0","null","es-ES,es;q=0.9,en;q=0.8,pt;q=0.7","true","null","<div style=""font-size:100px;"">X</div>","null","","","fixation","","","","","","","",""
"","","","","","audio-keyboard-response","82","404971","0.0-74.0","6","1","2023-10-27 12:15:13","a725c3012b74bf33a1020a98cb69c237","181.230.217.84","Mozilla/5.0 (Windows NT 10.0; Win64; x64) AppleWebKit/537.36 (KHTML, like Gecko) Chrome/118.0.0.0 Safari/537.36","WebKit","Chrome","118.0.0.0","Windows","10.0","null","es-ES,es;q=0.9,en;q=0.8,pt;q=0.7","true","null","tones/880hz_short.mp3","null","","","tone_number_task","0","treinta","tones/880hz_short.mp3","150","60","2","8",""
"","","","","","html-keyboard-response","83","405839","0.0-77.0-0.0","6","1","2023-10-27 12:15:13","a725c3012b74bf33a1020a98cb69c237","181.230.217.84","Mozilla/5.0 (Windows NT 10.0; Win64; x64) AppleWebKit/537.36 (KHTML, like Gecko) Chrome/118.0.0.0 Safari/537.36","WebKit","Chrome","118.0.0.0","Windows","10.0","null","es-ES,es;q=0.9,en;q=0.8,pt;q=0.7","true","866","tones/880hz_short.mp3","s","","","empty_block","","treinta","","","","2","8",""
"","","","","","html-keyboard-response","84","406223","0.0-77.0-1.0","6","1","2023-10-27 12:15:13","a725c3012b74bf33a1020a98cb69c237","181.230.217.84","Mozilla/5.0 (Windows NT 10.0; Win64; x64) AppleWebKit/537.36 (KHTML, like Gecko) Chrome/118.0.0.0 Safari/537.36","WebKit","Chrome","118.0.0.0","Windows","10.0","null","es-ES,es;q=0.9,en;q=0.8,pt;q=0.7","true","382","tones/880hz_short.mp3","j","","","empty_block","","treinta","","","","2","8",""
"","","","","","html-keyboard-response","85","409209","0.0-79.0","6","1","2023-10-27 12:15:13","a725c3012b74bf33a1020a98cb69c237","181.230.217.84","Mozilla/5.0 (Windows NT 10.0; Win64; x64) AppleWebKit/537.36 (KHTML, like Gecko) Chrome/118.0.0.0 Safari/537.36","WebKit","Chrome","118.0.0.0","Windows","10.0","null","es-ES,es;q=0.9,en;q=0.8,pt;q=0.7","true","null","<div style=""font-size:100px;"">X</div>","null","","","fixation","","","","","","","",""
"","","","","","audio-keyboard-response","86","409362","0.0-80.0","6","1","2023-10-27 12:15:13","a725c3012b74bf33a1020a98cb69c237","181.230.217.84","Mozilla/5.0 (Windows NT 10.0; Win64; x64) AppleWebKit/537.36 (KHTML, like Gecko) Chrome/118.0.0.0 Safari/537.36","WebKit","Chrome","118.0.0.0","Windows","10.0","null","es-ES,es;q=0.9,en;q=0.8,pt;q=0.7","true","null","tones/880hz_short.mp3","null","","","tone_number_task","0","treinta y seis","tones/880hz_short.mp3","150","60","2","9",""
"","","","","","html-keyboard-response","87","409959","0.0-83.0-0.0","6","1","2023-10-27 12:15:13","a725c3012b74bf33a1020a98cb69c237","181.230.217.84","Mozilla/5.0 (Windows NT 10.0; Win64; x64) AppleWebKit/537.36 (KHTML, like Gecko) Chrome/118.0.0.0 Safari/537.36","WebKit","Chrome","118.0.0.0","Windows","10.0","null","es-ES,es;q=0.9,en;q=0.8,pt;q=0.7","true","595","tones/880hz_short.mp3","s","","","empty_block","","treinta y seis","","","","2","9",""
"","","","","","html-keyboard-response","88","410239","0.0-83.0-1.0","6","1","2023-10-27 12:15:13","a725c3012b74bf33a1020a98cb69c237","181.230.217.84","Mozilla/5.0 (Windows NT 10.0; Win64; x64) AppleWebKit/537.36 (KHTML, like Gecko) Chrome/118.0.0.0 Safari/537.36","WebKit","Chrome","118.0.0.0","Windows","10.0","null","es-ES,es;q=0.9,en;q=0.8,pt;q=0.7","true","279","tones/880hz_short.mp3","j","","","empty_block","","treinta y seis","","","","2","9",""
"","","","","","html-keyboard-response","89","413227","0.0-85.0","6","1","2023-10-27 12:15:13","a725c3012b74bf33a1020a98cb69c237","181.230.217.84","Mozilla/5.0 (Windows NT 10.0; Win64; x64) AppleWebKit/537.36 (KHTML, like Gecko) Chrome/118.0.0.0 Safari/537.36","WebKit","Chrome","118.0.0.0","Windows","10.0","null","es-ES,es;q=0.9,en;q=0.8,pt;q=0.7","true","null","<div style=""font-size:100px;"">X</div>","null","","","fixation","","","","","","","",""
"","","","","","audio-keyboard-response","90","413481","0.0-86.0","6","1","2023-10-27 12:15:13","a725c3012b74bf33a1020a98cb69c237","181.230.217.84","Mozilla/5.0 (Windows NT 10.0; Win64; x64) AppleWebKit/537.36 (KHTML, like Gecko) Chrome/118.0.0.0 Safari/537.36","WebKit","Chrome","118.0.0.0","Windows","10.0","null","es-ES,es;q=0.9,en;q=0.8,pt;q=0.7","true","null","tones/440hz_short.mp3","null","","","tone_number_task","102.5","sesenta y cuatro","tones/440hz_short.mp3","252.5","60","2","10",""
"","","","","","html-keyboard-response","91","414600","0.0-89.0-0.0","6","1","2023-10-27 12:15:13","a725c3012b74bf33a1020a98cb69c237","181.230.217.84","Mozilla/5.0 (Windows NT 10.0; Win64; x64) AppleWebKit/537.36 (KHTML, like Gecko) Chrome/118.0.0.0 Safari/537.36","WebKit","Chrome","118.0.0.0","Windows","10.0","null","es-ES,es;q=0.9,en;q=0.8,pt;q=0.7","true","1116","tones/440hz_short.mp3","a","","","empty_block","","sesenta y cuatro","","","","2","10",""
"","","","","","html-keyboard-response","92","414943","0.0-89.0-1.0","6","1","2023-10-27 12:15:13","a725c3012b74bf33a1020a98cb69c237","181.230.217.84","Mozilla/5.0 (Windows NT 10.0; Win64; x64) AppleWebKit/537.36 (KHTML, like Gecko) Chrome/118.0.0.0 Safari/537.36","WebKit","Chrome","118.0.0.0","Windows","10.0","null","es-ES,es;q=0.9,en;q=0.8,pt;q=0.7","true","342","tones/440hz_short.mp3","k","","","empty_block","","sesenta y cuatro","","","","2","10",""
"","","","","","html-keyboard-response","93","417930","0.0-91.0","6","1","2023-10-27 12:15:13","a725c3012b74bf33a1020a98cb69c237","181.230.217.84","Mozilla/5.0 (Windows NT 10.0; Win64; x64) AppleWebKit/537.36 (KHTML, like Gecko) Chrome/118.0.0.0 Safari/537.36","WebKit","Chrome","118.0.0.0","Windows","10.0","null","es-ES,es;q=0.9,en;q=0.8,pt;q=0.7","true","null","<div style=""font-size:100px;"">X</div>","null","","","fixation","","","","","","","",""
"","","","","","audio-keyboard-response","94","418737","0.0-92.0","6","1","2023-10-27 12:15:13","a725c3012b74bf33a1020a98cb69c237","181.230.217.84","Mozilla/5.0 (Windows NT 10.0; Win64; x64) AppleWebKit/537.36 (KHTML, like Gecko) Chrome/118.0.0.0 Safari/537.36","WebKit","Chrome","118.0.0.0","Windows","10.0","null","es-ES,es;q=0.9,en;q=0.8,pt;q=0.7","true","811","tones/440hz_short.mp3","a","","","tone_number_task","1025","sesenta y uno","tones/440hz_short.mp3","1175","60","2","11",""
"","","","","","html-keyboard-response","95","418954","0.0-93.0-0.0","6","1","2023-10-27 12:15:13","a725c3012b74bf33a1020a98cb69c237","181.230.217.84","Mozilla/5.0 (Windows NT 10.0; Win64; x64) AppleWebKit/537.36 (KHTML, like Gecko) Chrome/118.0.0.0 Safari/537.36","WebKit","Chrome","118.0.0.0","Windows","10.0","null","es-ES,es;q=0.9,en;q=0.8,pt;q=0.7","true","null","","null","","","delay_block","","","","","","2","11",""
"","","","","","html-keyboard-response","96","419108","0.0-93.0-1.0","6","1","2023-10-27 12:15:13","a725c3012b74bf33a1020a98cb69c237","181.230.217.84","Mozilla/5.0 (Windows NT 10.0; Win64; x64) AppleWebKit/537.36 (KHTML, like Gecko) Chrome/118.0.0.0 Safari/537.36","WebKit","Chrome","118.0.0.0","Windows","10.0","null","es-ES,es;q=0.9,en;q=0.8,pt;q=0.7","true","null","<p id=""stimulus"" style=""font-size:60px;"">sesenta y uno</p>","null","","","tone_number_task_remaining_before_delay","","sesenta y uno","","364","60","2","11",""
"","","","","","html-keyboard-response","97","419345","0.0-96.0-0.0","6","1","2023-10-27 12:15:13","a725c3012b74bf33a1020a98cb69c237","181.230.217.84","Mozilla/5.0 (Windows NT 10.0; Win64; x64) AppleWebKit/537.36 (KHTML, like Gecko) Chrome/118.0.0.0 Safari/537.36","WebKit","Chrome","118.0.0.0","Windows","10.0","null","es-ES,es;q=0.9,en;q=0.8,pt;q=0.7","true","235","<p id=""stimulus"" style=""font-size:60px;"">sesenta y uno</p>","k","","","empty_block","","sesenta y uno","","","","2","11",""
"","","","","","html-keyboard-response","98","422332","0.0-97.0","6","1","2023-10-27 12:15:13","a725c3012b74bf33a1020a98cb69c237","181.230.217.84","Mozilla/5.0 (Windows NT 10.0; Win64; x64) AppleWebKit/537.36 (KHTML, like Gecko) Chrome/118.0.0.0 Safari/537.36","WebKit","Chrome","118.0.0.0","Windows","10.0","null","es-ES,es;q=0.9,en;q=0.8,pt;q=0.7","true","null","<div style=""font-size:100px;"">X</div>","null","","","fixation","","","","","","","",""
"","","","","","audio-keyboard-response","99","423249","0.0-98.0","6","1","2023-10-27 12:15:13","a725c3012b74bf33a1020a98cb69c237","181.230.217.84","Mozilla/5.0 (Windows NT 10.0; Win64; x64) AppleWebKit/537.36 (KHTML, like Gecko) Chrome/118.0.0.0 Safari/537.36","WebKit","Chrome","118.0.0.0","Windows","10.0","null","es-ES,es;q=0.9,en;q=0.8,pt;q=0.7","true","909","tones/880hz_short.mp3","s","","","tone_number_task","1025","cuarenta y dos","tones/880hz_short.mp3","1175","60","2","12",""
"","","","","","html-keyboard-response","100","423368","0.0-99.0-0.0","6","1","2023-10-27 12:15:13","a725c3012b74bf33a1020a98cb69c237","181.230.217.84","Mozilla/5.0 (Windows NT 10.0; Win64; x64) AppleWebKit/537.36 (KHTML, like Gecko) Chrome/118.0.0.0 Safari/537.36","WebKit","Chrome","118.0.0.0","Windows","10.0","null","es-ES,es;q=0.9,en;q=0.8,pt;q=0.7","true","null","","null","","","delay_block","","","","","","2","12",""
"","","","","","html-keyboard-response","101","423521","0.0-99.0-1.0","6","1","2023-10-27 12:15:13","a725c3012b74bf33a1020a98cb69c237","181.230.217.84","Mozilla/5.0 (Windows NT 10.0; Win64; x64) AppleWebKit/537.36 (KHTML, like Gecko) Chrome/118.0.0.0 Safari/537.36","WebKit","Chrome","118.0.0.0","Windows","10.0","null","es-ES,es;q=0.9,en;q=0.8,pt;q=0.7","true","null","<p id=""stimulus"" style=""font-size:60px;"">cuarenta y dos</p>","null","","","tone_number_task_remaining_before_delay","","cuarenta y dos","","266","60","2","12",""
"","","","","","html-keyboard-response","102","424724","0.0-102.0-0.0","6","1","2023-10-27 12:15:13","a725c3012b74bf33a1020a98cb69c237","181.230.217.84","Mozilla/5.0 (Windows NT 10.0; Win64; x64) AppleWebKit/537.36 (KHTML, like Gecko) Chrome/118.0.0.0 Safari/537.36","WebKit","Chrome","118.0.0.0","Windows","10.0","null","es-ES,es;q=0.9,en;q=0.8,pt;q=0.7","true","null","<p id=""stimulus"" style=""font-size:60px;"">cuarenta y dos</p>","null","","","empty_block","","cuarenta y dos","","","","2","12",""
"","","","","","html-keyboard-response","103","427711","0.0-103.0","6","1","2023-10-27 12:15:13","a725c3012b74bf33a1020a98cb69c237","181.230.217.84","Mozilla/5.0 (Windows NT 10.0; Win64; x64) AppleWebKit/537.36 (KHTML, like Gecko) Chrome/118.0.0.0 Safari/537.36","WebKit","Chrome","118.0.0.0","Windows","10.0","null","es-ES,es;q=0.9,en;q=0.8,pt;q=0.7","true","null","<div style=""font-size:100px;"">X</div>","null","","","fixation","","","","","","","",""
"","","","","","audio-keyboard-response","104","427966","0.0-104.0","6","1","2023-10-27 12:15:13","a725c3012b74bf33a1020a98cb69c237","181.230.217.84","Mozilla/5.0 (Windows NT 10.0; Win64; x64) AppleWebKit/537.36 (KHTML, like Gecko) Chrome/118.0.0.0 Safari/537.36","WebKit","Chrome","118.0.0.0","Windows","10.0","null","es-ES,es;q=0.9,en;q=0.8,pt;q=0.7","true","null","tones/880hz_short.mp3","null","","","tone_number_task","102.5","cuarenta y cuatro","tones/880hz_short.mp3","252.5","60","2","13",""
"","","","","","html-keyboard-response","105","429169","0.0-107.0-0.0","6","1","2023-10-27 12:15:13","a725c3012b74bf33a1020a98cb69c237","181.230.217.84","Mozilla/5.0 (Windows NT 10.0; Win64; x64) AppleWebKit/537.36 (KHTML, like Gecko) Chrome/118.0.0.0 Safari/537.36","WebKit","Chrome","118.0.0.0","Windows","10.0","null","es-ES,es;q=0.9,en;q=0.8,pt;q=0.7","true","null","tones/880hz_short.mp3","null","","","empty_block","","cuarenta y cuatro","","","","2","13",""
"","","","","","html-keyboard-response","106","429171","0.0-107.0-1.0","6","1","2023-10-27 12:15:13","a725c3012b74bf33a1020a98cb69c237","181.230.217.84","Mozilla/5.0 (Windows NT 10.0; Win64; x64) AppleWebKit/537.36 (KHTML, like Gecko) Chrome/118.0.0.0 Safari/537.36","WebKit","Chrome","118.0.0.0","Windows","10.0","null","es-ES,es;q=0.9,en;q=0.8,pt;q=0.7","true","0","tones/880hz_short.mp3","s","","","empty_block","","cuarenta y cuatro","","","","2","13",""
"","","","","","html-keyboard-response","107","432157","0.0-109.0","6","1","2023-10-27 12:15:13","a725c3012b74bf33a1020a98cb69c237","181.230.217.84","Mozilla/5.0 (Windows NT 10.0; Win64; x64) AppleWebKit/537.36 (KHTML, like Gecko) Chrome/118.0.0.0 Safari/537.36","WebKit","Chrome","118.0.0.0","Windows","10.0","null","es-ES,es;q=0.9,en;q=0.8,pt;q=0.7","true","null","<div style=""font-size:100px;"">X</div>","null","","","fixation","","","","","","","",""
"","","","","","audio-keyboard-response","108","432412","0.0-110.0","6","1","2023-10-27 12:15:13","a725c3012b74bf33a1020a98cb69c237","181.230.217.84","Mozilla/5.0 (Windows NT 10.0; Win64; x64) AppleWebKit/537.36 (KHTML, like Gecko) Chrome/118.0.0.0 Safari/537.36","WebKit","Chrome","118.0.0.0","Windows","10.0","null","es-ES,es;q=0.9,en;q=0.8,pt;q=0.7","true","null","tones/880hz_short.mp3","null","","","tone_number_task","102.5","cincuenta y seis","tones/880hz_short.mp3","252.5","60","2","14",""
"","","","","","html-keyboard-response","109","432681","0.0-113.0-0.0","6","1","2023-10-27 12:15:13","a725c3012b74bf33a1020a98cb69c237","181.230.217.84","Mozilla/5.0 (Windows NT 10.0; Win64; x64) AppleWebKit/537.36 (KHTML, like Gecko) Chrome/118.0.0.0 Safari/537.36","WebKit","Chrome","118.0.0.0","Windows","10.0","null","es-ES,es;q=0.9,en;q=0.8,pt;q=0.7","true","267","tones/880hz_short.mp3","s","","","empty_block","","cincuenta y seis","","","","2","14",""
"","","","","","html-keyboard-response","110","433385","0.0-113.0-1.0","6","1","2023-10-27 12:15:13","a725c3012b74bf33a1020a98cb69c237","181.230.217.84","Mozilla/5.0 (Windows NT 10.0; Win64; x64) AppleWebKit/537.36 (KHTML, like Gecko) Chrome/118.0.0.0 Safari/537.36","WebKit","Chrome","118.0.0.0","Windows","10.0","null","es-ES,es;q=0.9,en;q=0.8,pt;q=0.7","true","702","tones/880hz_short.mp3","k","","","empty_block","","cincuenta y seis","","","","2","14",""
"","","","","","html-keyboard-response","111","436372","0.0-115.0","6","1","2023-10-27 12:15:13","a725c3012b74bf33a1020a98cb69c237","181.230.217.84","Mozilla/5.0 (Windows NT 10.0; Win64; x64) AppleWebKit/537.36 (KHTML, like Gecko) Chrome/118.0.0.0 Safari/537.36","WebKit","Chrome","118.0.0.0","Windows","10.0","null","es-ES,es;q=0.9,en;q=0.8,pt;q=0.7","true","null","<div style=""font-size:100px;"">X</div>","null","","","fixation","","","","","","","",""
"","","","","","audio-keyboard-response","112","436628","0.0-116.0","6","1","2023-10-27 12:15:13","a725c3012b74bf33a1020a98cb69c237","181.230.217.84","Mozilla/5.0 (Windows NT 10.0; Win64; x64) AppleWebKit/537.36 (KHTML, like Gecko) Chrome/118.0.0.0 Safari/537.36","WebKit","Chrome","118.0.0.0","Windows","10.0","null","es-ES,es;q=0.9,en;q=0.8,pt;q=0.7","true","null","tones/440hz_short.mp3","null","","","tone_number_task","102.5","veintiuno","tones/440hz_short.mp3","252.5","60","2","15",""
"","","","","","html-keyboard-response","113","437546","0.0-119.0-0.0","6","1","2023-10-27 12:15:13","a725c3012b74bf33a1020a98cb69c237","181.230.217.84","Mozilla/5.0 (Windows NT 10.0; Win64; x64) AppleWebKit/537.36 (KHTML, like Gecko) Chrome/118.0.0.0 Safari/537.36","WebKit","Chrome","118.0.0.0","Windows","10.0","null","es-ES,es;q=0.9,en;q=0.8,pt;q=0.7","true","917","tones/440hz_short.mp3","s","","","empty_block","","veintiuno","","","","2","15",""
"","","","","","html-keyboard-response","114","438386","0.0-119.0-1.0","6","1","2023-10-27 12:15:13","a725c3012b74bf33a1020a98cb69c237","181.230.217.84","Mozilla/5.0 (Windows NT 10.0; Win64; x64) AppleWebKit/537.36 (KHTML, like Gecko) Chrome/118.0.0.0 Safari/537.36","WebKit","Chrome","118.0.0.0","Windows","10.0","null","es-ES,es;q=0.9,en;q=0.8,pt;q=0.7","true","838","tones/440hz_short.mp3","j","","","empty_block","","veintiuno","","","","2","15",""
"","","","","","html-keyboard-response","115","441373","0.0-121.0","6","1","2023-10-27 12:15:13","a725c3012b74bf33a1020a98cb69c237","181.230.217.84","Mozilla/5.0 (Windows NT 10.0; Win64; x64) AppleWebKit/537.36 (KHTML, like Gecko) Chrome/118.0.0.0 Safari/537.36","WebKit","Chrome","118.0.0.0","Windows","10.0","null","es-ES,es;q=0.9,en;q=0.8,pt;q=0.7","true","null","<div style=""font-size:100px;"">X</div>","null","","","fixation","","","","","","","",""
"","","","","","audio-keyboard-response","116","441526","0.0-122.0","6","1","2023-10-27 12:15:13","a725c3012b74bf33a1020a98cb69c237","181.230.217.84","Mozilla/5.0 (Windows NT 10.0; Win64; x64) AppleWebKit/537.36 (KHTML, like Gecko) Chrome/118.0.0.0 Safari/537.36","WebKit","Chrome","118.0.0.0","Windows","10.0","null","es-ES,es;q=0.9,en;q=0.8,pt;q=0.7","true","null","tones/440hz_short.mp3","null","","","tone_number_task","0","sesenta y cinco","tones/440hz_short.mp3","150","60","2","16",""
"","","","","","html-keyboard-response","117","442729","0.0-125.0-0.0","6","1","2023-10-27 12:15:13","a725c3012b74bf33a1020a98cb69c237","181.230.217.84","Mozilla/5.0 (Windows NT 10.0; Win64; x64) AppleWebKit/537.36 (KHTML, like Gecko) Chrome/118.0.0.0 Safari/537.36","WebKit","Chrome","118.0.0.0","Windows","10.0","null","es-ES,es;q=0.9,en;q=0.8,pt;q=0.7","true","null","tones/440hz_short.mp3","null","","","empty_block","","sesenta y cinco","","","","2","16",""
"","","","","","html-keyboard-response","118","443091","0.0-125.0-1.0","6","1","2023-10-27 12:15:13","a725c3012b74bf33a1020a98cb69c237","181.230.217.84","Mozilla/5.0 (Windows NT 10.0; Win64; x64) AppleWebKit/537.36 (KHTML, like Gecko) Chrome/118.0.0.0 Safari/537.36","WebKit","Chrome","118.0.0.0","Windows","10.0","null","es-ES,es;q=0.9,en;q=0.8,pt;q=0.7","true","360","tones/440hz_short.mp3","a","","","empty_block","","sesenta y cinco","","","","2","16",""
"","","","","","html-keyboard-response","119","446079","0.0-127.0","6","1","2023-10-27 12:15:13","a725c3012b74bf33a1020a98cb69c237","181.230.217.84","Mozilla/5.0 (Windows NT 10.0; Win64; x64) AppleWebKit/537.36 (KHTML, like Gecko) Chrome/118.0.0.0 Safari/537.36","WebKit","Chrome","118.0.0.0","Windows","10.0","null","es-ES,es;q=0.9,en;q=0.8,pt;q=0.7","true","null","<div style=""font-size:100px;"">X</div>","null","","","fixation","","","","","","","",""
"","","","","","audio-keyboard-response","120","446232","0.0-128.0","6","1","2023-10-27 12:15:13","a725c3012b74bf33a1020a98cb69c237","181.230.217.84","Mozilla/5.0 (Windows NT 10.0; Win64; x64) AppleWebKit/537.36 (KHTML, like Gecko) Chrome/118.0.0.0 Safari/537.36","WebKit","Chrome","118.0.0.0","Windows","10.0","null","es-ES,es;q=0.9,en;q=0.8,pt;q=0.7","true","null","tones/880hz_short.mp3","null","","","tone_number_task","0","cincuenta y uno","tones/880hz_short.mp3","150","60","2","17",""
"","","","","","html-keyboard-response","121","447027","0.0-131.0-0.0","6","1","2023-10-27 12:15:13","a725c3012b74bf33a1020a98cb69c237","181.230.217.84","Mozilla/5.0 (Windows NT 10.0; Win64; x64) AppleWebKit/537.36 (KHTML, like Gecko) Chrome/118.0.0.0 Safari/537.36","WebKit","Chrome","118.0.0.0","Windows","10.0","null","es-ES,es;q=0.9,en;q=0.8,pt;q=0.7","true","793","tones/880hz_short.mp3","s","","","empty_block","","cincuenta y uno","","","","2","17",""
"","","","","","html-keyboard-response","122","447507","0.0-131.0-1.0","6","1","2023-10-27 12:15:13","a725c3012b74bf33a1020a98cb69c237","181.230.217.84","Mozilla/5.0 (Windows NT 10.0; Win64; x64) AppleWebKit/537.36 (KHTML, like Gecko) Chrome/118.0.0.0 Safari/537.36","WebKit","Chrome","118.0.0.0","Windows","10.0","null","es-ES,es;q=0.9,en;q=0.8,pt;q=0.7","true","478","tones/880hz_short.mp3","j","","","empty_block","","cincuenta y uno","","","","2","17",""
"","","","","","html-keyboard-response","123","450494","0.0-133.0","6","1","2023-10-27 12:15:13","a725c3012b74bf33a1020a98cb69c237","181.230.217.84","Mozilla/5.0 (Windows NT 10.0; Win64; x64) AppleWebKit/537.36 (KHTML, like Gecko) Chrome/118.0.0.0 Safari/537.36","WebKit","Chrome","118.0.0.0","Windows","10.0","null","es-ES,es;q=0.9,en;q=0.8,pt;q=0.7","true","null","<div style=""font-size:100px;"">X</div>","null","","","fixation","","","","","","","",""
"","","","","","audio-keyboard-response","124","451396","0.0-134.0","6","1","2023-10-27 12:15:13","a725c3012b74bf33a1020a98cb69c237","181.230.217.84","Mozilla/5.0 (Windows NT 10.0; Win64; x64) AppleWebKit/537.36 (KHTML, like Gecko) Chrome/118.0.0.0 Safari/537.36","WebKit","Chrome","118.0.0.0","Windows","10.0","null","es-ES,es;q=0.9,en;q=0.8,pt;q=0.7","true","899","tones/440hz_short.mp3","a","","","tone_number_task","1025","cincuenta y uno","tones/440hz_short.mp3","1175","60","2","18",""
"","","","","","html-keyboard-response","125","451526","0.0-135.0-0.0","6","1","2023-10-27 12:15:13","a725c3012b74bf33a1020a98cb69c237","181.230.217.84","Mozilla/5.0 (Windows NT 10.0; Win64; x64) AppleWebKit/537.36 (KHTML, like Gecko) Chrome/118.0.0.0 Safari/537.36","WebKit","Chrome","118.0.0.0","Windows","10.0","null","es-ES,es;q=0.9,en;q=0.8,pt;q=0.7","true","null","","null","","","delay_block","","","","","","2","18",""
"","","","","","html-keyboard-response","126","451680","0.0-135.0-1.0","6","1","2023-10-27 12:15:13","a725c3012b74bf33a1020a98cb69c237","181.230.217.84","Mozilla/5.0 (Windows NT 10.0; Win64; x64) AppleWebKit/537.36 (KHTML, like Gecko) Chrome/118.0.0.0 Safari/537.36","WebKit","Chrome","118.0.0.0","Windows","10.0","null","es-ES,es;q=0.9,en;q=0.8,pt;q=0.7","true","null","<p id=""stimulus"" style=""font-size:60px;"">cincuenta y uno</p>","null","","","tone_number_task_remaining_before_delay","","cincuenta y uno","","276","60","2","18",""
"","","","","","html-keyboard-response","127","451860","0.0-138.0-0.0","6","1","2023-10-27 12:15:13","a725c3012b74bf33a1020a98cb69c237","181.230.217.84","Mozilla/5.0 (Windows NT 10.0; Win64; x64) AppleWebKit/537.36 (KHTML, like Gecko) Chrome/118.0.0.0 Safari/537.36","WebKit","Chrome","118.0.0.0","Windows","10.0","null","es-ES,es;q=0.9,en;q=0.8,pt;q=0.7","true","178","<p id=""stimulus"" style=""font-size:60px;"">cincuenta y uno</p>","k","","","empty_block","","cincuenta y uno","","","","2","18",""
"","","","","","html-keyboard-response","128","454847","0.0-139.0","6","1","2023-10-27 12:15:13","a725c3012b74bf33a1020a98cb69c237","181.230.217.84","Mozilla/5.0 (Windows NT 10.0; Win64; x64) AppleWebKit/537.36 (KHTML, like Gecko) Chrome/118.0.0.0 Safari/537.36","WebKit","Chrome","118.0.0.0","Windows","10.0","null","es-ES,es;q=0.9,en;q=0.8,pt;q=0.7","true","null","<div style=""font-size:100px;"">X</div>","null","","","fixation","","","","","","","",""
"","","","","","audio-keyboard-response","129","455836","0.0-140.0","6","1","2023-10-27 12:15:13","a725c3012b74bf33a1020a98cb69c237","181.230.217.84","Mozilla/5.0 (Windows NT 10.0; Win64; x64) AppleWebKit/537.36 (KHTML, like Gecko) Chrome/118.0.0.0 Safari/537.36","WebKit","Chrome","118.0.0.0","Windows","10.0","null","es-ES,es;q=0.9,en;q=0.8,pt;q=0.7","true","989","tones/880hz_short.mp3","s","","","tone_number_task","992.5","sesenta y cinco","tones/880hz_short.mp3","1142.5","60","2","19",""
"","","","","","html-keyboard-response","130","455842","0.0-141.0-0.0","6","1","2023-10-27 12:15:13","a725c3012b74bf33a1020a98cb69c237","181.230.217.84","Mozilla/5.0 (Windows NT 10.0; Win64; x64) AppleWebKit/537.36 (KHTML, like Gecko) Chrome/118.0.0.0 Safari/537.36","WebKit","Chrome","118.0.0.0","Windows","10.0","null","es-ES,es;q=0.9,en;q=0.8,pt;q=0.7","true","null","","null","","","delay_block","","","","","","2","19",""
"","","","","","html-keyboard-response","131","455996","0.0-141.0-1.0","6","1","2023-10-27 12:15:13","a725c3012b74bf33a1020a98cb69c237","181.230.217.84","Mozilla/5.0 (Windows NT 10.0; Win64; x64) AppleWebKit/537.36 (KHTML, like Gecko) Chrome/118.0.0.0 Safari/537.36","WebKit","Chrome","118.0.0.0","Windows","10.0","null","es-ES,es;q=0.9,en;q=0.8,pt;q=0.7","true","null","<p id=""stimulus"" style=""font-size:60px;"">sesenta y cinco</p>","null","","","tone_number_task_remaining_before_delay","","sesenta y cinco","","153.5","60","2","19",""
"","","","","","html-keyboard-response","132","456653","0.0-144.0-0.0","6","1","2023-10-27 12:15:13","a725c3012b74bf33a1020a98cb69c237","181.230.217.84","Mozilla/5.0 (Windows NT 10.0; Win64; x64) AppleWebKit/537.36 (KHTML, like Gecko) Chrome/118.0.0.0 Safari/537.36","WebKit","Chrome","118.0.0.0","Windows","10.0","null","es-ES,es;q=0.9,en;q=0.8,pt;q=0.7","true","654","<p id=""stimulus"" style=""font-size:60px;"">sesenta y cinco</p>","k","","","empty_block","","sesenta y cinco","","","","2","19",""
"","","","","","html-keyboard-response","133","459639","0.0-145.0","6","1","2023-10-27 12:15:13","a725c3012b74bf33a1020a98cb69c237","181.230.217.84","Mozilla/5.0 (Windows NT 10.0; Win64; x64) AppleWebKit/537.36 (KHTML, like Gecko) Chrome/118.0.0.0 Safari/537.36","WebKit","Chrome","118.0.0.0","Windows","10.0","null","es-ES,es;q=0.9,en;q=0.8,pt;q=0.7","true","null","<div style=""font-size:100px;"">X</div>","null","","","fixation","","","","","","","",""
"","","","","","audio-keyboard-response","134","460785","0.0-146.0","6","1","2023-10-27 12:15:13","a725c3012b74bf33a1020a98cb69c237","181.230.217.84","Mozilla/5.0 (Windows NT 10.0; Win64; x64) AppleWebKit/537.36 (KHTML, like Gecko) Chrome/118.0.0.0 Safari/537.36","WebKit","Chrome","118.0.0.0","Windows","10.0","null","es-ES,es;q=0.9,en;q=0.8,pt;q=0.7","true","null","tones/440hz_short.mp3","null","","","tone_number_task","992.5","treinta y nueve","tones/440hz_short.mp3","1142.5","60","2","20",""
"","","","","","html-keyboard-response","135","460853","0.0-149.0-0.0","6","1","2023-10-27 12:15:13","a725c3012b74bf33a1020a98cb69c237","181.230.217.84","Mozilla/5.0 (Windows NT 10.0; Win64; x64) AppleWebKit/537.36 (KHTML, like Gecko) Chrome/118.0.0.0 Safari/537.36","WebKit","Chrome","118.0.0.0","Windows","10.0","null","es-ES,es;q=0.9,en;q=0.8,pt;q=0.7","true","65","tones/440hz_short.mp3","a","","","empty_block","","treinta y nueve","","","","2","20",""
"","","","","","html-keyboard-response","136","461597","0.0-149.0-1.0","6","1","2023-10-27 12:15:13","a725c3012b74bf33a1020a98cb69c237","181.230.217.84","Mozilla/5.0 (Windows NT 10.0; Win64; x64) AppleWebKit/537.36 (KHTML, like Gecko) Chrome/118.0.0.0 Safari/537.36","WebKit","Chrome","118.0.0.0","Windows","10.0","null","es-ES,es;q=0.9,en;q=0.8,pt;q=0.7","true","741","tones/440hz_short.mp3","j","","","empty_block","","treinta y nueve","","","","2","20",""
"","","","","","html-keyboard-response","137","464584","0.0-151.0","6","1","2023-10-27 12:15:13","a725c3012b74bf33a1020a98cb69c237","181.230.217.84","Mozilla/5.0 (Windows NT 10.0; Win64; x64) AppleWebKit/537.36 (KHTML, like Gecko) Chrome/118.0.0.0 Safari/537.36","WebKit","Chrome","118.0.0.0","Windows","10.0","null","es-ES,es;q=0.9,en;q=0.8,pt;q=0.7","true","null","<div style=""font-size:100px;"">X</div>","null","","","fixation","","","","","","","",""
"","","","","","audio-keyboard-response","138","464840","0.0-152.0","6","1","2023-10-27 12:15:13","a725c3012b74bf33a1020a98cb69c237","181.230.217.84","Mozilla/5.0 (Windows NT 10.0; Win64; x64) AppleWebKit/537.36 (KHTML, like Gecko) Chrome/118.0.0.0 Safari/537.36","WebKit","Chrome","118.0.0.0","Windows","10.0","null","es-ES,es;q=0.9,en;q=0.8,pt;q=0.7","true","null","tones/440hz_short.mp3","null","","","tone_number_task","102.5","cincuenta y seis","tones/440hz_short.mp3","252.5","60","2","21",""
"","","","","","html-keyboard-response","139","466044","0.0-155.0-0.0","6","1","2023-10-27 12:15:13","a725c3012b74bf33a1020a98cb69c237","181.230.217.84","Mozilla/5.0 (Windows NT 10.0; Win64; x64) AppleWebKit/537.36 (KHTML, like Gecko) Chrome/118.0.0.0 Safari/537.36","WebKit","Chrome","118.0.0.0","Windows","10.0","null","es-ES,es;q=0.9,en;q=0.8,pt;q=0.7","true","null","tones/440hz_short.mp3","null","","","empty_block","","cincuenta y seis","","","","2","21",""
"","","","","","html-keyboard-response","140","467249","0.0-155.0-1.0","6","1","2023-10-27 12:15:13","a725c3012b74bf33a1020a98cb69c237","181.230.217.84","Mozilla/5.0 (Windows NT 10.0; Win64; x64) AppleWebKit/537.36 (KHTML, like Gecko) Chrome/118.0.0.0 Safari/537.36","WebKit","Chrome","118.0.0.0","Windows","10.0","null","es-ES,es;q=0.9,en;q=0.8,pt;q=0.7","true","null","tones/440hz_short.mp3","null","","","empty_block","","cincuenta y seis","","","","2","21",""
"","","","","","html-keyboard-response","141","470237","0.0-157.0","6","1","2023-10-27 12:15:13","a725c3012b74bf33a1020a98cb69c237","181.230.217.84","Mozilla/5.0 (Windows NT 10.0; Win64; x64) AppleWebKit/537.36 (KHTML, like Gecko) Chrome/118.0.0.0 Safari/537.36","WebKit","Chrome","118.0.0.0","Windows","10.0","null","es-ES,es;q=0.9,en;q=0.8,pt;q=0.7","true","null","<div style=""font-size:100px;"">X</div>","null","","","fixation","","","","","","","",""
"","","","","","audio-keyboard-response","142","470492","0.0-158.0","6","1","2023-10-27 12:15:13","a725c3012b74bf33a1020a98cb69c237","181.230.217.84","Mozilla/5.0 (Windows NT 10.0; Win64; x64) AppleWebKit/537.36 (KHTML, like Gecko) Chrome/118.0.0.0 Safari/537.36","WebKit","Chrome","118.0.0.0","Windows","10.0","null","es-ES,es;q=0.9,en;q=0.8,pt;q=0.7","true","null","tones/440hz_short.mp3","null","","","tone_number_task","102.5","veintinueve","tones/440hz_short.mp3","252.5","60","2","22",""
"","","","","","html-keyboard-response","143","470886","0.0-161.0-0.0","6","1","2023-10-27 12:15:13","a725c3012b74bf33a1020a98cb69c237","181.230.217.84","Mozilla/5.0 (Windows NT 10.0; Win64; x64) AppleWebKit/537.36 (KHTML, like Gecko) Chrome/118.0.0.0 Safari/537.36","WebKit","Chrome","118.0.0.0","Windows","10.0","null","es-ES,es;q=0.9,en;q=0.8,pt;q=0.7","true","391","tones/440hz_short.mp3","s","","","empty_block","","veintinueve","","","","2","22",""
"","","","","","html-keyboard-response","144","471142","0.0-161.0-1.0","6","1","2023-10-27 12:15:13","a725c3012b74bf33a1020a98cb69c237","181.230.217.84","Mozilla/5.0 (Windows NT 10.0; Win64; x64) AppleWebKit/537.36 (KHTML, like Gecko) Chrome/118.0.0.0 Safari/537.36","WebKit","Chrome","118.0.0.0","Windows","10.0","null","es-ES,es;q=0.9,en;q=0.8,pt;q=0.7","true","253","tones/440hz_short.mp3","j","","","empty_block","","veintinueve","","","","2","22",""
"","","","","","html-keyboard-response","145","474129","0.0-163.0","6","1","2023-10-27 12:15:13","a725c3012b74bf33a1020a98cb69c237","181.230.217.84","Mozilla/5.0 (Windows NT 10.0; Win64; x64) AppleWebKit/537.36 (KHTML, like Gecko) Chrome/118.0.0.0 Safari/537.36","WebKit","Chrome","118.0.0.0","Windows","10.0","null","es-ES,es;q=0.9,en;q=0.8,pt;q=0.7","true","null","<div style=""font-size:100px;"">X</div>","null","","","fixation","","","","","","","",""
"","","","","","audio-keyboard-response","146","475079","0.0-164.0","6","1","2023-10-27 12:15:13","a725c3012b74bf33a1020a98cb69c237","181.230.217.84","Mozilla/5.0 (Windows NT 10.0; Win64; x64) AppleWebKit/537.36 (KHTML, like Gecko) Chrome/118.0.0.0 Safari/537.36","WebKit","Chrome","118.0.0.0","Windows","10.0","null","es-ES,es;q=0.9,en;q=0.8,pt;q=0.7","true","949","tones/440hz_short.mp3","a","","","tone_number_task","992.5","sesenta y seis","tones/440hz_short.mp3","1142.5","60","2","23",""
"","","","","","html-keyboard-response","147","475125","0.0-165.0-0.0","6","1","2023-10-27 12:15:13","a725c3012b74bf33a1020a98cb69c237","181.230.217.84","Mozilla/5.0 (Windows NT 10.0; Win64; x64) AppleWebKit/537.36 (KHTML, like Gecko) Chrome/118.0.0.0 Safari/537.36","WebKit","Chrome","118.0.0.0","Windows","10.0","null","es-ES,es;q=0.9,en;q=0.8,pt;q=0.7","true","null","","null","","","delay_block","","","","","","2","23",""
"","","","","","html-keyboard-response","148","475278","0.0-165.0-1.0","6","1","2023-10-27 12:15:13","a725c3012b74bf33a1020a98cb69c237","181.230.217.84","Mozilla/5.0 (Windows NT 10.0; Win64; x64) AppleWebKit/537.36 (KHTML, like Gecko) Chrome/118.0.0.0 Safari/537.36","WebKit","Chrome","118.0.0.0","Windows","10.0","null","es-ES,es;q=0.9,en;q=0.8,pt;q=0.7","true","null","<p id=""stimulus"" style=""font-size:60px;"">sesenta y seis</p>","null","","","tone_number_task_remaining_before_delay","","sesenta y seis","","193.5","60","2","23",""
"","","","","","html-keyboard-response","149","476191","0.0-168.0-0.0","6","1","2023-10-27 12:15:13","a725c3012b74bf33a1020a98cb69c237","181.230.217.84","Mozilla/5.0 (Windows NT 10.0; Win64; x64) AppleWebKit/537.36 (KHTML, like Gecko) Chrome/118.0.0.0 Safari/537.36","WebKit","Chrome","118.0.0.0","Windows","10.0","null","es-ES,es;q=0.9,en;q=0.8,pt;q=0.7","true","910","<p id=""stimulus"" style=""font-size:60px;"">sesenta y seis</p>","k","","","empty_block","","sesenta y seis","","","","2","23",""
"","","","","","html-keyboard-response","150","479178","0.0-169.0","6","1","2023-10-27 12:15:13","a725c3012b74bf33a1020a98cb69c237","181.230.217.84","Mozilla/5.0 (Windows NT 10.0; Win64; x64) AppleWebKit/537.36 (KHTML, like Gecko) Chrome/118.0.0.0 Safari/537.36","WebKit","Chrome","118.0.0.0","Windows","10.0","null","es-ES,es;q=0.9,en;q=0.8,pt;q=0.7","true","null","<div style=""font-size:100px;"">X</div>","null","","","fixation","","","","","","","",""
"","","","","","audio-keyboard-response","151","480357","0.0-170.0","6","1","2023-10-27 12:15:13","a725c3012b74bf33a1020a98cb69c237","181.230.217.84","Mozilla/5.0 (Windows NT 10.0; Win64; x64) AppleWebKit/537.36 (KHTML, like Gecko) Chrome/118.0.0.0 Safari/537.36","WebKit","Chrome","118.0.0.0","Windows","10.0","null","es-ES,es;q=0.9,en;q=0.8,pt;q=0.7","true","null","tones/880hz_short.mp3","null","","","tone_number_task","1025","sesenta y cinco","tones/880hz_short.mp3","1175","60","2","24",""
"","","","","","html-keyboard-response","152","480664","0.0-173.0-0.0","6","1","2023-10-27 12:15:13","a725c3012b74bf33a1020a98cb69c237","181.230.217.84","Mozilla/5.0 (Windows NT 10.0; Win64; x64) AppleWebKit/537.36 (KHTML, like Gecko) Chrome/118.0.0.0 Safari/537.36","WebKit","Chrome","118.0.0.0","Windows","10.0","null","es-ES,es;q=0.9,en;q=0.8,pt;q=0.7","true","304","tones/880hz_short.mp3","s","","","empty_block","","sesenta y cinco","","","","2","24",""
"","","","","","html-keyboard-response","153","481424","0.0-173.0-1.0","6","1","2023-10-27 12:15:13","a725c3012b74bf33a1020a98cb69c237","181.230.217.84","Mozilla/5.0 (Windows NT 10.0; Win64; x64) AppleWebKit/537.36 (KHTML, like Gecko) Chrome/118.0.0.0 Safari/537.36","WebKit","Chrome","118.0.0.0","Windows","10.0","null","es-ES,es;q=0.9,en;q=0.8,pt;q=0.7","true","756","tones/880hz_short.mp3","k","","","empty_block","","sesenta y cinco","","","","2","24",""
"","","","","","html-keyboard-response","154","484411","0.0-175.0","6","1","2023-10-27 12:15:13","a725c3012b74bf33a1020a98cb69c237","181.230.217.84","Mozilla/5.0 (Windows NT 10.0; Win64; x64) AppleWebKit/537.36 (KHTML, like Gecko) Chrome/118.0.0.0 Safari/537.36","WebKit","Chrome","118.0.0.0","Windows","10.0","null","es-ES,es;q=0.9,en;q=0.8,pt;q=0.7","true","null","<div style=""font-size:100px;"">X</div>","null","","","fixation","","","","","","","",""
"","","","","","audio-keyboard-response","155","485336","0.0-176.0","6","1","2023-10-27 12:15:13","a725c3012b74bf33a1020a98cb69c237","181.230.217.84","Mozilla/5.0 (Windows NT 10.0; Win64; x64) AppleWebKit/537.36 (KHTML, like Gecko) Chrome/118.0.0.0 Safari/537.36","WebKit","Chrome","118.0.0.0","Windows","10.0","null","es-ES,es;q=0.9,en;q=0.8,pt;q=0.7","true","920","tones/880hz_short.mp3","s","","","tone_number_task","1025","sesenta y dos","tones/880hz_short.mp3","1175","60","2","25",""
"","","","","","html-keyboard-response","156","485445","0.0-177.0-0.0","6","1","2023-10-27 12:15:13","a725c3012b74bf33a1020a98cb69c237","181.230.217.84","Mozilla/5.0 (Windows NT 10.0; Win64; x64) AppleWebKit/537.36 (KHTML, like Gecko) Chrome/118.0.0.0 Safari/537.36","WebKit","Chrome","118.0.0.0","Windows","10.0","null","es-ES,es;q=0.9,en;q=0.8,pt;q=0.7","true","null","","null","","","delay_block","","","","","","2","25",""
"","","","","","html-keyboard-response","157","485598","0.0-177.0-1.0","6","1","2023-10-27 12:15:13","a725c3012b74bf33a1020a98cb69c237","181.230.217.84","Mozilla/5.0 (Windows NT 10.0; Win64; x64) AppleWebKit/537.36 (KHTML, like Gecko) Chrome/118.0.0.0 Safari/537.36","WebKit","Chrome","118.0.0.0","Windows","10.0","null","es-ES,es;q=0.9,en;q=0.8,pt;q=0.7","true","null","<p id=""stimulus"" style=""font-size:60px;"">sesenta y dos</p>","null","","","tone_number_task_remaining_before_delay","","sesenta y dos","","255","60","2","25",""
"","","","","","html-keyboard-response","158","486080","0.0-180.0-0.0","6","1","2023-10-27 12:15:13","a725c3012b74bf33a1020a98cb69c237","181.230.217.84","Mozilla/5.0 (Windows NT 10.0; Win64; x64) AppleWebKit/537.36 (KHTML, like Gecko) Chrome/118.0.0.0 Safari/537.36","WebKit","Chrome","118.0.0.0","Windows","10.0","null","es-ES,es;q=0.9,en;q=0.8,pt;q=0.7","true","480","<p id=""stimulus"" style=""font-size:60px;"">sesenta y dos</p>","j","","","empty_block","","sesenta y dos","","","","2","25",""
"","","","","","html-keyboard-response","159","489068","0.0-181.0","6","1","2023-10-27 12:15:13","a725c3012b74bf33a1020a98cb69c237","181.230.217.84","Mozilla/5.0 (Windows NT 10.0; Win64; x64) AppleWebKit/537.36 (KHTML, like Gecko) Chrome/118.0.0.0 Safari/537.36","WebKit","Chrome","118.0.0.0","Windows","10.0","null","es-ES,es;q=0.9,en;q=0.8,pt;q=0.7","true","null","<div style=""font-size:100px;"">X</div>","null","","","fixation","","","","","","","",""
"","","","","","audio-keyboard-response","160","490214","0.0-182.0","6","1","2023-10-27 12:15:13","a725c3012b74bf33a1020a98cb69c237","181.230.217.84","Mozilla/5.0 (Windows NT 10.0; Win64; x64) AppleWebKit/537.36 (KHTML, like Gecko) Chrome/118.0.0.0 Safari/537.36","WebKit","Chrome","118.0.0.0","Windows","10.0","null","es-ES,es;q=0.9,en;q=0.8,pt;q=0.7","true","null","tones/440hz_short.mp3","null","","","tone_number_task","992.5","sesenta y siete","tones/440hz_short.mp3","1142.5","60","2","26",""
"","","","","","html-keyboard-response","161","490344","0.0-185.0-0.0","6","1","2023-10-27 12:15:13","a725c3012b74bf33a1020a98cb69c237","181.230.217.84","Mozilla/5.0 (Windows NT 10.0; Win64; x64) AppleWebKit/537.36 (KHTML, like Gecko) Chrome/118.0.0.0 Safari/537.36","WebKit","Chrome","118.0.0.0","Windows","10.0","null","es-ES,es;q=0.9,en;q=0.8,pt;q=0.7","true","127","tones/440hz_short.mp3","a","","","empty_block","","sesenta y siete","","","","2","26",""
"","","","","","html-keyboard-response","162","490889","0.0-185.0-1.0","6","1","2023-10-27 12:15:13","a725c3012b74bf33a1020a98cb69c237","181.230.217.84","Mozilla/5.0 (Windows NT 10.0; Win64; x64) AppleWebKit/537.36 (KHTML, like Gecko) Chrome/118.0.0.0 Safari/537.36","WebKit","Chrome","118.0.0.0","Windows","10.0","null","es-ES,es;q=0.9,en;q=0.8,pt;q=0.7","true","542","tones/440hz_short.mp3","k","","","empty_block","","sesenta y siete","","","","2","26",""
"","","","","","html-keyboard-response","163","493876","0.0-187.0","6","1","2023-10-27 12:15:13","a725c3012b74bf33a1020a98cb69c237","181.230.217.84","Mozilla/5.0 (Windows NT 10.0; Win64; x64) AppleWebKit/537.36 (KHTML, like Gecko) Chrome/118.0.0.0 Safari/537.36","WebKit","Chrome","118.0.0.0","Windows","10.0","null","es-ES,es;q=0.9,en;q=0.8,pt;q=0.7","true","null","<div style=""font-size:100px;"">X</div>","null","","","fixation","","","","","","","",""
"","","","","","audio-keyboard-response","164","494865","0.0-188.0","6","1","2023-10-27 12:15:13","a725c3012b74bf33a1020a98cb69c237","181.230.217.84","Mozilla/5.0 (Windows NT 10.0; Win64; x64) AppleWebKit/537.36 (KHTML, like Gecko) Chrome/118.0.0.0 Safari/537.36","WebKit","Chrome","118.0.0.0","Windows","10.0","null","es-ES,es;q=0.9,en;q=0.8,pt;q=0.7","true","989","tones/440hz_short.mp3","a","","","tone_number_task","992.5","sesenta y tres","tones/440hz_short.mp3","1142.5","60","2","27",""
"","","","","","html-keyboard-response","165","494871","0.0-189.0-0.0","6","1","2023-10-27 12:15:13","a725c3012b74bf33a1020a98cb69c237","181.230.217.84","Mozilla/5.0 (Windows NT 10.0; Win64; x64) AppleWebKit/537.36 (KHTML, like Gecko) Chrome/118.0.0.0 Safari/537.36","WebKit","Chrome","118.0.0.0","Windows","10.0","null","es-ES,es;q=0.9,en;q=0.8,pt;q=0.7","true","null","","null","","","delay_block","","","","","","2","27",""
"","","","","","html-keyboard-response","166","495024","0.0-189.0-1.0","6","1","2023-10-27 12:15:13","a725c3012b74bf33a1020a98cb69c237","181.230.217.84","Mozilla/5.0 (Windows NT 10.0; Win64; x64) AppleWebKit/537.36 (KHTML, like Gecko) Chrome/118.0.0.0 Safari/537.36","WebKit","Chrome","118.0.0.0","Windows","10.0","null","es-ES,es;q=0.9,en;q=0.8,pt;q=0.7","true","null","<p id=""stimulus"" style=""font-size:60px;"">sesenta y tres</p>","null","","","tone_number_task_remaining_before_delay","","sesenta y tres","","153.5","60","2","27",""
"","","","","","html-keyboard-response","167","495457","0.0-192.0-0.0","6","1","2023-10-27 12:15:13","a725c3012b74bf33a1020a98cb69c237","181.230.217.84","Mozilla/5.0 (Windows NT 10.0; Win64; x64) AppleWebKit/537.36 (KHTML, like Gecko) Chrome/118.0.0.0 Safari/537.36","WebKit","Chrome","118.0.0.0","Windows","10.0","null","es-ES,es;q=0.9,en;q=0.8,pt;q=0.7","true","430","<p id=""stimulus"" style=""font-size:60px;"">sesenta y tres</p>","k","","","empty_block","","sesenta y tres","","","","2","27",""
"","","","","","html-keyboard-response","168","498445","0.0-193.0","6","1","2023-10-27 12:15:13","a725c3012b74bf33a1020a98cb69c237","181.230.217.84","Mozilla/5.0 (Windows NT 10.0; Win64; x64) AppleWebKit/537.36 (KHTML, like Gecko) Chrome/118.0.0.0 Safari/537.36","WebKit","Chrome","118.0.0.0","Windows","10.0","null","es-ES,es;q=0.9,en;q=0.8,pt;q=0.7","true","null","<div style=""font-size:100px;"">X</div>","null","","","fixation","","","","","","","",""
"","","","","","audio-keyboard-response","169","499624","0.0-194.0","6","1","2023-10-27 12:15:13","a725c3012b74bf33a1020a98cb69c237","181.230.217.84","Mozilla/5.0 (Windows NT 10.0; Win64; x64) AppleWebKit/537.36 (KHTML, like Gecko) Chrome/118.0.0.0 Safari/537.36","WebKit","Chrome","118.0.0.0","Windows","10.0","null","es-ES,es;q=0.9,en;q=0.8,pt;q=0.7","true","null","tones/440hz_short.mp3","null","","","tone_number_task","1025","treinta y cuatro","tones/440hz_short.mp3","1175","60","2","28",""
"","","","","","html-keyboard-response","170","500274","0.0-197.0-0.0","6","1","2023-10-27 12:15:13","a725c3012b74bf33a1020a98cb69c237","181.230.217.84","Mozilla/5.0 (Windows NT 10.0; Win64; x64) AppleWebKit/537.36 (KHTML, like Gecko) Chrome/118.0.0.0 Safari/537.36","WebKit","Chrome","118.0.0.0","Windows","10.0","null","es-ES,es;q=0.9,en;q=0.8,pt;q=0.7","true","647","tones/440hz_short.mp3","a","","","empty_block","","treinta y cuatro","","","","2","28",""
"","","","","","html-keyboard-response","171","500715","0.0-197.0-1.0","6","1","2023-10-27 12:15:13","a725c3012b74bf33a1020a98cb69c237","181.230.217.84","Mozilla/5.0 (Windows NT 10.0; Win64; x64) AppleWebKit/537.36 (KHTML, like Gecko) Chrome/118.0.0.0 Safari/537.36","WebKit","Chrome","118.0.0.0","Windows","10.0","null","es-ES,es;q=0.9,en;q=0.8,pt;q=0.7","true","437","tones/440hz_short.mp3","j","","","empty_block","","treinta y cuatro","","","","2","28",""
"","","","","","html-keyboard-response","172","503702","0.0-199.0","6","1","2023-10-27 12:15:13","a725c3012b74bf33a1020a98cb69c237","181.230.217.84","Mozilla/5.0 (Windows NT 10.0; Win64; x64) AppleWebKit/537.36 (KHTML, like Gecko) Chrome/118.0.0.0 Safari/537.36","WebKit","Chrome","118.0.0.0","Windows","10.0","null","es-ES,es;q=0.9,en;q=0.8,pt;q=0.7","true","null","<div style=""font-size:100px;"">X</div>","null","","","fixation","","","","","","","",""
"","","","","","audio-keyboard-response","173","504848","0.0-200.0","6","1","2023-10-27 12:15:13","a725c3012b74bf33a1020a98cb69c237","181.230.217.84","Mozilla/5.0 (Windows NT 10.0; Win64; x64) AppleWebKit/537.36 (KHTML, like Gecko) Chrome/118.0.0.0 Safari/537.36","WebKit","Chrome","118.0.0.0","Windows","10.0","null","es-ES,es;q=0.9,en;q=0.8,pt;q=0.7","true","null","tones/880hz_short.mp3","null","","","tone_number_task","992.5","cuarenta y tres","tones/880hz_short.mp3","1142.5","60","2","29",""
"","","","","","html-keyboard-response","174","505323","0.0-203.0-0.0","6","1","2023-10-27 12:15:13","a725c3012b74bf33a1020a98cb69c237","181.230.217.84","Mozilla/5.0 (Windows NT 10.0; Win64; x64) AppleWebKit/537.36 (KHTML, like Gecko) Chrome/118.0.0.0 Safari/537.36","WebKit","Chrome","118.0.0.0","Windows","10.0","null","es-ES,es;q=0.9,en;q=0.8,pt;q=0.7","true","472","tones/880hz_short.mp3","s","","","empty_block","","cuarenta y tres","","","","2","29",""
"","","","","","html-keyboard-response","175","505898","0.0-203.0-1.0","6","1","2023-10-27 12:15:13","a725c3012b74bf33a1020a98cb69c237","181.230.217.84","Mozilla/5.0 (Windows NT 10.0; Win64; x64) AppleWebKit/537.36 (KHTML, like Gecko) Chrome/118.0.0.0 Safari/537.36","WebKit","Chrome","118.0.0.0","Windows","10.0","null","es-ES,es;q=0.9,en;q=0.8,pt;q=0.7","true","572","tones/880hz_short.mp3","j","","","empty_block","","cuarenta y tres","","","","2","29",""
"","","","","","html-keyboard-response","176","508886","0.0-205.0","6","1","2023-10-27 12:15:13","a725c3012b74bf33a1020a98cb69c237","181.230.217.84","Mozilla/5.0 (Windows NT 10.0; Win64; x64) AppleWebKit/537.36 (KHTML, like Gecko) Chrome/118.0.0.0 Safari/537.36","WebKit","Chrome","118.0.0.0","Windows","10.0","null","es-ES,es;q=0.9,en;q=0.8,pt;q=0.7","true","null","<div style=""font-size:100px;"">X</div>","null","","","fixation","","","","","","","",""
"","","","","","audio-keyboard-response","177","509040","0.0-206.0","6","1","2023-10-27 12:15:13","a725c3012b74bf33a1020a98cb69c237","181.230.217.84","Mozilla/5.0 (Windows NT 10.0; Win64; x64) AppleWebKit/537.36 (KHTML, like Gecko) Chrome/118.0.0.0 Safari/537.36","WebKit","Chrome","118.0.0.0","Windows","10.0","null","es-ES,es;q=0.9,en;q=0.8,pt;q=0.7","true","null","tones/440hz_short.mp3","null","","","tone_number_task","0","treinta y ocho","tones/440hz_short.mp3","150","60","2","30",""
"","","","","","html-keyboard-response","178","510147","0.0-209.0-0.0","6","1","2023-10-27 12:15:13","a725c3012b74bf33a1020a98cb69c237","181.230.217.84","Mozilla/5.0 (Windows NT 10.0; Win64; x64) AppleWebKit/537.36 (KHTML, like Gecko) Chrome/118.0.0.0 Safari/537.36","WebKit","Chrome","118.0.0.0","Windows","10.0","null","es-ES,es;q=0.9,en;q=0.8,pt;q=0.7","true","1103","tones/440hz_short.mp3","a","","","empty_block","","treinta y ocho","","","","2","30",""
"","","","","","html-keyboard-response","179","510427","0.0-209.0-1.0","6","1","2023-10-27 12:15:13","a725c3012b74bf33a1020a98cb69c237","181.230.217.84","Mozilla/5.0 (Windows NT 10.0; Win64; x64) AppleWebKit/537.36 (KHTML, like Gecko) Chrome/118.0.0.0 Safari/537.36","WebKit","Chrome","118.0.0.0","Windows","10.0","null","es-ES,es;q=0.9,en;q=0.8,pt;q=0.7","true","277","tones/440hz_short.mp3","j","","","empty_block","","treinta y ocho","","","","2","30",""
"","","","","","html-keyboard-response","180","513415","0.0-211.0","6","1","2023-10-27 12:15:13","a725c3012b74bf33a1020a98cb69c237","181.230.217.84","Mozilla/5.0 (Windows NT 10.0; Win64; x64) AppleWebKit/537.36 (KHTML, like Gecko) Chrome/118.0.0.0 Safari/537.36","WebKit","Chrome","118.0.0.0","Windows","10.0","null","es-ES,es;q=0.9,en;q=0.8,pt;q=0.7","true","null","<div style=""font-size:100px;"">X</div>","null","","","fixation","","","","","","","",""
"","","","","","audio-keyboard-response","181","514411","0.0-212.0","6","1","2023-10-27 12:15:13","a725c3012b74bf33a1020a98cb69c237","181.230.217.84","Mozilla/5.0 (Windows NT 10.0; Win64; x64) AppleWebKit/537.36 (KHTML, like Gecko) Chrome/118.0.0.0 Safari/537.36","WebKit","Chrome","118.0.0.0","Windows","10.0","null","es-ES,es;q=0.9,en;q=0.8,pt;q=0.7","true","989","tones/440hz_short.mp3","a","","","tone_number_task","1025","cincuenta y cuatro","tones/440hz_short.mp3","1175","60","2","31",""
"","","","","","html-keyboard-response","182","514451","0.0-213.0-0.0","6","1","2023-10-27 12:15:13","a725c3012b74bf33a1020a98cb69c237","181.230.217.84","Mozilla/5.0 (Windows NT 10.0; Win64; x64) AppleWebKit/537.36 (KHTML, like Gecko) Chrome/118.0.0.0 Safari/537.36","WebKit","Chrome","118.0.0.0","Windows","10.0","null","es-ES,es;q=0.9,en;q=0.8,pt;q=0.7","true","null","","null","","","delay_block","","","","","","2","31",""
"","","","","","html-keyboard-response","183","514605","0.0-213.0-1.0","6","1","2023-10-27 12:15:13","a725c3012b74bf33a1020a98cb69c237","181.230.217.84","Mozilla/5.0 (Windows NT 10.0; Win64; x64) AppleWebKit/537.36 (KHTML, like Gecko) Chrome/118.0.0.0 Safari/537.36","WebKit","Chrome","118.0.0.0","Windows","10.0","null","es-ES,es;q=0.9,en;q=0.8,pt;q=0.7","true","null","<p id=""stimulus"" style=""font-size:60px;"">cincuenta y cuatro</p>","null","","","tone_number_task_remaining_before_delay","","cincuenta y cuatro","","186","60","2","31",""
"","","","","","html-keyboard-response","184","515796","0.0-216.0-0.0","6","1","2023-10-27 12:15:13","a725c3012b74bf33a1020a98cb69c237","181.230.217.84","Mozilla/5.0 (Windows NT 10.0; Win64; x64) AppleWebKit/537.36 (KHTML, like Gecko) Chrome/118.0.0.0 Safari/537.36","WebKit","Chrome","118.0.0.0","Windows","10.0","null","es-ES,es;q=0.9,en;q=0.8,pt;q=0.7","true","1188","<p id=""stimulus"" style=""font-size:60px;"">cincuenta y cuatro</p>","k","","","empty_block","","cincuenta y cuatro","","","","2","31",""
"","","","","","html-keyboard-response","185","518783","0.0-217.0","6","1","2023-10-27 12:15:13","a725c3012b74bf33a1020a98cb69c237","181.230.217.84","Mozilla/5.0 (Windows NT 10.0; Win64; x64) AppleWebKit/537.36 (KHTML, like Gecko) Chrome/118.0.0.0 Safari/537.36","WebKit","Chrome","118.0.0.0","Windows","10.0","null","es-ES,es;q=0.9,en;q=0.8,pt;q=0.7","true","null","<div style=""font-size:100px;"">X</div>","null","","","fixation","","","","","","","",""
"","","","","","audio-keyboard-response","186","519716","0.0-218.0","6","1","2023-10-27 12:15:13","a725c3012b74bf33a1020a98cb69c237","181.230.217.84","Mozilla/5.0 (Windows NT 10.0; Win64; x64) AppleWebKit/537.36 (KHTML, like Gecko) Chrome/118.0.0.0 Safari/537.36","WebKit","Chrome","118.0.0.0","Windows","10.0","null","es-ES,es;q=0.9,en;q=0.8,pt;q=0.7","true","931","tones/440hz_short.mp3","a","","","tone_number_task","1025","veintisiete","tones/440hz_short.mp3","1175","60","2","32",""
"","","","","","html-keyboard-response","187","519814","0.0-219.0-0.0","6","1","2023-10-27 12:15:13","a725c3012b74bf33a1020a98cb69c237","181.230.217.84","Mozilla/5.0 (Windows NT 10.0; Win64; x64) AppleWebKit/537.36 (KHTML, like Gecko) Chrome/118.0.0.0 Safari/537.36","WebKit","Chrome","118.0.0.0","Windows","10.0","null","es-ES,es;q=0.9,en;q=0.8,pt;q=0.7","true","null","","null","","","delay_block","","","","","","2","32",""
"","","","","","html-keyboard-response","188","519968","0.0-219.0-1.0","6","1","2023-10-27 12:15:13","a725c3012b74bf33a1020a98cb69c237","181.230.217.84","Mozilla/5.0 (Windows NT 10.0; Win64; x64) AppleWebKit/537.36 (KHTML, like Gecko) Chrome/118.0.0.0 Safari/537.36","WebKit","Chrome","118.0.0.0","Windows","10.0","null","es-ES,es;q=0.9,en;q=0.8,pt;q=0.7","true","null","<p id=""stimulus"" style=""font-size:60px;"">veintisiete</p>","null","","","tone_number_task_remaining_before_delay","","veintisiete","","244","60","2","32",""
"","","","","","html-keyboard-response","189","520548","0.0-222.0-0.0","6","1","2023-10-27 12:15:13","a725c3012b74bf33a1020a98cb69c237","181.230.217.84","Mozilla/5.0 (Windows NT 10.0; Win64; x64) AppleWebKit/537.36 (KHTML, like Gecko) Chrome/118.0.0.0 Safari/537.36","WebKit","Chrome","118.0.0.0","Windows","10.0","null","es-ES,es;q=0.9,en;q=0.8,pt;q=0.7","true","577","<p id=""stimulus"" style=""font-size:60px;"">veintisiete</p>","j","","","empty_block","","veintisiete","","","","2","32",""
"","","","","","html-keyboard-response","190","523536","0.0-223.0","6","1","2023-10-27 12:15:13","a725c3012b74bf33a1020a98cb69c237","181.230.217.84","Mozilla/5.0 (Windows NT 10.0; Win64; x64) AppleWebKit/537.36 (KHTML, like Gecko) Chrome/118.0.0.0 Safari/537.36","WebKit","Chrome","118.0.0.0","Windows","10.0","null","es-ES,es;q=0.9,en;q=0.8,pt;q=0.7","true","null","<div style=""font-size:100px;"">X</div>","null","","","fixation","","","","","","","",""
"","","","","","audio-keyboard-response","191","524165","0.0-224.0","6","1","2023-10-27 12:15:13","a725c3012b74bf33a1020a98cb69c237","181.230.217.84","Mozilla/5.0 (Windows NT 10.0; Win64; x64) AppleWebKit/537.36 (KHTML, like Gecko) Chrome/118.0.0.0 Safari/537.36","WebKit","Chrome","118.0.0.0","Windows","10.0","null","es-ES,es;q=0.9,en;q=0.8,pt;q=0.7","true","629","tones/440hz_short.mp3","a","","","tone_number_task","992.5","veintiuno","tones/440hz_short.mp3","1142.5","60","2","33",""
"","","","","","html-keyboard-response","192","524532","0.0-225.0-0.0","6","1","2023-10-27 12:15:13","a725c3012b74bf33a1020a98cb69c237","181.230.217.84","Mozilla/5.0 (Windows NT 10.0; Win64; x64) AppleWebKit/537.36 (KHTML, like Gecko) Chrome/118.0.0.0 Safari/537.36","WebKit","Chrome","118.0.0.0","Windows","10.0","null","es-ES,es;q=0.9,en;q=0.8,pt;q=0.7","true","null","","null","","","delay_block","","","","","","2","33",""
"","","","","","html-keyboard-response","193","524686","0.0-225.0-1.0","6","1","2023-10-27 12:15:13","a725c3012b74bf33a1020a98cb69c237","181.230.217.84","Mozilla/5.0 (Windows NT 10.0; Win64; x64) AppleWebKit/537.36 (KHTML, like Gecko) Chrome/118.0.0.0 Safari/537.36","WebKit","Chrome","118.0.0.0","Windows","10.0","null","es-ES,es;q=0.9,en;q=0.8,pt;q=0.7","true","null","<p id=""stimulus"" style=""font-size:60px;"">veintiuno</p>","null","","","tone_number_task_remaining_before_delay","","veintiuno","","513.5","60","2","33",""
"","","","","","html-keyboard-response","194","525101","0.0-228.0-0.0","6","1","2023-10-27 12:15:13","a725c3012b74bf33a1020a98cb69c237","181.230.217.84","Mozilla/5.0 (Windows NT 10.0; Win64; x64) AppleWebKit/537.36 (KHTML, like Gecko) Chrome/118.0.0.0 Safari/537.36","WebKit","Chrome","118.0.0.0","Windows","10.0","null","es-ES,es;q=0.9,en;q=0.8,pt;q=0.7","true","412","<p id=""stimulus"" style=""font-size:60px;"">veintiuno</p>","j","","","empty_block","","veintiuno","","","","2","33",""
"","","","","","html-keyboard-response","195","528088","0.0-229.0","6","1","2023-10-27 12:15:13","a725c3012b74bf33a1020a98cb69c237","181.230.217.84","Mozilla/5.0 (Windows NT 10.0; Win64; x64) AppleWebKit/537.36 (KHTML, like Gecko) Chrome/118.0.0.0 Safari/537.36","WebKit","Chrome","118.0.0.0","Windows","10.0","null","es-ES,es;q=0.9,en;q=0.8,pt;q=0.7","true","null","<div style=""font-size:100px;"">X</div>","null","","","fixation","","","","","","","",""
"","","","","","audio-keyboard-response","196","528242","0.0-230.0","6","1","2023-10-27 12:15:13","a725c3012b74bf33a1020a98cb69c237","181.230.217.84","Mozilla/5.0 (Windows NT 10.0; Win64; x64) AppleWebKit/537.36 (KHTML, like Gecko) Chrome/118.0.0.0 Safari/537.36","WebKit","Chrome","118.0.0.0","Windows","10.0","null","es-ES,es;q=0.9,en;q=0.8,pt;q=0.7","true","null","tones/440hz_short.mp3","null","","","tone_number_task","0","cincuenta y cinco","tones/440hz_short.mp3","150","60","2","34",""
"","","","","","html-keyboard-response","197","528597","0.0-233.0-0.0","6","1","2023-10-27 12:15:13","a725c3012b74bf33a1020a98cb69c237","181.230.217.84","Mozilla/5.0 (Windows NT 10.0; Win64; x64) AppleWebKit/537.36 (KHTML, like Gecko) Chrome/118.0.0.0 Safari/537.36","WebKit","Chrome","118.0.0.0","Windows","10.0","null","es-ES,es;q=0.9,en;q=0.8,pt;q=0.7","true","352","tones/440hz_short.mp3","a","","","empty_block","","cincuenta y cinco","","","","2","34",""
"","","","","","html-keyboard-response","198","529309","0.0-233.0-1.0","6","1","2023-10-27 12:15:13","a725c3012b74bf33a1020a98cb69c237","181.230.217.84","Mozilla/5.0 (Windows NT 10.0; Win64; x64) AppleWebKit/537.36 (KHTML, like Gecko) Chrome/118.0.0.0 Safari/537.36","WebKit","Chrome","118.0.0.0","Windows","10.0","null","es-ES,es;q=0.9,en;q=0.8,pt;q=0.7","true","709","tones/440hz_short.mp3","j","","","empty_block","","cincuenta y cinco","","","","2","34",""
"","","","","","html-keyboard-response","199","532296","0.0-235.0","6","1","2023-10-27 12:15:13","a725c3012b74bf33a1020a98cb69c237","181.230.217.84","Mozilla/5.0 (Windows NT 10.0; Win64; x64) AppleWebKit/537.36 (KHTML, like Gecko) Chrome/118.0.0.0 Safari/537.36","WebKit","Chrome","118.0.0.0","Windows","10.0","null","es-ES,es;q=0.9,en;q=0.8,pt;q=0.7","true","null","<div style=""font-size:100px;"">X</div>","null","","","fixation","","","","","","","",""
"","","","","","audio-keyboard-response","200","532552","0.0-236.0","6","1","2023-10-27 12:15:13","a725c3012b74bf33a1020a98cb69c237","181.230.217.84","Mozilla/5.0 (Windows NT 10.0; Win64; x64) AppleWebKit/537.36 (KHTML, like Gecko) Chrome/118.0.0.0 Safari/537.36","WebKit","Chrome","118.0.0.0","Windows","10.0","null","es-ES,es;q=0.9,en;q=0.8,pt;q=0.7","true","null","tones/880hz_short.mp3","null","","","tone_number_task","102.5","sesenta","tones/880hz_short.mp3","252.5","60","2","35",""
"","","","","","html-keyboard-response","201","533646","0.0-239.0-0.0","6","1","2023-10-27 12:15:13","a725c3012b74bf33a1020a98cb69c237","181.230.217.84","Mozilla/5.0 (Windows NT 10.0; Win64; x64) AppleWebKit/537.36 (KHTML, like Gecko) Chrome/118.0.0.0 Safari/537.36","WebKit","Chrome","118.0.0.0","Windows","10.0","null","es-ES,es;q=0.9,en;q=0.8,pt;q=0.7","true","1091","tones/880hz_short.mp3","s","","","empty_block","","sesenta","","","","2","35",""
"","","","","","html-keyboard-response","202","534062","0.0-239.0-1.0","6","1","2023-10-27 12:15:13","a725c3012b74bf33a1020a98cb69c237","181.230.217.84","Mozilla/5.0 (Windows NT 10.0; Win64; x64) AppleWebKit/537.36 (KHTML, like Gecko) Chrome/118.0.0.0 Safari/537.36","WebKit","Chrome","118.0.0.0","Windows","10.0","null","es-ES,es;q=0.9,en;q=0.8,pt;q=0.7","true","414","tones/880hz_short.mp3","k","","","empty_block","","sesenta","","","","2","35",""
"","","","","","html-keyboard-response","203","537050","0.0-241.0","6","1","2023-10-27 12:15:13","a725c3012b74bf33a1020a98cb69c237","181.230.217.84","Mozilla/5.0 (Windows NT 10.0; Win64; x64) AppleWebKit/537.36 (KHTML, like Gecko) Chrome/118.0.0.0 Safari/537.36","WebKit","Chrome","118.0.0.0","Windows","10.0","null","es-ES,es;q=0.9,en;q=0.8,pt;q=0.7","true","null","<div style=""font-size:100px;"">X</div>","null","","","fixation","","","","","","","",""
"","","","","","audio-keyboard-response","204","538070","0.0-242.0","6","1","2023-10-27 12:15:13","a725c3012b74bf33a1020a98cb69c237","181.230.217.84","Mozilla/5.0 (Windows NT 10.0; Win64; x64) AppleWebKit/537.36 (KHTML, like Gecko) Chrome/118.0.0.0 Safari/537.36","WebKit","Chrome","118.0.0.0","Windows","10.0","null","es-ES,es;q=0.9,en;q=0.8,pt;q=0.7","true","1008","tones/880hz_short.mp3","s","","","tone_number_task","992.5","treinta y uno","tones/880hz_short.mp3","1142.5","60","2","36",""
"","","","","","html-keyboard-response","205","538209","0.0-244.0-0.0","6","1","2023-10-27 12:15:13","a725c3012b74bf33a1020a98cb69c237","181.230.217.84","Mozilla/5.0 (Windows NT 10.0; Win64; x64) AppleWebKit/537.36 (KHTML, like Gecko) Chrome/118.0.0.0 Safari/537.36","WebKit","Chrome","118.0.0.0","Windows","10.0","null","es-ES,es;q=0.9,en;q=0.8,pt;q=0.7","true","null","<p id=""stimulus"" style=""font-size:60px;"">treinta y uno</p>","null","","","tone_number_task_remaining_after_delay","","treinta y uno","","","60","2","36",""
"","","","","","html-keyboard-response","206","538863","0.0-246.0-0.0","6","1","2023-10-27 12:15:13","a725c3012b74bf33a1020a98cb69c237","181.230.217.84","Mozilla/5.0 (Windows NT 10.0; Win64; x64) AppleWebKit/537.36 (KHTML, like Gecko) Chrome/118.0.0.0 Safari/537.36","WebKit","Chrome","118.0.0.0","Windows","10.0","null","es-ES,es;q=0.9,en;q=0.8,pt;q=0.7","true","651","<p id=""stimulus"" style=""font-size:60px;"">treinta y uno</p>","j","","","empty_block","","treinta y uno","","","","2","36",""
"","","","","","html-keyboard-response","207","541851","0.0-247.0","6","1","2023-10-27 12:15:13","a725c3012b74bf33a1020a98cb69c237","181.230.217.84","Mozilla/5.0 (Windows NT 10.0; Win64; x64) AppleWebKit/537.36 (KHTML, like Gecko) Chrome/118.0.0.0 Safari/537.36","WebKit","Chrome","118.0.0.0","Windows","10.0","null","es-ES,es;q=0.9,en;q=0.8,pt;q=0.7","true","null","<div style=""font-size:100px;"">X</div>","null","","","fixation","","","","","","","",""
"","","","","","audio-keyboard-response","208","542005","0.0-248.0","6","1","2023-10-27 12:15:13","a725c3012b74bf33a1020a98cb69c237","181.230.217.84","Mozilla/5.0 (Windows NT 10.0; Win64; x64) AppleWebKit/537.36 (KHTML, like Gecko) Chrome/118.0.0.0 Safari/537.36","WebKit","Chrome","118.0.0.0","Windows","10.0","null","es-ES,es;q=0.9,en;q=0.8,pt;q=0.7","true","null","tones/440hz_short.mp3","null","","","tone_number_task","0","veintitres","tones/440hz_short.mp3","150","60","2","37",""
