"success","timeout","failed_images","failed_audio","failed_video","trial_type","trial_index","time_elapsed","internal_node_id","run_id","condition","recorded_at","source_code_version","ip","user_agent","device","browser","browser_version","platform","platform_version","referer","accept_language","check","rt","stimulus","response","question_order","url","task","delay","number","audioFile","trial_duration","font_size","block","round","value"
"true","false","[]","[]","[]","preload","0","815","0.0-0.0","46","1","2023-10-31 22:26:52","a725c3012b74bf33a1020a98cb69c237","190.188.115.65","Mozilla/5.0 (Windows NT 10.0; Win64; x64) AppleWebKit/537.36 (KHTML, like Gecko) Chrome/116.0.0.0 Safari/537.36","WebKit","Chrome","116.0.0.0","Windows","10.0","null","es-ES,es;q=0.9","true","","","","","","","","","","","","","",""
"true","","","","","fullscreen","1","13264","0.0-1.0","46","1","2023-10-31 22:26:52","a725c3012b74bf33a1020a98cb69c237","190.188.115.65","Mozilla/5.0 (Windows NT 10.0; Win64; x64) AppleWebKit/537.36 (KHTML, like Gecko) Chrome/116.0.0.0 Safari/537.36","WebKit","Chrome","116.0.0.0","Windows","10.0","null","es-ES,es;q=0.9","true","","","","","","","","","","","","","",""
"","","","","","html-button-response","2","20140","0.0-2.0","46","1","2023-10-31 22:26:52","a725c3012b74bf33a1020a98cb69c237","190.188.115.65","Mozilla/5.0 (Windows NT 10.0; Win64; x64) AppleWebKit/537.36 (KHTML, like Gecko) Chrome/116.0.0.0 Safari/537.36","WebKit","Chrome","116.0.0.0","Windows","10.0","null","es-ES,es;q=0.9","true","6875","<p style=""font-size:24px; color:red;"">Cosas importantes a tener en cuenta antes de comenzar el experimento:</p>","0","","","","","","","","","","",""
"","","","","","html-button-response","3","29767","0.0-3.0","46","1","2023-10-31 22:26:52","a725c3012b74bf33a1020a98cb69c237","190.188.115.65","Mozilla/5.0 (Windows NT 10.0; Win64; x64) AppleWebKit/537.36 (KHTML, like Gecko) Chrome/116.0.0.0 Safari/537.36","WebKit","Chrome","116.0.0.0","Windows","10.0","null","es-ES,es;q=0.9","true","9624","<p style=""font-size:24px;"">El experimento dura aproximadamente 15 minutos.</p><p style=""font-size:24px;"">Por favor, no cierres la ventana del navegador durante el experimento.</p><p style=""font-size:24px;"">Si se completa de forma parcial, no se guardará ningún resultado.</p>","0","","","","","","","","","","",""
"","","","","","html-button-response","4","35765","0.0-4.0","46","1","2023-10-31 22:26:52","a725c3012b74bf33a1020a98cb69c237","190.188.115.65","Mozilla/5.0 (Windows NT 10.0; Win64; x64) AppleWebKit/537.36 (KHTML, like Gecko) Chrome/116.0.0.0 Safari/537.36","WebKit","Chrome","116.0.0.0","Windows","10.0","null","es-ES,es;q=0.9","true","5995","<p style=""font-size:24px;"">El experimento contiene estímulos sonoros.</p>","0","","","","","","","","","","",""
"","","","","","audio-button-response","5","42403","0.0-5.0-0.0","46","1","2023-10-31 22:26:52","a725c3012b74bf33a1020a98cb69c237","190.188.115.65","Mozilla/5.0 (Windows NT 10.0; Win64; x64) AppleWebKit/537.36 (KHTML, like Gecko) Chrome/116.0.0.0 Safari/537.36","WebKit","Chrome","116.0.0.0","Windows","10.0","null","es-ES,es;q=0.9","true","6589","tones/440hz_short.mp3","1","","","","","","","","","","",""
"","","","","","audio-button-response","6","44683","0.0-6.0-0.0","46","1","2023-10-31 22:26:52","a725c3012b74bf33a1020a98cb69c237","190.188.115.65","Mozilla/5.0 (Windows NT 10.0; Win64; x64) AppleWebKit/537.36 (KHTML, like Gecko) Chrome/116.0.0.0 Safari/537.36","WebKit","Chrome","116.0.0.0","Windows","10.0","null","es-ES,es;q=0.9","true","2280","tones/880hz_short.mp3","1","","","","","","","","","","",""
"","","","","","survey-html-form","7","50008","0.0-7.0","46","1","2023-10-31 22:26:52","a725c3012b74bf33a1020a98cb69c237","190.188.115.65","Mozilla/5.0 (Windows NT 10.0; Win64; x64) AppleWebKit/537.36 (KHTML, like Gecko) Chrome/116.0.0.0 Safari/537.36","WebKit","Chrome","116.0.0.0","Windows","10.0","null","es-ES,es;q=0.9","true","5320","","{""response"":""29""}","","","","","","","","","","",""
"","","","","","survey-multi-choice","8","59418","0.0-8.0","46","1","2023-10-31 22:26:52","a725c3012b74bf33a1020a98cb69c237","190.188.115.65","Mozilla/5.0 (Windows NT 10.0; Win64; x64) AppleWebKit/537.36 (KHTML, like Gecko) Chrome/116.0.0.0 Safari/537.36","WebKit","Chrome","116.0.0.0","Windows","10.0","null","es-ES,es;q=0.9","true","9408","","{""gender"":""Mujer"",""hand"":""Derecha""}","[0,1]","","","","","","","","","",""
"","","","","","external-html","9","163562","0.0-9.0","46","1","2023-10-31 22:26:52","a725c3012b74bf33a1020a98cb69c237","190.188.115.65","Mozilla/5.0 (Windows NT 10.0; Win64; x64) AppleWebKit/537.36 (KHTML, like Gecko) Chrome/116.0.0.0 Safari/537.36","WebKit","Chrome","116.0.0.0","Windows","10.0","null","es-ES,es;q=0.9","true","103841","","","","instructions/instructions.html","","","","","","","","",""
"","","","","","external-html","10","253855","0.0-10.0","46","1","2023-10-31 22:26:52","a725c3012b74bf33a1020a98cb69c237","190.188.115.65","Mozilla/5.0 (Windows NT 10.0; Win64; x64) AppleWebKit/537.36 (KHTML, like Gecko) Chrome/116.0.0.0 Safari/537.36","WebKit","Chrome","116.0.0.0","Windows","10.0","null","es-ES,es;q=0.9","true","88739","","","","instructions/animation.html","","","","","","","","",""
"","","","","","html-keyboard-response","11","256689","0.0-11.0-0.0","46","1","2023-10-31 22:26:52","a725c3012b74bf33a1020a98cb69c237","190.188.115.65","Mozilla/5.0 (Windows NT 10.0; Win64; x64) AppleWebKit/537.36 (KHTML, like Gecko) Chrome/116.0.0.0 Safari/537.36","WebKit","Chrome","116.0.0.0","Windows","10.0","null","es-ES,es;q=0.9","true","null","<div style=""font-size:100px;"">X</div>","null","","","fixation","","","","","","","",""
"","","","","","audio-keyboard-response","12","257842","0.0-11.0-1.0","46","1","2023-10-31 22:26:52","a725c3012b74bf33a1020a98cb69c237","190.188.115.65","Mozilla/5.0 (Windows NT 10.0; Win64; x64) AppleWebKit/537.36 (KHTML, like Gecko) Chrome/116.0.0.0 Safari/537.36","WebKit","Chrome","116.0.0.0","Windows","10.0","null","es-ES,es;q=0.9","true","null","tones/880hz_short.mp3","null","","","tone_number_task","1000","64","tones/880hz_short.mp3","1150","100","null","null",""
"","","","","","html-keyboard-response","13","260001","0.0-11.0-4.0-0.0","46","1","2023-10-31 22:26:52","a725c3012b74bf33a1020a98cb69c237","190.188.115.65","Mozilla/5.0 (Windows NT 10.0; Win64; x64) AppleWebKit/537.36 (KHTML, like Gecko) Chrome/116.0.0.0 Safari/537.36","WebKit","Chrome","116.0.0.0","Windows","10.0","null","es-ES,es;q=0.9","true","2158","tones/880hz_short.mp3","a","","","empty_block","","64","","","","null","null",""
"","","","","","html-keyboard-response","14","260784","0.0-11.0-4.0-1.0","46","1","2023-10-31 22:26:52","a725c3012b74bf33a1020a98cb69c237","190.188.115.65","Mozilla/5.0 (Windows NT 10.0; Win64; x64) AppleWebKit/537.36 (KHTML, like Gecko) Chrome/116.0.0.0 Safari/537.36","WebKit","Chrome","116.0.0.0","Windows","10.0","null","es-ES,es;q=0.9","true","782","tones/880hz_short.mp3","k","","","empty_block","","64","","","","null","null",""
"","","","","","html-button-response","15","269001","0.0-11.0-6.0-0.0","46","1","2023-10-31 22:26:52","a725c3012b74bf33a1020a98cb69c237","190.188.115.65","Mozilla/5.0 (Windows NT 10.0; Win64; x64) AppleWebKit/537.36 (KHTML, like Gecko) Chrome/116.0.0.0 Safari/537.36","WebKit","Chrome","116.0.0.0","Windows","10.0","null","es-ES,es;q=0.9","true","8216","
  '<p style=""font-size:24px; color:red;"">Incorrecto</p><p> Respondiste alguno de los estímulos de manera incorrecta.</p><p>Por favor, repasá las instrucciones y seguimos desde donde nos quedamos. </p>
  ","0","","","","","","","","","","",""
"","","","","","external-html","16","285089","0.0-11.0-6.0-1.0","46","1","2023-10-31 22:26:52","a725c3012b74bf33a1020a98cb69c237","190.188.115.65","Mozilla/5.0 (Windows NT 10.0; Win64; x64) AppleWebKit/537.36 (KHTML, like Gecko) Chrome/116.0.0.0 Safari/537.36","WebKit","Chrome","116.0.0.0","Windows","10.0","null","es-ES,es;q=0.9","true","15129","","","","instructions/instructions_B.html","","","","","","","","",""
"","","","","","html-keyboard-response","17","287918","0.0-11.1-0.1","46","1","2023-10-31 22:26:52","a725c3012b74bf33a1020a98cb69c237","190.188.115.65","Mozilla/5.0 (Windows NT 10.0; Win64; x64) AppleWebKit/537.36 (KHTML, like Gecko) Chrome/116.0.0.0 Safari/537.36","WebKit","Chrome","116.0.0.0","Windows","10.0","null","es-ES,es;q=0.9","true","null","<div style=""font-size:100px;"">X</div>","null","","","fixation","","","","","","","",""
"","","","","","audio-keyboard-response","18","289070","0.0-11.1-1.1","46","1","2023-10-31 22:26:52","a725c3012b74bf33a1020a98cb69c237","190.188.115.65","Mozilla/5.0 (Windows NT 10.0; Win64; x64) AppleWebKit/537.36 (KHTML, like Gecko) Chrome/116.0.0.0 Safari/537.36","WebKit","Chrome","116.0.0.0","Windows","10.0","null","es-ES,es;q=0.9","true","null","tones/880hz_short.mp3","null","","","tone_number_task","1000","64","tones/880hz_short.mp3","1150","100","null","null",""
"","","","","","html-keyboard-response","19","289460","0.0-11.1-4.1-0.1","46","1","2023-10-31 22:26:52","a725c3012b74bf33a1020a98cb69c237","190.188.115.65","Mozilla/5.0 (Windows NT 10.0; Win64; x64) AppleWebKit/537.36 (KHTML, like Gecko) Chrome/116.0.0.0 Safari/537.36","WebKit","Chrome","116.0.0.0","Windows","10.0","null","es-ES,es;q=0.9","true","389","tones/880hz_short.mp3","s","","","empty_block","","64","","","","null","null",""
"","","","","","html-keyboard-response","20","292700","0.0-11.1-4.1-1.1","46","1","2023-10-31 22:26:52","a725c3012b74bf33a1020a98cb69c237","190.188.115.65","Mozilla/5.0 (Windows NT 10.0; Win64; x64) AppleWebKit/537.36 (KHTML, like Gecko) Chrome/116.0.0.0 Safari/537.36","WebKit","Chrome","116.0.0.0","Windows","10.0","null","es-ES,es;q=0.9","true","3238","tones/880hz_short.mp3","k","","","empty_block","","64","","","","null","null",""
"","","","","","html-keyboard-response","21","295528","0.0-13.0-0.0","46","1","2023-10-31 22:26:52","a725c3012b74bf33a1020a98cb69c237","190.188.115.65","Mozilla/5.0 (Windows NT 10.0; Win64; x64) AppleWebKit/537.36 (KHTML, like Gecko) Chrome/116.0.0.0 Safari/537.36","WebKit","Chrome","116.0.0.0","Windows","10.0","null","es-ES,es;q=0.9","true","null","<div style=""font-size:100px;"">X</div>","null","","","fixation","","","","","","","",""
"","","","","","audio-keyboard-response","22","296182","0.0-13.0-1.0","46","1","2023-10-31 22:26:52","a725c3012b74bf33a1020a98cb69c237","190.188.115.65","Mozilla/5.0 (Windows NT 10.0; Win64; x64) AppleWebKit/537.36 (KHTML, like Gecko) Chrome/116.0.0.0 Safari/537.36","WebKit","Chrome","116.0.0.0","Windows","10.0","null","es-ES,es;q=0.9","true","null","tones/880hz_short.mp3","null","","","tone_number_task","500","46","tones/880hz_short.mp3","650","100","null","null",""
"","","","","","html-keyboard-response","23","296584","0.0-13.0-4.0-0.0","46","1","2023-10-31 22:26:52","a725c3012b74bf33a1020a98cb69c237","190.188.115.65","Mozilla/5.0 (Windows NT 10.0; Win64; x64) AppleWebKit/537.36 (KHTML, like Gecko) Chrome/116.0.0.0 Safari/537.36","WebKit","Chrome","116.0.0.0","Windows","10.0","null","es-ES,es;q=0.9","true","398","tones/880hz_short.mp3","s","","","empty_block","","46","","","","null","null",""
"","","","","","html-keyboard-response","24","297754","0.0-13.0-4.0-1.0","46","1","2023-10-31 22:26:52","a725c3012b74bf33a1020a98cb69c237","190.188.115.65","Mozilla/5.0 (Windows NT 10.0; Win64; x64) AppleWebKit/537.36 (KHTML, like Gecko) Chrome/116.0.0.0 Safari/537.36","WebKit","Chrome","116.0.0.0","Windows","10.0","null","es-ES,es;q=0.9","true","1168","tones/880hz_short.mp3","k","","","empty_block","","46","","","","null","null",""
"","","","","","html-keyboard-response","25","300581","0.0-15.0-0.0","46","1","2023-10-31 22:26:52","a725c3012b74bf33a1020a98cb69c237","190.188.115.65","Mozilla/5.0 (Windows NT 10.0; Win64; x64) AppleWebKit/537.36 (KHTML, like Gecko) Chrome/116.0.0.0 Safari/537.36","WebKit","Chrome","116.0.0.0","Windows","10.0","null","es-ES,es;q=0.9","true","null","<div style=""font-size:100px;"">X</div>","null","","","fixation","","","","","","","",""
"","","","","","audio-keyboard-response","26","300886","0.0-15.0-1.0","46","1","2023-10-31 22:26:52","a725c3012b74bf33a1020a98cb69c237","190.188.115.65","Mozilla/5.0 (Windows NT 10.0; Win64; x64) AppleWebKit/537.36 (KHTML, like Gecko) Chrome/116.0.0.0 Safari/537.36","WebKit","Chrome","116.0.0.0","Windows","10.0","null","es-ES,es;q=0.9","true","null","tones/880hz_short.mp3","null","","","tone_number_task","150","56","tones/880hz_short.mp3","300","100","null","null",""
"","","","","","html-keyboard-response","27","302106","0.0-15.0-4.0-0.0","46","1","2023-10-31 22:26:52","a725c3012b74bf33a1020a98cb69c237","190.188.115.65","Mozilla/5.0 (Windows NT 10.0; Win64; x64) AppleWebKit/537.36 (KHTML, like Gecko) Chrome/116.0.0.0 Safari/537.36","WebKit","Chrome","116.0.0.0","Windows","10.0","null","es-ES,es;q=0.9","true","1217","tones/880hz_short.mp3","s","","","empty_block","","56","","","","null","null",""
"","","","","","html-keyboard-response","28","303691","0.0-15.0-4.0-1.0","46","1","2023-10-31 22:26:52","a725c3012b74bf33a1020a98cb69c237","190.188.115.65","Mozilla/5.0 (Windows NT 10.0; Win64; x64) AppleWebKit/537.36 (KHTML, like Gecko) Chrome/116.0.0.0 Safari/537.36","WebKit","Chrome","116.0.0.0","Windows","10.0","null","es-ES,es;q=0.9","true","1581","tones/880hz_short.mp3","j","","","empty_block","","56","","","","null","null",""
"","","","","","html-button-response","29","306188","0.0-15.0-6.0-0.0","46","1","2023-10-31 22:26:52","a725c3012b74bf33a1020a98cb69c237","190.188.115.65","Mozilla/5.0 (Windows NT 10.0; Win64; x64) AppleWebKit/537.36 (KHTML, like Gecko) Chrome/116.0.0.0 Safari/537.36","WebKit","Chrome","116.0.0.0","Windows","10.0","null","es-ES,es;q=0.9","true","2494","
  '<p style=""font-size:24px; color:red;"">Incorrecto</p><p> Respondiste alguno de los estímulos de manera incorrecta.</p><p>Por favor, repasá las instrucciones y seguimos desde donde nos quedamos. </p>
  ","0","","","","","","","","","","",""
"","","","","","external-html","30","316675","0.0-15.0-6.0-1.0","46","1","2023-10-31 22:26:52","a725c3012b74bf33a1020a98cb69c237","190.188.115.65","Mozilla/5.0 (Windows NT 10.0; Win64; x64) AppleWebKit/537.36 (KHTML, like Gecko) Chrome/116.0.0.0 Safari/537.36","WebKit","Chrome","116.0.0.0","Windows","10.0","null","es-ES,es;q=0.9","true","10210","","","","instructions/instructions_B.html","","","","","","","","",""
"","","","","","html-keyboard-response","31","319512","0.0-15.1-0.1","46","1","2023-10-31 22:26:52","a725c3012b74bf33a1020a98cb69c237","190.188.115.65","Mozilla/5.0 (Windows NT 10.0; Win64; x64) AppleWebKit/537.36 (KHTML, like Gecko) Chrome/116.0.0.0 Safari/537.36","WebKit","Chrome","116.0.0.0","Windows","10.0","null","es-ES,es;q=0.9","true","null","<div style=""font-size:100px;"">X</div>","null","","","fixation","","","","","","","",""
"","","","","","audio-keyboard-response","32","319815","0.0-15.1-1.1","46","1","2023-10-31 22:26:52","a725c3012b74bf33a1020a98cb69c237","190.188.115.65","Mozilla/5.0 (Windows NT 10.0; Win64; x64) AppleWebKit/537.36 (KHTML, like Gecko) Chrome/116.0.0.0 Safari/537.36","WebKit","Chrome","116.0.0.0","Windows","10.0","null","es-ES,es;q=0.9","true","null","tones/880hz_short.mp3","null","","","tone_number_task","150","56","tones/880hz_short.mp3","300","100","null","null",""
"","","","","","html-keyboard-response","33","320329","0.0-15.1-4.1-0.1","46","1","2023-10-31 22:26:52","a725c3012b74bf33a1020a98cb69c237","190.188.115.65","Mozilla/5.0 (Windows NT 10.0; Win64; x64) AppleWebKit/537.36 (KHTML, like Gecko) Chrome/116.0.0.0 Safari/537.36","WebKit","Chrome","116.0.0.0","Windows","10.0","null","es-ES,es;q=0.9","true","510","tones/880hz_short.mp3","s","","","empty_block","","56","","","","null","null",""
"","","","","","html-keyboard-response","34","320887","0.0-15.1-4.1-1.1","46","1","2023-10-31 22:26:52","a725c3012b74bf33a1020a98cb69c237","190.188.115.65","Mozilla/5.0 (Windows NT 10.0; Win64; x64) AppleWebKit/537.36 (KHTML, like Gecko) Chrome/116.0.0.0 Safari/537.36","WebKit","Chrome","116.0.0.0","Windows","10.0","null","es-ES,es;q=0.9","true","554","tones/880hz_short.mp3","k","","","empty_block","","56","","","","null","null",""
"","","","","","html-keyboard-response","35","323714","0.0-17.0-0.0","46","1","2023-10-31 22:26:52","a725c3012b74bf33a1020a98cb69c237","190.188.115.65","Mozilla/5.0 (Windows NT 10.0; Win64; x64) AppleWebKit/537.36 (KHTML, like Gecko) Chrome/116.0.0.0 Safari/537.36","WebKit","Chrome","116.0.0.0","Windows","10.0","null","es-ES,es;q=0.9","true","null","<div style=""font-size:100px;"">X</div>","null","","","fixation","","","","","","","",""
"","","","","","audio-keyboard-response","36","323917","0.0-17.0-1.0","46","1","2023-10-31 22:26:52","a725c3012b74bf33a1020a98cb69c237","190.188.115.65","Mozilla/5.0 (Windows NT 10.0; Win64; x64) AppleWebKit/537.36 (KHTML, like Gecko) Chrome/116.0.0.0 Safari/537.36","WebKit","Chrome","116.0.0.0","Windows","10.0","null","es-ES,es;q=0.9","true","null","tones/440hz_short.mp3","null","","","tone_number_task","50","46","tones/440hz_short.mp3","200","100","null","null",""
"","","","","","html-keyboard-response","37","325510","0.0-17.0-4.0-0.0","46","1","2023-10-31 22:26:52","a725c3012b74bf33a1020a98cb69c237","190.188.115.65","Mozilla/5.0 (Windows NT 10.0; Win64; x64) AppleWebKit/537.36 (KHTML, like Gecko) Chrome/116.0.0.0 Safari/537.36","WebKit","Chrome","116.0.0.0","Windows","10.0","null","es-ES,es;q=0.9","true","1592","tones/440hz_short.mp3","a","","","empty_block","","46","","","","null","null",""
"","","","","","html-keyboard-response","38","326803","0.0-17.0-4.0-1.0","46","1","2023-10-31 22:26:52","a725c3012b74bf33a1020a98cb69c237","190.188.115.65","Mozilla/5.0 (Windows NT 10.0; Win64; x64) AppleWebKit/537.36 (KHTML, like Gecko) Chrome/116.0.0.0 Safari/537.36","WebKit","Chrome","116.0.0.0","Windows","10.0","null","es-ES,es;q=0.9","true","1292","tones/440hz_short.mp3","k","","","empty_block","","46","","","","null","null",""
"","","","","","html-button-response","39","336688","0.0-19.0","46","1","2023-10-31 22:26:52","a725c3012b74bf33a1020a98cb69c237","190.188.115.65","Mozilla/5.0 (Windows NT 10.0; Win64; x64) AppleWebKit/537.36 (KHTML, like Gecko) Chrome/116.0.0.0 Safari/537.36","WebKit","Chrome","116.0.0.0","Windows","10.0","null","es-ES,es;q=0.9","true","9883","
  <h1> Muy bien </h1>
  <p> Ahora, en vez de ser presentados en dígitos, los números vendrán escritos en palabras. </p>
  <p> Por ejemplo, en vez de 44 te aparecerá ""cuarenta y cuatro"". </p>
  ","0","","","","","","","","","","",""
"","","","","","html-keyboard-response","40","339513","0.0-20.0-0.0","46","1","2023-10-31 22:26:52","a725c3012b74bf33a1020a98cb69c237","190.188.115.65","Mozilla/5.0 (Windows NT 10.0; Win64; x64) AppleWebKit/537.36 (KHTML, like Gecko) Chrome/116.0.0.0 Safari/537.36","WebKit","Chrome","116.0.0.0","Windows","10.0","null","es-ES,es;q=0.9","true","null","<div style=""font-size:100px;"">X</div>","null","","","fixation","","","","","","","",""
"","","","","","audio-keyboard-response","41","340212","0.0-20.0-1.0","46","1","2023-10-31 22:26:52","a725c3012b74bf33a1020a98cb69c237","190.188.115.65","Mozilla/5.0 (Windows NT 10.0; Win64; x64) AppleWebKit/537.36 (KHTML, like Gecko) Chrome/116.0.0.0 Safari/537.36","WebKit","Chrome","116.0.0.0","Windows","10.0","null","es-ES,es;q=0.9","true","701","tones/440hz_short.mp3","a","","","tone_number_task","1000","cincuenta y cuatro","tones/440hz_short.mp3","1150","60","null","null",""
"","","","","","html-keyboard-response","42","340514","0.0-20.0-2.0-0.0","46","1","2023-10-31 22:26:52","a725c3012b74bf33a1020a98cb69c237","190.188.115.65","Mozilla/5.0 (Windows NT 10.0; Win64; x64) AppleWebKit/537.36 (KHTML, like Gecko) Chrome/116.0.0.0 Safari/537.36","WebKit","Chrome","116.0.0.0","Windows","10.0","null","es-ES,es;q=0.9","true","null","","null","","","delay_block","","","","","","null","null",""
"","","","","","html-keyboard-response","43","340669","0.0-20.0-2.0-1.0","46","1","2023-10-31 22:26:52","a725c3012b74bf33a1020a98cb69c237","190.188.115.65","Mozilla/5.0 (Windows NT 10.0; Win64; x64) AppleWebKit/537.36 (KHTML, like Gecko) Chrome/116.0.0.0 Safari/537.36","WebKit","Chrome","116.0.0.0","Windows","10.0","null","es-ES,es;q=0.9","true","null","<p id=""stimulus"" style=""font-size:60px;"">cincuenta y cuatro</p>","null","","","tone_number_task_remaining_before_delay","","cincuenta y cuatro","","449","60","null","null",""
"","","","","","html-keyboard-response","44","342585","0.0-20.0-5.0-0.0","46","1","2023-10-31 22:26:52","a725c3012b74bf33a1020a98cb69c237","190.188.115.65","Mozilla/5.0 (Windows NT 10.0; Win64; x64) AppleWebKit/537.36 (KHTML, like Gecko) Chrome/116.0.0.0 Safari/537.36","WebKit","Chrome","116.0.0.0","Windows","10.0","null","es-ES,es;q=0.9","true","1913","<p id=""stimulus"" style=""font-size:60px;"">cincuenta y cuatro</p>","k","","","empty_block","","cincuenta y cuatro","","","","null","null",""
"","","","","","html-button-response","45","358372","0.0-22.0","46","1","2023-10-31 22:26:52","a725c3012b74bf33a1020a98cb69c237","190.188.115.65","Mozilla/5.0 (Windows NT 10.0; Win64; x64) AppleWebKit/537.36 (KHTML, like Gecko) Chrome/116.0.0.0 Safari/537.36","WebKit","Chrome","116.0.0.0","Windows","10.0","null","es-ES,es;q=0.9","true","15781","
  <h1> Fin del Entrenamiento </h1>
  <p> ¡Felicitaciones, terminaste el entrenamiento! Ahora vamos a comenzar con el experimento. </p>
  <p> Es importante tener en cuenta que consta de cuatro bloques.</p>
  <p> Podés aprovechar los momentos entre bloques para tomar un breve descanso o tomar agua entre cada uno</p>
  <p> Recordá que tenés que responder lo más rápido que puedas, pero sin equivocarte. </p>
  ","0","","","","","","","","","","",""
"","","","","","external-html","46","371406","0.0-23.0","46","1","2023-10-31 22:26:52","a725c3012b74bf33a1020a98cb69c237","190.188.115.65","Mozilla/5.0 (Windows NT 10.0; Win64; x64) AppleWebKit/537.36 (KHTML, like Gecko) Chrome/116.0.0.0 Safari/537.36","WebKit","Chrome","116.0.0.0","Windows","10.0","null","es-ES,es;q=0.9","true","12728","","","","instructions/instructions_words_first.html","","","","","","","","",""
"","","","","","call-function","47","371421","0.0-24.0","46","1","2023-10-31 22:26:52","a725c3012b74bf33a1020a98cb69c237","190.188.115.65","Mozilla/5.0 (Windows NT 10.0; Win64; x64) AppleWebKit/537.36 (KHTML, like Gecko) Chrome/116.0.0.0 Safari/537.36","WebKit","Chrome","116.0.0.0","Windows","10.0","null","es-ES,es;q=0.9","true","","","","","","","","","","","","","",""
"","","","","","html-keyboard-response","48","374249","0.0-25.0","46","1","2023-10-31 22:26:52","a725c3012b74bf33a1020a98cb69c237","190.188.115.65","Mozilla/5.0 (Windows NT 10.0; Win64; x64) AppleWebKit/537.36 (KHTML, like Gecko) Chrome/116.0.0.0 Safari/537.36","WebKit","Chrome","116.0.0.0","Windows","10.0","null","es-ES,es;q=0.9","true","null","<div style=""font-size:100px;"">X</div>","null","","","fixation","","","","","","","",""
"","","","","","audio-keyboard-response","49","375041","0.0-26.0","46","1","2023-10-31 22:26:52","a725c3012b74bf33a1020a98cb69c237","190.188.115.65","Mozilla/5.0 (Windows NT 10.0; Win64; x64) AppleWebKit/537.36 (KHTML, like Gecko) Chrome/116.0.0.0 Safari/537.36","WebKit","Chrome","116.0.0.0","Windows","10.0","null","es-ES,es;q=0.9","true","800","tones/440hz_short.mp3","a","","","tone_number_task","992.5","veintinueve","tones/440hz_short.mp3","1142.5","60","2","0",""
"","","","","","html-keyboard-response","50","375238","0.0-27.0-0.0","46","1","2023-10-31 22:26:52","a725c3012b74bf33a1020a98cb69c237","190.188.115.65","Mozilla/5.0 (Windows NT 10.0; Win64; x64) AppleWebKit/537.36 (KHTML, like Gecko) Chrome/116.0.0.0 Safari/537.36","WebKit","Chrome","116.0.0.0","Windows","10.0","null","es-ES,es;q=0.9","true","null","","null","","","delay_block","","","","","","2","0",""
"","","","","","html-keyboard-response","51","375391","0.0-27.0-1.0","46","1","2023-10-31 22:26:52","a725c3012b74bf33a1020a98cb69c237","190.188.115.65","Mozilla/5.0 (Windows NT 10.0; Win64; x64) AppleWebKit/537.36 (KHTML, like Gecko) Chrome/116.0.0.0 Safari/537.36","WebKit","Chrome","116.0.0.0","Windows","10.0","null","es-ES,es;q=0.9","true","null","<p id=""stimulus"" style=""font-size:60px;"">veintinueve</p>","null","","","tone_number_task_remaining_before_delay","","veintinueve","","342.5","60","2","0",""
"","","","","","html-keyboard-response","52","376464","0.0-30.0-0.0","46","1","2023-10-31 22:26:52","a725c3012b74bf33a1020a98cb69c237","190.188.115.65","Mozilla/5.0 (Windows NT 10.0; Win64; x64) AppleWebKit/537.36 (KHTML, like Gecko) Chrome/116.0.0.0 Safari/537.36","WebKit","Chrome","116.0.0.0","Windows","10.0","null","es-ES,es;q=0.9","true","1069","<p id=""stimulus"" style=""font-size:60px;"">veintinueve</p>","k","","","empty_block","","veintinueve","","","","2","0",""
"","","","","","html-keyboard-response","53","379290","0.0-31.0","46","1","2023-10-31 22:26:52","a725c3012b74bf33a1020a98cb69c237","190.188.115.65","Mozilla/5.0 (Windows NT 10.0; Win64; x64) AppleWebKit/537.36 (KHTML, like Gecko) Chrome/116.0.0.0 Safari/537.36","WebKit","Chrome","116.0.0.0","Windows","10.0","null","es-ES,es;q=0.9","true","null","<div style=""font-size:100px;"">X</div>","null","","","fixation","","","","","","","",""
"","","","","","audio-keyboard-response","54","379547","0.0-32.0","46","1","2023-10-31 22:26:52","a725c3012b74bf33a1020a98cb69c237","190.188.115.65","Mozilla/5.0 (Windows NT 10.0; Win64; x64) AppleWebKit/537.36 (KHTML, like Gecko) Chrome/116.0.0.0 Safari/537.36","WebKit","Chrome","116.0.0.0","Windows","10.0","null","es-ES,es;q=0.9","true","null","tones/440hz_short.mp3","null","","","tone_number_task","102.5","cincuenta y siete","tones/440hz_short.mp3","252.5","60","2","1",""
"","","","","","html-keyboard-response","55","380750","0.0-35.0-0.0","46","1","2023-10-31 22:26:52","a725c3012b74bf33a1020a98cb69c237","190.188.115.65","Mozilla/5.0 (Windows NT 10.0; Win64; x64) AppleWebKit/537.36 (KHTML, like Gecko) Chrome/116.0.0.0 Safari/537.36","WebKit","Chrome","116.0.0.0","Windows","10.0","null","es-ES,es;q=0.9","true","null","tones/440hz_short.mp3","null","","","empty_block","","cincuenta y siete","","","","2","1",""
"","","","","","html-keyboard-response","56","381657","0.0-35.0-1.0","46","1","2023-10-31 22:26:52","a725c3012b74bf33a1020a98cb69c237","190.188.115.65","Mozilla/5.0 (Windows NT 10.0; Win64; x64) AppleWebKit/537.36 (KHTML, like Gecko) Chrome/116.0.0.0 Safari/537.36","WebKit","Chrome","116.0.0.0","Windows","10.0","null","es-ES,es;q=0.9","true","906","tones/440hz_short.mp3","a","","","empty_block","","cincuenta y siete","","","","2","1",""
"","","","","","html-keyboard-response","57","384487","0.0-37.0","46","1","2023-10-31 22:26:52","a725c3012b74bf33a1020a98cb69c237","190.188.115.65","Mozilla/5.0 (Windows NT 10.0; Win64; x64) AppleWebKit/537.36 (KHTML, like Gecko) Chrome/116.0.0.0 Safari/537.36","WebKit","Chrome","116.0.0.0","Windows","10.0","null","es-ES,es;q=0.9","true","null","<div style=""font-size:100px;"">X</div>","null","","","fixation","","","","","","","",""
"","","","","","audio-keyboard-response","58","385635","0.0-38.0","46","1","2023-10-31 22:26:52","a725c3012b74bf33a1020a98cb69c237","190.188.115.65","Mozilla/5.0 (Windows NT 10.0; Win64; x64) AppleWebKit/537.36 (KHTML, like Gecko) Chrome/116.0.0.0 Safari/537.36","WebKit","Chrome","116.0.0.0","Windows","10.0","null","es-ES,es;q=0.9","true","null","tones/440hz_short.mp3","null","","","tone_number_task","992.5","sesenta y seis","tones/440hz_short.mp3","1142.5","60","2","2",""
"","","","","","html-keyboard-response","59","386840","0.0-41.0-0.0","46","1","2023-10-31 22:26:52","a725c3012b74bf33a1020a98cb69c237","190.188.115.65","Mozilla/5.0 (Windows NT 10.0; Win64; x64) AppleWebKit/537.36 (KHTML, like Gecko) Chrome/116.0.0.0 Safari/537.36","WebKit","Chrome","116.0.0.0","Windows","10.0","null","es-ES,es;q=0.9","true","null","tones/440hz_short.mp3","null","","","empty_block","","sesenta y seis","","","","2","2",""
"","","","","","html-keyboard-response","60","387320","0.0-41.0-1.0","46","1","2023-10-31 22:26:52","a725c3012b74bf33a1020a98cb69c237","190.188.115.65","Mozilla/5.0 (Windows NT 10.0; Win64; x64) AppleWebKit/537.36 (KHTML, like Gecko) Chrome/116.0.0.0 Safari/537.36","WebKit","Chrome","116.0.0.0","Windows","10.0","null","es-ES,es;q=0.9","true","474","tones/440hz_short.mp3","a","","","empty_block","","sesenta y seis","","","","2","2",""
"","","","","","html-keyboard-response","61","390152","0.0-43.0","46","1","2023-10-31 22:26:52","a725c3012b74bf33a1020a98cb69c237","190.188.115.65","Mozilla/5.0 (Windows NT 10.0; Win64; x64) AppleWebKit/537.36 (KHTML, like Gecko) Chrome/116.0.0.0 Safari/537.36","WebKit","Chrome","116.0.0.0","Windows","10.0","null","es-ES,es;q=0.9","true","null","<div style=""font-size:100px;"">X</div>","null","","","fixation","","","","","","","",""
"","","","","","audio-keyboard-response","62","391297","0.0-44.0","46","1","2023-10-31 22:26:52","a725c3012b74bf33a1020a98cb69c237","190.188.115.65","Mozilla/5.0 (Windows NT 10.0; Win64; x64) AppleWebKit/537.36 (KHTML, like Gecko) Chrome/116.0.0.0 Safari/537.36","WebKit","Chrome","116.0.0.0","Windows","10.0","null","es-ES,es;q=0.9","true","null","tones/440hz_short.mp3","null","","","tone_number_task","992.5","cincuenta y cuatro","tones/440hz_short.mp3","1142.5","60","2","3",""
"","","","","","html-keyboard-response","63","391343","0.0-47.0-0.0","46","1","2023-10-31 22:26:52","a725c3012b74bf33a1020a98cb69c237","190.188.115.65","Mozilla/5.0 (Windows NT 10.0; Win64; x64) AppleWebKit/537.36 (KHTML, like Gecko) Chrome/116.0.0.0 Safari/537.36","WebKit","Chrome","116.0.0.0","Windows","10.0","null","es-ES,es;q=0.9","true","41","tones/440hz_short.mp3","a","","","empty_block","","cincuenta y cuatro","","","","2","3",""
"","","","","","html-keyboard-response","64","392546","0.0-47.0-1.0","46","1","2023-10-31 22:26:52","a725c3012b74bf33a1020a98cb69c237","190.188.115.65","Mozilla/5.0 (Windows NT 10.0; Win64; x64) AppleWebKit/537.36 (KHTML, like Gecko) Chrome/116.0.0.0 Safari/537.36","WebKit","Chrome","116.0.0.0","Windows","10.0","null","es-ES,es;q=0.9","true","null","tones/440hz_short.mp3","null","","","empty_block","","cincuenta y cuatro","","","","2","3",""
"","","","","","html-keyboard-response","65","395374","0.0-49.0","46","1","2023-10-31 22:26:52","a725c3012b74bf33a1020a98cb69c237","190.188.115.65","Mozilla/5.0 (Windows NT 10.0; Win64; x64) AppleWebKit/537.36 (KHTML, like Gecko) Chrome/116.0.0.0 Safari/537.36","WebKit","Chrome","116.0.0.0","Windows","10.0","null","es-ES,es;q=0.9","true","null","<div style=""font-size:100px;"">X</div>","null","","","fixation","","","","","","","",""
"","","","","","audio-keyboard-response","66","395533","0.0-50.0","46","1","2023-10-31 22:26:52","a725c3012b74bf33a1020a98cb69c237","190.188.115.65","Mozilla/5.0 (Windows NT 10.0; Win64; x64) AppleWebKit/537.36 (KHTML, like Gecko) Chrome/116.0.0.0 Safari/537.36","WebKit","Chrome","116.0.0.0","Windows","10.0","null","es-ES,es;q=0.9","true","null","tones/880hz_short.mp3","null","","","tone_number_task","0","veintiocho","tones/880hz_short.mp3","150","60","2","4",""
"","","","","","html-keyboard-response","67","396741","0.0-53.0-0.0","46","1","2023-10-31 22:26:52","a725c3012b74bf33a1020a98cb69c237","190.188.115.65","Mozilla/5.0 (Windows NT 10.0; Win64; x64) AppleWebKit/537.36 (KHTML, like Gecko) Chrome/116.0.0.0 Safari/537.36","WebKit","Chrome","116.0.0.0","Windows","10.0","null","es-ES,es;q=0.9","true","null","tones/880hz_short.mp3","null","","","empty_block","","veintiocho","","","","2","4",""
"","","","","","html-keyboard-response","68","397944","0.0-53.0-1.0","46","1","2023-10-31 22:26:52","a725c3012b74bf33a1020a98cb69c237","190.188.115.65","Mozilla/5.0 (Windows NT 10.0; Win64; x64) AppleWebKit/537.36 (KHTML, like Gecko) Chrome/116.0.0.0 Safari/537.36","WebKit","Chrome","116.0.0.0","Windows","10.0","null","es-ES,es;q=0.9","true","null","tones/880hz_short.mp3","null","","","empty_block","","veintiocho","","","","2","4",""
"","","","","","html-keyboard-response","69","400770","0.0-55.0","46","1","2023-10-31 22:26:52","a725c3012b74bf33a1020a98cb69c237","190.188.115.65","Mozilla/5.0 (Windows NT 10.0; Win64; x64) AppleWebKit/537.36 (KHTML, like Gecko) Chrome/116.0.0.0 Safari/537.36","WebKit","Chrome","116.0.0.0","Windows","10.0","null","es-ES,es;q=0.9","true","null","<div style=""font-size:100px;"">X</div>","null","","","fixation","","","","","","","",""
"","","","","","audio-keyboard-response","70","401918","0.0-56.0","46","1","2023-10-31 22:26:52","a725c3012b74bf33a1020a98cb69c237","190.188.115.65","Mozilla/5.0 (Windows NT 10.0; Win64; x64) AppleWebKit/537.36 (KHTML, like Gecko) Chrome/116.0.0.0 Safari/537.36","WebKit","Chrome","116.0.0.0","Windows","10.0","null","es-ES,es;q=0.9","true","null","tones/880hz_short.mp3","null","","","tone_number_task","992.5","sesenta y nueve","tones/880hz_short.mp3","1142.5","60","2","5",""
"","","","","","html-keyboard-response","71","403124","0.0-59.0-0.0","46","1","2023-10-31 22:26:52","a725c3012b74bf33a1020a98cb69c237","190.188.115.65","Mozilla/5.0 (Windows NT 10.0; Win64; x64) AppleWebKit/537.36 (KHTML, like Gecko) Chrome/116.0.0.0 Safari/537.36","WebKit","Chrome","116.0.0.0","Windows","10.0","null","es-ES,es;q=0.9","true","null","tones/880hz_short.mp3","null","","","empty_block","","sesenta y nueve","","","","2","5",""
"","","","","","html-keyboard-response","72","403877","0.0-59.0-1.0","46","1","2023-10-31 22:26:52","a725c3012b74bf33a1020a98cb69c237","190.188.115.65","Mozilla/5.0 (Windows NT 10.0; Win64; x64) AppleWebKit/537.36 (KHTML, like Gecko) Chrome/116.0.0.0 Safari/537.36","WebKit","Chrome","116.0.0.0","Windows","10.0","null","es-ES,es;q=0.9","true","746","tones/880hz_short.mp3","s","","","empty_block","","sesenta y nueve","","","","2","5",""
"","","","","","html-keyboard-response","73","406705","0.0-61.0","46","1","2023-10-31 22:26:52","a725c3012b74bf33a1020a98cb69c237","190.188.115.65","Mozilla/5.0 (Windows NT 10.0; Win64; x64) AppleWebKit/537.36 (KHTML, like Gecko) Chrome/116.0.0.0 Safari/537.36","WebKit","Chrome","116.0.0.0","Windows","10.0","null","es-ES,es;q=0.9","true","null","<div style=""font-size:100px;"">X</div>","null","","","fixation","","","","","","","",""
"","","","","","audio-keyboard-response","74","406858","0.0-62.0","46","1","2023-10-31 22:26:52","a725c3012b74bf33a1020a98cb69c237","190.188.115.65","Mozilla/5.0 (Windows NT 10.0; Win64; x64) AppleWebKit/537.36 (KHTML, like Gecko) Chrome/116.0.0.0 Safari/537.36","WebKit","Chrome","116.0.0.0","Windows","10.0","null","es-ES,es;q=0.9","true","null","tones/880hz_short.mp3","null","","","tone_number_task","0","treinta y ocho","tones/880hz_short.mp3","150","60","2","6",""
"","","","","","html-keyboard-response","75","408066","0.0-65.0-0.0","46","1","2023-10-31 22:26:52","a725c3012b74bf33a1020a98cb69c237","190.188.115.65","Mozilla/5.0 (Windows NT 10.0; Win64; x64) AppleWebKit/537.36 (KHTML, like Gecko) Chrome/116.0.0.0 Safari/537.36","WebKit","Chrome","116.0.0.0","Windows","10.0","null","es-ES,es;q=0.9","true","null","tones/880hz_short.mp3","null","","","empty_block","","treinta y ocho","","","","2","6",""
"","","","","","html-keyboard-response","76","409211","0.0-65.0-1.0","46","1","2023-10-31 22:26:52","a725c3012b74bf33a1020a98cb69c237","190.188.115.65","Mozilla/5.0 (Windows NT 10.0; Win64; x64) AppleWebKit/537.36 (KHTML, like Gecko) Chrome/116.0.0.0 Safari/537.36","WebKit","Chrome","116.0.0.0","Windows","10.0","null","es-ES,es;q=0.9","true","1139","tones/880hz_short.mp3","s","","","empty_block","","treinta y ocho","","","","2","6",""
"","","","","","html-keyboard-response","77","412042","0.0-67.0","46","1","2023-10-31 22:26:52","a725c3012b74bf33a1020a98cb69c237","190.188.115.65","Mozilla/5.0 (Windows NT 10.0; Win64; x64) AppleWebKit/537.36 (KHTML, like Gecko) Chrome/116.0.0.0 Safari/537.36","WebKit","Chrome","116.0.0.0","Windows","10.0","null","es-ES,es;q=0.9","true","null","<div style=""font-size:100px;"">X</div>","null","","","fixation","","","","","","","",""
"","","","","","audio-keyboard-response","78","412197","0.0-68.0","46","1","2023-10-31 22:26:52","a725c3012b74bf33a1020a98cb69c237","190.188.115.65","Mozilla/5.0 (Windows NT 10.0; Win64; x64) AppleWebKit/537.36 (KHTML, like Gecko) Chrome/116.0.0.0 Safari/537.36","WebKit","Chrome","116.0.0.0","Windows","10.0","null","es-ES,es;q=0.9","true","null","tones/440hz_short.mp3","null","","","tone_number_task","0","cuarenta y siete","tones/440hz_short.mp3","150","60","2","7",""
"","","","","","html-keyboard-response","79","413295","0.0-71.0-0.0","46","1","2023-10-31 22:26:52","a725c3012b74bf33a1020a98cb69c237","190.188.115.65","Mozilla/5.0 (Windows NT 10.0; Win64; x64) AppleWebKit/537.36 (KHTML, like Gecko) Chrome/116.0.0.0 Safari/537.36","WebKit","Chrome","116.0.0.0","Windows","10.0","null","es-ES,es;q=0.9","true","1096","tones/440hz_short.mp3","a","","","empty_block","","cuarenta y siete","","","","2","7",""
"","","","","","html-keyboard-response","80","414499","0.0-71.0-1.0","46","1","2023-10-31 22:26:52","a725c3012b74bf33a1020a98cb69c237","190.188.115.65","Mozilla/5.0 (Windows NT 10.0; Win64; x64) AppleWebKit/537.36 (KHTML, like Gecko) Chrome/116.0.0.0 Safari/537.36","WebKit","Chrome","116.0.0.0","Windows","10.0","null","es-ES,es;q=0.9","true","null","tones/440hz_short.mp3","null","","","empty_block","","cuarenta y siete","","","","2","7",""
"","","","","","html-keyboard-response","81","417327","0.0-73.0","46","1","2023-10-31 22:26:52","a725c3012b74bf33a1020a98cb69c237","190.188.115.65","Mozilla/5.0 (Windows NT 10.0; Win64; x64) AppleWebKit/537.36 (KHTML, like Gecko) Chrome/116.0.0.0 Safari/537.36","WebKit","Chrome","116.0.0.0","Windows","10.0","null","es-ES,es;q=0.9","true","null","<div style=""font-size:100px;"">X</div>","null","","","fixation","","","","","","","",""
"","","","","","audio-keyboard-response","82","417484","0.0-74.0","46","1","2023-10-31 22:26:52","a725c3012b74bf33a1020a98cb69c237","190.188.115.65","Mozilla/5.0 (Windows NT 10.0; Win64; x64) AppleWebKit/537.36 (KHTML, like Gecko) Chrome/116.0.0.0 Safari/537.36","WebKit","Chrome","116.0.0.0","Windows","10.0","null","es-ES,es;q=0.9","true","null","tones/880hz_short.mp3","null","","","tone_number_task","0","sesenta y ocho","tones/880hz_short.mp3","150","60","2","8",""
"","","","","","html-keyboard-response","83","418690","0.0-77.0-0.0","46","1","2023-10-31 22:26:52","a725c3012b74bf33a1020a98cb69c237","190.188.115.65","Mozilla/5.0 (Windows NT 10.0; Win64; x64) AppleWebKit/537.36 (KHTML, like Gecko) Chrome/116.0.0.0 Safari/537.36","WebKit","Chrome","116.0.0.0","Windows","10.0","null","es-ES,es;q=0.9","true","null","tones/880hz_short.mp3","null","","","empty_block","","sesenta y ocho","","","","2","8",""
"","","","","","html-keyboard-response","84","419508","0.0-77.0-1.0","46","1","2023-10-31 22:26:52","a725c3012b74bf33a1020a98cb69c237","190.188.115.65","Mozilla/5.0 (Windows NT 10.0; Win64; x64) AppleWebKit/537.36 (KHTML, like Gecko) Chrome/116.0.0.0 Safari/537.36","WebKit","Chrome","116.0.0.0","Windows","10.0","null","es-ES,es;q=0.9","true","812","tones/880hz_short.mp3","s","","","empty_block","","sesenta y ocho","","","","2","8",""
"","","","","","html-keyboard-response","85","422342","0.0-79.0","46","1","2023-10-31 22:26:52","a725c3012b74bf33a1020a98cb69c237","190.188.115.65","Mozilla/5.0 (Windows NT 10.0; Win64; x64) AppleWebKit/537.36 (KHTML, like Gecko) Chrome/116.0.0.0 Safari/537.36","WebKit","Chrome","116.0.0.0","Windows","10.0","null","es-ES,es;q=0.9","true","null","<div style=""font-size:100px;"">X</div>","null","","","fixation","","","","","","","",""
"","","","","","audio-keyboard-response","86","423474","0.0-80.0","46","1","2023-10-31 22:26:52","a725c3012b74bf33a1020a98cb69c237","190.188.115.65","Mozilla/5.0 (Windows NT 10.0; Win64; x64) AppleWebKit/537.36 (KHTML, like Gecko) Chrome/116.0.0.0 Safari/537.36","WebKit","Chrome","116.0.0.0","Windows","10.0","null","es-ES,es;q=0.9","true","1131","tones/440hz_short.mp3","a","","","tone_number_task","1025","cuarenta y seis","tones/440hz_short.mp3","1175","60","2","9",""
"","","","","","html-keyboard-response","87","423524","0.0-82.0-0.0","46","1","2023-10-31 22:26:52","a725c3012b74bf33a1020a98cb69c237","190.188.115.65","Mozilla/5.0 (Windows NT 10.0; Win64; x64) AppleWebKit/537.36 (KHTML, like Gecko) Chrome/116.0.0.0 Safari/537.36","WebKit","Chrome","116.0.0.0","Windows","10.0","null","es-ES,es;q=0.9","true","null","<p id=""stimulus"" style=""font-size:60px;"">cuarenta y seis</p>","null","","","tone_number_task_remaining_after_delay","","cuarenta y seis","","","60","2","9",""
"","","","","","html-keyboard-response","88","424733","0.0-84.0-0.0","46","1","2023-10-31 22:26:52","a725c3012b74bf33a1020a98cb69c237","190.188.115.65","Mozilla/5.0 (Windows NT 10.0; Win64; x64) AppleWebKit/537.36 (KHTML, like Gecko) Chrome/116.0.0.0 Safari/537.36","WebKit","Chrome","116.0.0.0","Windows","10.0","null","es-ES,es;q=0.9","true","null","<p id=""stimulus"" style=""font-size:60px;"">cuarenta y seis</p>","null","","","empty_block","","cuarenta y seis","","","","2","9",""
"","","","","","html-keyboard-response","89","427562","0.0-85.0","46","1","2023-10-31 22:26:52","a725c3012b74bf33a1020a98cb69c237","190.188.115.65","Mozilla/5.0 (Windows NT 10.0; Win64; x64) AppleWebKit/537.36 (KHTML, like Gecko) Chrome/116.0.0.0 Safari/537.36","WebKit","Chrome","116.0.0.0","Windows","10.0","null","es-ES,es;q=0.9","true","null","<div style=""font-size:100px;"">X</div>","null","","","fixation","","","","","","","",""
"","","","","","audio-keyboard-response","90","428707","0.0-86.0","46","1","2023-10-31 22:26:52","a725c3012b74bf33a1020a98cb69c237","190.188.115.65","Mozilla/5.0 (Windows NT 10.0; Win64; x64) AppleWebKit/537.36 (KHTML, like Gecko) Chrome/116.0.0.0 Safari/537.36","WebKit","Chrome","116.0.0.0","Windows","10.0","null","es-ES,es;q=0.9","true","null","tones/440hz_short.mp3","null","","","tone_number_task","992.5","veintiuno","tones/440hz_short.mp3","1142.5","60","2","10",""
"","","","","","html-keyboard-response","91","428928","0.0-89.0-0.0","46","1","2023-10-31 22:26:52","a725c3012b74bf33a1020a98cb69c237","190.188.115.65","Mozilla/5.0 (Windows NT 10.0; Win64; x64) AppleWebKit/537.36 (KHTML, like Gecko) Chrome/116.0.0.0 Safari/537.36","WebKit","Chrome","116.0.0.0","Windows","10.0","null","es-ES,es;q=0.9","true","213","tones/440hz_short.mp3","a","","","empty_block","","veintiuno","","","","2","10",""
"","","","","","html-keyboard-response","92","429671","0.0-89.0-1.0","46","1","2023-10-31 22:26:52","a725c3012b74bf33a1020a98cb69c237","190.188.115.65","Mozilla/5.0 (Windows NT 10.0; Win64; x64) AppleWebKit/537.36 (KHTML, like Gecko) Chrome/116.0.0.0 Safari/537.36","WebKit","Chrome","116.0.0.0","Windows","10.0","null","es-ES,es;q=0.9","true","738","tones/440hz_short.mp3","j","","","empty_block","","veintiuno","","","","2","10",""
"","","","","","html-keyboard-response","93","432498","0.0-91.0","46","1","2023-10-31 22:26:52","a725c3012b74bf33a1020a98cb69c237","190.188.115.65","Mozilla/5.0 (Windows NT 10.0; Win64; x64) AppleWebKit/537.36 (KHTML, like Gecko) Chrome/116.0.0.0 Safari/537.36","WebKit","Chrome","116.0.0.0","Windows","10.0","null","es-ES,es;q=0.9","true","null","<div style=""font-size:100px;"">X</div>","null","","","fixation","","","","","","","",""
"","","","","","audio-keyboard-response","94","432653","0.0-92.0","46","1","2023-10-31 22:26:52","a725c3012b74bf33a1020a98cb69c237","190.188.115.65","Mozilla/5.0 (Windows NT 10.0; Win64; x64) AppleWebKit/537.36 (KHTML, like Gecko) Chrome/116.0.0.0 Safari/537.36","WebKit","Chrome","116.0.0.0","Windows","10.0","null","es-ES,es;q=0.9","true","null","tones/880hz_short.mp3","null","","","tone_number_task","0","cuarenta y tres","tones/880hz_short.mp3","150","60","2","11",""
"","","","","","html-keyboard-response","95","433859","0.0-95.0-0.0","46","1","2023-10-31 22:26:52","a725c3012b74bf33a1020a98cb69c237","190.188.115.65","Mozilla/5.0 (Windows NT 10.0; Win64; x64) AppleWebKit/537.36 (KHTML, like Gecko) Chrome/116.0.0.0 Safari/537.36","WebKit","Chrome","116.0.0.0","Windows","10.0","null","es-ES,es;q=0.9","true","null","tones/880hz_short.mp3","null","","","empty_block","","cuarenta y tres","","","","2","11",""
"","","","","","html-keyboard-response","96","434510","0.0-95.0-1.0","46","1","2023-10-31 22:26:52","a725c3012b74bf33a1020a98cb69c237","190.188.115.65","Mozilla/5.0 (Windows NT 10.0; Win64; x64) AppleWebKit/537.36 (KHTML, like Gecko) Chrome/116.0.0.0 Safari/537.36","WebKit","Chrome","116.0.0.0","Windows","10.0","null","es-ES,es;q=0.9","true","646","tones/880hz_short.mp3","s","","","empty_block","","cuarenta y tres","","","","2","11",""
"","","","","","html-keyboard-response","97","437339","0.0-97.0","46","1","2023-10-31 22:26:52","a725c3012b74bf33a1020a98cb69c237","190.188.115.65","Mozilla/5.0 (Windows NT 10.0; Win64; x64) AppleWebKit/537.36 (KHTML, like Gecko) Chrome/116.0.0.0 Safari/537.36","WebKit","Chrome","116.0.0.0","Windows","10.0","null","es-ES,es;q=0.9","true","null","<div style=""font-size:100px;"">X</div>","null","","","fixation","","","","","","","",""
"","","","","","audio-keyboard-response","98","437495","0.0-98.0","46","1","2023-10-31 22:26:52","a725c3012b74bf33a1020a98cb69c237","190.188.115.65","Mozilla/5.0 (Windows NT 10.0; Win64; x64) AppleWebKit/537.36 (KHTML, like Gecko) Chrome/116.0.0.0 Safari/537.36","WebKit","Chrome","116.0.0.0","Windows","10.0","null","es-ES,es;q=0.9","true","null","tones/440hz_short.mp3","null","","","tone_number_task","0","cuarenta y tres","tones/440hz_short.mp3","150","60","2","12",""
"","","","","","html-keyboard-response","99","438281","0.0-101.0-0.0","46","1","2023-10-31 22:26:52","a725c3012b74bf33a1020a98cb69c237","190.188.115.65","Mozilla/5.0 (Windows NT 10.0; Win64; x64) AppleWebKit/537.36 (KHTML, like Gecko) Chrome/116.0.0.0 Safari/537.36","WebKit","Chrome","116.0.0.0","Windows","10.0","null","es-ES,es;q=0.9","true","782","tones/440hz_short.mp3","a","","","empty_block","","cuarenta y tres","","","","2","12",""
"","","","","","html-keyboard-response","100","439234","0.0-101.0-1.0","46","1","2023-10-31 22:26:52","a725c3012b74bf33a1020a98cb69c237","190.188.115.65","Mozilla/5.0 (Windows NT 10.0; Win64; x64) AppleWebKit/537.36 (KHTML, like Gecko) Chrome/116.0.0.0 Safari/537.36","WebKit","Chrome","116.0.0.0","Windows","10.0","null","es-ES,es;q=0.9","true","946","tones/440hz_short.mp3","j","","","empty_block","","cuarenta y tres","","","","2","12",""
"","","","","","html-keyboard-response","101","442067","0.0-103.0","46","1","2023-10-31 22:26:52","a725c3012b74bf33a1020a98cb69c237","190.188.115.65","Mozilla/5.0 (Windows NT 10.0; Win64; x64) AppleWebKit/537.36 (KHTML, like Gecko) Chrome/116.0.0.0 Safari/537.36","WebKit","Chrome","116.0.0.0","Windows","10.0","null","es-ES,es;q=0.9","true","null","<div style=""font-size:100px;"">X</div>","null","","","fixation","","","","","","","",""
"","","","","","audio-keyboard-response","102","442325","0.0-104.0","46","1","2023-10-31 22:26:52","a725c3012b74bf33a1020a98cb69c237","190.188.115.65","Mozilla/5.0 (Windows NT 10.0; Win64; x64) AppleWebKit/537.36 (KHTML, like Gecko) Chrome/116.0.0.0 Safari/537.36","WebKit","Chrome","116.0.0.0","Windows","10.0","null","es-ES,es;q=0.9","true","null","tones/440hz_short.mp3","null","","","tone_number_task","102.5","cuarenta y dos","tones/440hz_short.mp3","252.5","60","2","13",""
"","","","","","html-keyboard-response","103","443535","0.0-107.0-0.0","46","1","2023-10-31 22:26:52","a725c3012b74bf33a1020a98cb69c237","190.188.115.65","Mozilla/5.0 (Windows NT 10.0; Win64; x64) AppleWebKit/537.36 (KHTML, like Gecko) Chrome/116.0.0.0 Safari/537.36","WebKit","Chrome","116.0.0.0","Windows","10.0","null","es-ES,es;q=0.9","true","null","tones/440hz_short.mp3","null","","","empty_block","","cuarenta y dos","","","","2","13",""
"","","","","","html-keyboard-response","104","443962","0.0-107.0-1.0","46","1","2023-10-31 22:26:52","a725c3012b74bf33a1020a98cb69c237","190.188.115.65","Mozilla/5.0 (Windows NT 10.0; Win64; x64) AppleWebKit/537.36 (KHTML, like Gecko) Chrome/116.0.0.0 Safari/537.36","WebKit","Chrome","116.0.0.0","Windows","10.0","null","es-ES,es;q=0.9","true","420","tones/440hz_short.mp3","a","","","empty_block","","cuarenta y dos","","","","2","13",""
"","","","","","html-keyboard-response","105","446794","0.0-109.0","46","1","2023-10-31 22:26:52","a725c3012b74bf33a1020a98cb69c237","190.188.115.65","Mozilla/5.0 (Windows NT 10.0; Win64; x64) AppleWebKit/537.36 (KHTML, like Gecko) Chrome/116.0.0.0 Safari/537.36","WebKit","Chrome","116.0.0.0","Windows","10.0","null","es-ES,es;q=0.9","true","null","<div style=""font-size:100px;"">X</div>","null","","","fixation","","","","","","","",""
"","","","","","audio-keyboard-response","106","447976","0.0-110.0","46","1","2023-10-31 22:26:52","a725c3012b74bf33a1020a98cb69c237","190.188.115.65","Mozilla/5.0 (Windows NT 10.0; Win64; x64) AppleWebKit/537.36 (KHTML, like Gecko) Chrome/116.0.0.0 Safari/537.36","WebKit","Chrome","116.0.0.0","Windows","10.0","null","es-ES,es;q=0.9","true","null","tones/880hz_short.mp3","null","","","tone_number_task","1025","sesenta y uno","tones/880hz_short.mp3","1175","60","2","14",""
"","","","","","html-keyboard-response","107","448340","0.0-113.0-0.0","46","1","2023-10-31 22:26:52","a725c3012b74bf33a1020a98cb69c237","190.188.115.65","Mozilla/5.0 (Windows NT 10.0; Win64; x64) AppleWebKit/537.36 (KHTML, like Gecko) Chrome/116.0.0.0 Safari/537.36","WebKit","Chrome","116.0.0.0","Windows","10.0","null","es-ES,es;q=0.9","true","360","tones/880hz_short.mp3","s","","","empty_block","","sesenta y uno","","","","2","14",""
"","","","","","html-keyboard-response","108","449551","0.0-113.0-1.0","46","1","2023-10-31 22:26:52","a725c3012b74bf33a1020a98cb69c237","190.188.115.65","Mozilla/5.0 (Windows NT 10.0; Win64; x64) AppleWebKit/537.36 (KHTML, like Gecko) Chrome/116.0.0.0 Safari/537.36","WebKit","Chrome","116.0.0.0","Windows","10.0","null","es-ES,es;q=0.9","true","null","tones/880hz_short.mp3","null","","","empty_block","","sesenta y uno","","","","2","14",""
"","","","","","html-keyboard-response","109","452384","0.0-115.0","46","1","2023-10-31 22:26:52","a725c3012b74bf33a1020a98cb69c237","190.188.115.65","Mozilla/5.0 (Windows NT 10.0; Win64; x64) AppleWebKit/537.36 (KHTML, like Gecko) Chrome/116.0.0.0 Safari/537.36","WebKit","Chrome","116.0.0.0","Windows","10.0","null","es-ES,es;q=0.9","true","null","<div style=""font-size:100px;"">X</div>","null","","","fixation","","","","","","","",""
"","","","","","audio-keyboard-response","110","452641","0.0-116.0","46","1","2023-10-31 22:26:52","a725c3012b74bf33a1020a98cb69c237","190.188.115.65","Mozilla/5.0 (Windows NT 10.0; Win64; x64) AppleWebKit/537.36 (KHTML, like Gecko) Chrome/116.0.0.0 Safari/537.36","WebKit","Chrome","116.0.0.0","Windows","10.0","null","es-ES,es;q=0.9","true","null","tones/440hz_short.mp3","null","","","tone_number_task","102.5","sesenta","tones/440hz_short.mp3","252.5","60","2","15",""
"","","","","","html-keyboard-response","111","453847","0.0-119.0-0.0","46","1","2023-10-31 22:26:52","a725c3012b74bf33a1020a98cb69c237","190.188.115.65","Mozilla/5.0 (Windows NT 10.0; Win64; x64) AppleWebKit/537.36 (KHTML, like Gecko) Chrome/116.0.0.0 Safari/537.36","WebKit","Chrome","116.0.0.0","Windows","10.0","null","es-ES,es;q=0.9","true","null","tones/440hz_short.mp3","null","","","empty_block","","sesenta","","","","2","15",""
"","","","","","html-keyboard-response","112","454948","0.0-119.0-1.0","46","1","2023-10-31 22:26:52","a725c3012b74bf33a1020a98cb69c237","190.188.115.65","Mozilla/5.0 (Windows NT 10.0; Win64; x64) AppleWebKit/537.36 (KHTML, like Gecko) Chrome/116.0.0.0 Safari/537.36","WebKit","Chrome","116.0.0.0","Windows","10.0","null","es-ES,es;q=0.9","true","1095","tones/440hz_short.mp3","a","","","empty_block","","sesenta","","","","2","15",""
"","","","","","html-keyboard-response","113","457780","0.0-121.0","46","1","2023-10-31 22:26:52","a725c3012b74bf33a1020a98cb69c237","190.188.115.65","Mozilla/5.0 (Windows NT 10.0; Win64; x64) AppleWebKit/537.36 (KHTML, like Gecko) Chrome/116.0.0.0 Safari/537.36","WebKit","Chrome","116.0.0.0","Windows","10.0","null","es-ES,es;q=0.9","true","null","<div style=""font-size:100px;"">X</div>","null","","","fixation","","","","","","","",""
"","","","","","audio-keyboard-response","114","458039","0.0-122.0","46","1","2023-10-31 22:26:52","a725c3012b74bf33a1020a98cb69c237","190.188.115.65","Mozilla/5.0 (Windows NT 10.0; Win64; x64) AppleWebKit/537.36 (KHTML, like Gecko) Chrome/116.0.0.0 Safari/537.36","WebKit","Chrome","116.0.0.0","Windows","10.0","null","es-ES,es;q=0.9","true","null","tones/440hz_short.mp3","null","","","tone_number_task","102.5","cincuenta y seis","tones/440hz_short.mp3","252.5","60","2","16",""
"","","","","","html-keyboard-response","115","459250","0.0-125.0-0.0","46","1","2023-10-31 22:26:52","a725c3012b74bf33a1020a98cb69c237","190.188.115.65","Mozilla/5.0 (Windows NT 10.0; Win64; x64) AppleWebKit/537.36 (KHTML, like Gecko) Chrome/116.0.0.0 Safari/537.36","WebKit","Chrome","116.0.0.0","Windows","10.0","null","es-ES,es;q=0.9","true","null","tones/440hz_short.mp3","null","","","empty_block","","cincuenta y seis","","","","2","16",""
"","","","","","html-keyboard-response","116","459424","0.0-125.0-1.0","46","1","2023-10-31 22:26:52","a725c3012b74bf33a1020a98cb69c237","190.188.115.65","Mozilla/5.0 (Windows NT 10.0; Win64; x64) AppleWebKit/537.36 (KHTML, like Gecko) Chrome/116.0.0.0 Safari/537.36","WebKit","Chrome","116.0.0.0","Windows","10.0","null","es-ES,es;q=0.9","true","171","tones/440hz_short.mp3","a","","","empty_block","","cincuenta y seis","","","","2","16",""
"","","","","","html-keyboard-response","117","462253","0.0-127.0","46","1","2023-10-31 22:26:52","a725c3012b74bf33a1020a98cb69c237","190.188.115.65","Mozilla/5.0 (Windows NT 10.0; Win64; x64) AppleWebKit/537.36 (KHTML, like Gecko) Chrome/116.0.0.0 Safari/537.36","WebKit","Chrome","116.0.0.0","Windows","10.0","null","es-ES,es;q=0.9","true","null","<div style=""font-size:100px;"">X</div>","null","","","fixation","","","","","","","",""
"","","","","","audio-keyboard-response","118","462413","0.0-128.0","46","1","2023-10-31 22:26:52","a725c3012b74bf33a1020a98cb69c237","190.188.115.65","Mozilla/5.0 (Windows NT 10.0; Win64; x64) AppleWebKit/537.36 (KHTML, like Gecko) Chrome/116.0.0.0 Safari/537.36","WebKit","Chrome","116.0.0.0","Windows","10.0","null","es-ES,es;q=0.9","true","null","tones/880hz_short.mp3","null","","","tone_number_task","0","treinta y dos","tones/880hz_short.mp3","150","60","2","17",""
"","","","","","html-keyboard-response","119","463626","0.0-131.0-0.0","46","1","2023-10-31 22:26:52","a725c3012b74bf33a1020a98cb69c237","190.188.115.65","Mozilla/5.0 (Windows NT 10.0; Win64; x64) AppleWebKit/537.36 (KHTML, like Gecko) Chrome/116.0.0.0 Safari/537.36","WebKit","Chrome","116.0.0.0","Windows","10.0","null","es-ES,es;q=0.9","true","null","tones/880hz_short.mp3","null","","","empty_block","","treinta y dos","","","","2","17",""
"","","","","","html-keyboard-response","120","463993","0.0-131.0-1.0","46","1","2023-10-31 22:26:52","a725c3012b74bf33a1020a98cb69c237","190.188.115.65","Mozilla/5.0 (Windows NT 10.0; Win64; x64) AppleWebKit/537.36 (KHTML, like Gecko) Chrome/116.0.0.0 Safari/537.36","WebKit","Chrome","116.0.0.0","Windows","10.0","null","es-ES,es;q=0.9","true","357","tones/880hz_short.mp3","s","","","empty_block","","treinta y dos","","","","2","17",""
"","","","","","html-keyboard-response","121","466829","0.0-133.0","46","1","2023-10-31 22:26:52","a725c3012b74bf33a1020a98cb69c237","190.188.115.65","Mozilla/5.0 (Windows NT 10.0; Win64; x64) AppleWebKit/537.36 (KHTML, like Gecko) Chrome/116.0.0.0 Safari/537.36","WebKit","Chrome","116.0.0.0","Windows","10.0","null","es-ES,es;q=0.9","true","null","<div style=""font-size:100px;"">X</div>","null","","","fixation","","","","","","","",""
"","","","","","audio-keyboard-response","122","467891","0.0-134.0","46","1","2023-10-31 22:26:52","a725c3012b74bf33a1020a98cb69c237","190.188.115.65","Mozilla/5.0 (Windows NT 10.0; Win64; x64) AppleWebKit/537.36 (KHTML, like Gecko) Chrome/116.0.0.0 Safari/537.36","WebKit","Chrome","116.0.0.0","Windows","10.0","null","es-ES,es;q=0.9","true","1061","tones/880hz_short.mp3","s","","","tone_number_task","1025","treinta y tres","tones/880hz_short.mp3","1175","60","2","18",""
"","","","","","html-keyboard-response","123","468013","0.0-136.0-0.0","46","1","2023-10-31 22:26:52","a725c3012b74bf33a1020a98cb69c237","190.188.115.65","Mozilla/5.0 (Windows NT 10.0; Win64; x64) AppleWebKit/537.36 (KHTML, like Gecko) Chrome/116.0.0.0 Safari/537.36","WebKit","Chrome","116.0.0.0","Windows","10.0","null","es-ES,es;q=0.9","true","null","<p id=""stimulus"" style=""font-size:60px;"">treinta y tres</p>","null","","","tone_number_task_remaining_after_delay","","treinta y tres","","","60","2","18",""
"","","","","","html-keyboard-response","124","469222","0.0-138.0-0.0","46","1","2023-10-31 22:26:52","a725c3012b74bf33a1020a98cb69c237","190.188.115.65","Mozilla/5.0 (Windows NT 10.0; Win64; x64) AppleWebKit/537.36 (KHTML, like Gecko) Chrome/116.0.0.0 Safari/537.36","WebKit","Chrome","116.0.0.0","Windows","10.0","null","es-ES,es;q=0.9","true","null","<p id=""stimulus"" style=""font-size:60px;"">treinta y tres</p>","null","","","empty_block","","treinta y tres","","","","2","18",""
"","","","","","html-keyboard-response","125","472057","0.0-139.0","46","1","2023-10-31 22:26:52","a725c3012b74bf33a1020a98cb69c237","190.188.115.65","Mozilla/5.0 (Windows NT 10.0; Win64; x64) AppleWebKit/537.36 (KHTML, like Gecko) Chrome/116.0.0.0 Safari/537.36","WebKit","Chrome","116.0.0.0","Windows","10.0","null","es-ES,es;q=0.9","true","null","<div style=""font-size:100px;"">X</div>","null","","","fixation","","","","","","","",""
"","","","","","audio-keyboard-response","126","473029","0.0-140.0","46","1","2023-10-31 22:26:52","a725c3012b74bf33a1020a98cb69c237","190.188.115.65","Mozilla/5.0 (Windows NT 10.0; Win64; x64) AppleWebKit/537.36 (KHTML, like Gecko) Chrome/116.0.0.0 Safari/537.36","WebKit","Chrome","116.0.0.0","Windows","10.0","null","es-ES,es;q=0.9","true","971","tones/440hz_short.mp3","a","","","tone_number_task","992.5","cincuenta y seis","tones/440hz_short.mp3","1142.5","60","2","19",""
"","","","","","html-keyboard-response","127","473056","0.0-141.0-0.0","46","1","2023-10-31 22:26:52","a725c3012b74bf33a1020a98cb69c237","190.188.115.65","Mozilla/5.0 (Windows NT 10.0; Win64; x64) AppleWebKit/537.36 (KHTML, like Gecko) Chrome/116.0.0.0 Safari/537.36","WebKit","Chrome","116.0.0.0","Windows","10.0","null","es-ES,es;q=0.9","true","null","","null","","","delay_block","","","","","","2","19",""
"","","","","","html-keyboard-response","128","473213","0.0-141.0-1.0","46","1","2023-10-31 22:26:52","a725c3012b74bf33a1020a98cb69c237","190.188.115.65","Mozilla/5.0 (Windows NT 10.0; Win64; x64) AppleWebKit/537.36 (KHTML, like Gecko) Chrome/116.0.0.0 Safari/537.36","WebKit","Chrome","116.0.0.0","Windows","10.0","null","es-ES,es;q=0.9","true","null","<p id=""stimulus"" style=""font-size:60px;"">cincuenta y seis</p>","null","","","tone_number_task_remaining_before_delay","","cincuenta y seis","","171.5","60","2","19",""
"","","","","","html-keyboard-response","129","474421","0.0-144.0-0.0","46","1","2023-10-31 22:26:52","a725c3012b74bf33a1020a98cb69c237","190.188.115.65","Mozilla/5.0 (Windows NT 10.0; Win64; x64) AppleWebKit/537.36 (KHTML, like Gecko) Chrome/116.0.0.0 Safari/537.36","WebKit","Chrome","116.0.0.0","Windows","10.0","null","es-ES,es;q=0.9","true","null","<p id=""stimulus"" style=""font-size:60px;"">cincuenta y seis</p>","null","","","empty_block","","cincuenta y seis","","","","2","19",""
"","","","","","html-keyboard-response","130","477253","0.0-145.0","46","1","2023-10-31 22:26:52","a725c3012b74bf33a1020a98cb69c237","190.188.115.65","Mozilla/5.0 (Windows NT 10.0; Win64; x64) AppleWebKit/537.36 (KHTML, like Gecko) Chrome/116.0.0.0 Safari/537.36","WebKit","Chrome","116.0.0.0","Windows","10.0","null","es-ES,es;q=0.9","true","null","<div style=""font-size:100px;"">X</div>","null","","","fixation","","","","","","","",""
"","","","","","audio-keyboard-response","131","477414","0.0-146.0","46","1","2023-10-31 22:26:52","a725c3012b74bf33a1020a98cb69c237","190.188.115.65","Mozilla/5.0 (Windows NT 10.0; Win64; x64) AppleWebKit/537.36 (KHTML, like Gecko) Chrome/116.0.0.0 Safari/537.36","WebKit","Chrome","116.0.0.0","Windows","10.0","null","es-ES,es;q=0.9","true","null","tones/880hz_short.mp3","null","","","tone_number_task","0","veintiuno","tones/880hz_short.mp3","150","60","2","20",""
"","","","","","html-keyboard-response","132","477953","0.0-149.0-0.0","46","1","2023-10-31 22:26:52","a725c3012b74bf33a1020a98cb69c237","190.188.115.65","Mozilla/5.0 (Windows NT 10.0; Win64; x64) AppleWebKit/537.36 (KHTML, like Gecko) Chrome/116.0.0.0 Safari/537.36","WebKit","Chrome","116.0.0.0","Windows","10.0","null","es-ES,es;q=0.9","true","535","tones/880hz_short.mp3","s","","","empty_block","","veintiuno","","","","2","20",""
"","","","","","html-keyboard-response","133","478388","0.0-149.0-1.0","46","1","2023-10-31 22:26:52","a725c3012b74bf33a1020a98cb69c237","190.188.115.65","Mozilla/5.0 (Windows NT 10.0; Win64; x64) AppleWebKit/537.36 (KHTML, like Gecko) Chrome/116.0.0.0 Safari/537.36","WebKit","Chrome","116.0.0.0","Windows","10.0","null","es-ES,es;q=0.9","true","424","tones/880hz_short.mp3","j","","","empty_block","","veintiuno","","","","2","20",""
"","","","","","html-keyboard-response","134","481223","0.0-151.0","46","1","2023-10-31 22:26:52","a725c3012b74bf33a1020a98cb69c237","190.188.115.65","Mozilla/5.0 (Windows NT 10.0; Win64; x64) AppleWebKit/537.36 (KHTML, like Gecko) Chrome/116.0.0.0 Safari/537.36","WebKit","Chrome","116.0.0.0","Windows","10.0","null","es-ES,es;q=0.9","true","null","<div style=""font-size:100px;"">X</div>","null","","","fixation","","","","","","","",""
"","","","","","audio-keyboard-response","135","481484","0.0-152.0","46","1","2023-10-31 22:26:52","a725c3012b74bf33a1020a98cb69c237","190.188.115.65","Mozilla/5.0 (Windows NT 10.0; Win64; x64) AppleWebKit/537.36 (KHTML, like Gecko) Chrome/116.0.0.0 Safari/537.36","WebKit","Chrome","116.0.0.0","Windows","10.0","null","es-ES,es;q=0.9","true","null","tones/440hz_short.mp3","null","","","tone_number_task","102.5","cincuenta y nueve","tones/440hz_short.mp3","252.5","60","2","21",""
"","","","","","html-keyboard-response","136","482475","0.0-155.0-0.0","46","1","2023-10-31 22:26:52","a725c3012b74bf33a1020a98cb69c237","190.188.115.65","Mozilla/5.0 (Windows NT 10.0; Win64; x64) AppleWebKit/537.36 (KHTML, like Gecko) Chrome/116.0.0.0 Safari/537.36","WebKit","Chrome","116.0.0.0","Windows","10.0","null","es-ES,es;q=0.9","true","987","tones/440hz_short.mp3","a","","","empty_block","","cincuenta y nueve","","","","2","21",""
"","","","","","html-keyboard-response","137","483287","0.0-155.0-1.0","46","1","2023-10-31 22:26:52","a725c3012b74bf33a1020a98cb69c237","190.188.115.65","Mozilla/5.0 (Windows NT 10.0; Win64; x64) AppleWebKit/537.36 (KHTML, like Gecko) Chrome/116.0.0.0 Safari/537.36","WebKit","Chrome","116.0.0.0","Windows","10.0","null","es-ES,es;q=0.9","true","801","tones/440hz_short.mp3","k","","","empty_block","","cincuenta y nueve","","","","2","21",""
"","","","","","html-keyboard-response","138","486118","0.0-157.0","46","1","2023-10-31 22:26:52","a725c3012b74bf33a1020a98cb69c237","190.188.115.65","Mozilla/5.0 (Windows NT 10.0; Win64; x64) AppleWebKit/537.36 (KHTML, like Gecko) Chrome/116.0.0.0 Safari/537.36","WebKit","Chrome","116.0.0.0","Windows","10.0","null","es-ES,es;q=0.9","true","null","<div style=""font-size:100px;"">X</div>","null","","","fixation","","","","","","","",""
"","","","","","audio-keyboard-response","139","486285","0.0-158.0","46","1","2023-10-31 22:26:52","a725c3012b74bf33a1020a98cb69c237","190.188.115.65","Mozilla/5.0 (Windows NT 10.0; Win64; x64) AppleWebKit/537.36 (KHTML, like Gecko) Chrome/116.0.0.0 Safari/537.36","WebKit","Chrome","116.0.0.0","Windows","10.0","null","es-ES,es;q=0.9","true","null","tones/880hz_short.mp3","null","","","tone_number_task","0","cincuenta y tres","tones/880hz_short.mp3","150","60","2","22",""
"","","","","","html-keyboard-response","140","487490","0.0-161.0-0.0","46","1","2023-10-31 22:26:52","a725c3012b74bf33a1020a98cb69c237","190.188.115.65","Mozilla/5.0 (Windows NT 10.0; Win64; x64) AppleWebKit/537.36 (KHTML, like Gecko) Chrome/116.0.0.0 Safari/537.36","WebKit","Chrome","116.0.0.0","Windows","10.0","null","es-ES,es;q=0.9","true","null","tones/880hz_short.mp3","null","","","empty_block","","cincuenta y tres","","","","2","22",""
"","","","","","html-keyboard-response","141","487522","0.0-161.0-1.0","46","1","2023-10-31 22:26:52","a725c3012b74bf33a1020a98cb69c237","190.188.115.65","Mozilla/5.0 (Windows NT 10.0; Win64; x64) AppleWebKit/537.36 (KHTML, like Gecko) Chrome/116.0.0.0 Safari/537.36","WebKit","Chrome","116.0.0.0","Windows","10.0","null","es-ES,es;q=0.9","true","14","tones/880hz_short.mp3","s","","","empty_block","","cincuenta y tres","","","","2","22",""
"","","","","","html-keyboard-response","142","490353","0.0-163.0","46","1","2023-10-31 22:26:52","a725c3012b74bf33a1020a98cb69c237","190.188.115.65","Mozilla/5.0 (Windows NT 10.0; Win64; x64) AppleWebKit/537.36 (KHTML, like Gecko) Chrome/116.0.0.0 Safari/537.36","WebKit","Chrome","116.0.0.0","Windows","10.0","null","es-ES,es;q=0.9","true","null","<div style=""font-size:100px;"">X</div>","null","","","fixation","","","","","","","",""
"","","","","","audio-keyboard-response","143","491542","0.0-164.0","46","1","2023-10-31 22:26:52","a725c3012b74bf33a1020a98cb69c237","190.188.115.65","Mozilla/5.0 (Windows NT 10.0; Win64; x64) AppleWebKit/537.36 (KHTML, like Gecko) Chrome/116.0.0.0 Safari/537.36","WebKit","Chrome","116.0.0.0","Windows","10.0","null","es-ES,es;q=0.9","true","null","tones/440hz_short.mp3","null","","","tone_number_task","1025","cincuenta y dos","tones/440hz_short.mp3","1175","60","2","23",""
"","","","","","html-keyboard-response","144","492122","0.0-167.0-0.0","46","1","2023-10-31 22:26:52","a725c3012b74bf33a1020a98cb69c237","190.188.115.65","Mozilla/5.0 (Windows NT 10.0; Win64; x64) AppleWebKit/537.36 (KHTML, like Gecko) Chrome/116.0.0.0 Safari/537.36","WebKit","Chrome","116.0.0.0","Windows","10.0","null","es-ES,es;q=0.9","true","572","tones/440hz_short.mp3","a","","","empty_block","","cincuenta y dos","","","","2","23",""
"","","","","","html-keyboard-response","145","493335","0.0-167.0-1.0","46","1","2023-10-31 22:26:52","a725c3012b74bf33a1020a98cb69c237","190.188.115.65","Mozilla/5.0 (Windows NT 10.0; Win64; x64) AppleWebKit/537.36 (KHTML, like Gecko) Chrome/116.0.0.0 Safari/537.36","WebKit","Chrome","116.0.0.0","Windows","10.0","null","es-ES,es;q=0.9","true","null","tones/440hz_short.mp3","null","","","empty_block","","cincuenta y dos","","","","2","23",""
"","","","","","html-keyboard-response","146","496163","0.0-169.0","46","1","2023-10-31 22:26:52","a725c3012b74bf33a1020a98cb69c237","190.188.115.65","Mozilla/5.0 (Windows NT 10.0; Win64; x64) AppleWebKit/537.36 (KHTML, like Gecko) Chrome/116.0.0.0 Safari/537.36","WebKit","Chrome","116.0.0.0","Windows","10.0","null","es-ES,es;q=0.9","true","null","<div style=""font-size:100px;"">X</div>","null","","","fixation","","","","","","","",""
"","","","","","audio-keyboard-response","147","496419","0.0-170.0","46","1","2023-10-31 22:26:52","a725c3012b74bf33a1020a98cb69c237","190.188.115.65","Mozilla/5.0 (Windows NT 10.0; Win64; x64) AppleWebKit/537.36 (KHTML, like Gecko) Chrome/116.0.0.0 Safari/537.36","WebKit","Chrome","116.0.0.0","Windows","10.0","null","es-ES,es;q=0.9","true","null","tones/880hz_short.mp3","null","","","tone_number_task","102.5","cuarenta y seis","tones/880hz_short.mp3","252.5","60","2","24",""
"","","","","","html-keyboard-response","148","497093","0.0-173.0-0.0","46","1","2023-10-31 22:26:52","a725c3012b74bf33a1020a98cb69c237","190.188.115.65","Mozilla/5.0 (Windows NT 10.0; Win64; x64) AppleWebKit/537.36 (KHTML, like Gecko) Chrome/116.0.0.0 Safari/537.36","WebKit","Chrome","116.0.0.0","Windows","10.0","null","es-ES,es;q=0.9","true","671","tones/880hz_short.mp3","s","","","empty_block","","cuarenta y seis","","","","2","24",""
"","","","","","html-keyboard-response","149","498153","0.0-173.0-1.0","46","1","2023-10-31 22:26:52","a725c3012b74bf33a1020a98cb69c237","190.188.115.65","Mozilla/5.0 (Windows NT 10.0; Win64; x64) AppleWebKit/537.36 (KHTML, like Gecko) Chrome/116.0.0.0 Safari/537.36","WebKit","Chrome","116.0.0.0","Windows","10.0","null","es-ES,es;q=0.9","true","1057","tones/880hz_short.mp3","k","","","empty_block","","cuarenta y seis","","","","2","24",""
"","","","","","html-keyboard-response","150","500981","0.0-175.0","46","1","2023-10-31 22:26:52","a725c3012b74bf33a1020a98cb69c237","190.188.115.65","Mozilla/5.0 (Windows NT 10.0; Win64; x64) AppleWebKit/537.36 (KHTML, like Gecko) Chrome/116.0.0.0 Safari/537.36","WebKit","Chrome","116.0.0.0","Windows","10.0","null","es-ES,es;q=0.9","true","null","<div style=""font-size:100px;"">X</div>","null","","","fixation","","","","","","","",""
"","","","","","audio-keyboard-response","151","501247","0.0-176.0","46","1","2023-10-31 22:26:52","a725c3012b74bf33a1020a98cb69c237","190.188.115.65","Mozilla/5.0 (Windows NT 10.0; Win64; x64) AppleWebKit/537.36 (KHTML, like Gecko) Chrome/116.0.0.0 Safari/537.36","WebKit","Chrome","116.0.0.0","Windows","10.0","null","es-ES,es;q=0.9","true","null","tones/880hz_short.mp3","null","","","tone_number_task","102.5","sesenta y siete","tones/880hz_short.mp3","252.5","60","2","25",""
"","","","","","html-keyboard-response","152","502038","0.0-179.0-0.0","46","1","2023-10-31 22:26:52","a725c3012b74bf33a1020a98cb69c237","190.188.115.65","Mozilla/5.0 (Windows NT 10.0; Win64; x64) AppleWebKit/537.36 (KHTML, like Gecko) Chrome/116.0.0.0 Safari/537.36","WebKit","Chrome","116.0.0.0","Windows","10.0","null","es-ES,es;q=0.9","true","777","tones/880hz_short.mp3","s","","","empty_block","","sesenta y siete","","","","2","25",""
"","","","","","html-keyboard-response","153","503236","0.0-179.0-1.0","46","1","2023-10-31 22:26:52","a725c3012b74bf33a1020a98cb69c237","190.188.115.65","Mozilla/5.0 (Windows NT 10.0; Win64; x64) AppleWebKit/537.36 (KHTML, like Gecko) Chrome/116.0.0.0 Safari/537.36","WebKit","Chrome","116.0.0.0","Windows","10.0","null","es-ES,es;q=0.9","true","1187","tones/880hz_short.mp3","k","","","empty_block","","sesenta y siete","","","","2","25",""
"","","","","","html-keyboard-response","154","506063","0.0-181.0","46","1","2023-10-31 22:26:52","a725c3012b74bf33a1020a98cb69c237","190.188.115.65","Mozilla/5.0 (Windows NT 10.0; Win64; x64) AppleWebKit/537.36 (KHTML, like Gecko) Chrome/116.0.0.0 Safari/537.36","WebKit","Chrome","116.0.0.0","Windows","10.0","null","es-ES,es;q=0.9","true","null","<div style=""font-size:100px;"">X</div>","null","","","fixation","","","","","","","",""
"","","","","","audio-keyboard-response","155","506319","0.0-182.0","46","1","2023-10-31 22:26:52","a725c3012b74bf33a1020a98cb69c237","190.188.115.65","Mozilla/5.0 (Windows NT 10.0; Win64; x64) AppleWebKit/537.36 (KHTML, like Gecko) Chrome/116.0.0.0 Safari/537.36","WebKit","Chrome","116.0.0.0","Windows","10.0","null","es-ES,es;q=0.9","true","null","tones/880hz_short.mp3","null","","","tone_number_task","102.5","treinta y tres","tones/880hz_short.mp3","252.5","60","2","26",""
"","","","","","html-keyboard-response","156","507012","0.0-185.0-0.0","46","1","2023-10-31 22:26:52","a725c3012b74bf33a1020a98cb69c237","190.188.115.65","Mozilla/5.0 (Windows NT 10.0; Win64; x64) AppleWebKit/537.36 (KHTML, like Gecko) Chrome/116.0.0.0 Safari/537.36","WebKit","Chrome","116.0.0.0","Windows","10.0","null","es-ES,es;q=0.9","true","689","tones/880hz_short.mp3","s","","","empty_block","","treinta y tres","","","","2","26",""
"","","","","","html-keyboard-response","157","507822","0.0-185.0-1.0","46","1","2023-10-31 22:26:52","a725c3012b74bf33a1020a98cb69c237","190.188.115.65","Mozilla/5.0 (Windows NT 10.0; Win64; x64) AppleWebKit/537.36 (KHTML, like Gecko) Chrome/116.0.0.0 Safari/537.36","WebKit","Chrome","116.0.0.0","Windows","10.0","null","es-ES,es;q=0.9","true","803","tones/880hz_short.mp3","k","","","empty_block","","treinta y tres","","","","2","26",""
"","","","","","html-keyboard-response","158","510650","0.0-187.0","46","1","2023-10-31 22:26:52","a725c3012b74bf33a1020a98cb69c237","190.188.115.65","Mozilla/5.0 (Windows NT 10.0; Win64; x64) AppleWebKit/537.36 (KHTML, like Gecko) Chrome/116.0.0.0 Safari/537.36","WebKit","Chrome","116.0.0.0","Windows","10.0","null","es-ES,es;q=0.9","true","null","<div style=""font-size:100px;"">X</div>","null","","","fixation","","","","","","","",""
"","","","","","audio-keyboard-response","159","510906","0.0-188.0","46","1","2023-10-31 22:26:52","a725c3012b74bf33a1020a98cb69c237","190.188.115.65","Mozilla/5.0 (Windows NT 10.0; Win64; x64) AppleWebKit/537.36 (KHTML, like Gecko) Chrome/116.0.0.0 Safari/537.36","WebKit","Chrome","116.0.0.0","Windows","10.0","null","es-ES,es;q=0.9","true","null","tones/880hz_short.mp3","null","","","tone_number_task","102.5","sesenta y tres","tones/880hz_short.mp3","252.5","60","2","27",""
"","","","","","html-keyboard-response","160","511590","0.0-191.0-0.0","46","1","2023-10-31 22:26:52","a725c3012b74bf33a1020a98cb69c237","190.188.115.65","Mozilla/5.0 (Windows NT 10.0; Win64; x64) AppleWebKit/537.36 (KHTML, like Gecko) Chrome/116.0.0.0 Safari/537.36","WebKit","Chrome","116.0.0.0","Windows","10.0","null","es-ES,es;q=0.9","true","668","tones/880hz_short.mp3","s","","","empty_block","","sesenta y tres","","","","2","27",""
"","","","","","html-keyboard-response","161","512799","0.0-191.0-1.0","46","1","2023-10-31 22:26:52","a725c3012b74bf33a1020a98cb69c237","190.188.115.65","Mozilla/5.0 (Windows NT 10.0; Win64; x64) AppleWebKit/537.36 (KHTML, like Gecko) Chrome/116.0.0.0 Safari/537.36","WebKit","Chrome","116.0.0.0","Windows","10.0","null","es-ES,es;q=0.9","true","null","tones/880hz_short.mp3","null","","","empty_block","","sesenta y tres","","","","2","27",""
"","","","","","html-keyboard-response","162","515628","0.0-193.0","46","1","2023-10-31 22:26:52","a725c3012b74bf33a1020a98cb69c237","190.188.115.65","Mozilla/5.0 (Windows NT 10.0; Win64; x64) AppleWebKit/537.36 (KHTML, like Gecko) Chrome/116.0.0.0 Safari/537.36","WebKit","Chrome","116.0.0.0","Windows","10.0","null","es-ES,es;q=0.9","true","null","<div style=""font-size:100px;"">X</div>","null","","","fixation","","","","","","","",""
"","","","","","audio-keyboard-response","163","516510","0.0-194.0","46","1","2023-10-31 22:26:52","a725c3012b74bf33a1020a98cb69c237","190.188.115.65","Mozilla/5.0 (Windows NT 10.0; Win64; x64) AppleWebKit/537.36 (KHTML, like Gecko) Chrome/116.0.0.0 Safari/537.36","WebKit","Chrome","116.0.0.0","Windows","10.0","null","es-ES,es;q=0.9","true","869","tones/440hz_short.mp3","a","","","tone_number_task","1025","veintiuno","tones/440hz_short.mp3","1175","60","2","28",""
"","","","","","html-keyboard-response","164","516672","0.0-195.0-0.0","46","1","2023-10-31 22:26:52","a725c3012b74bf33a1020a98cb69c237","190.188.115.65","Mozilla/5.0 (Windows NT 10.0; Win64; x64) AppleWebKit/537.36 (KHTML, like Gecko) Chrome/116.0.0.0 Safari/537.36","WebKit","Chrome","116.0.0.0","Windows","10.0","null","es-ES,es;q=0.9","true","null","","null","","","delay_block","","","","","","2","28",""
"","","","","","html-keyboard-response","165","516832","0.0-195.0-1.0","46","1","2023-10-31 22:26:52","a725c3012b74bf33a1020a98cb69c237","190.188.115.65","Mozilla/5.0 (Windows NT 10.0; Win64; x64) AppleWebKit/537.36 (KHTML, like Gecko) Chrome/116.0.0.0 Safari/537.36","WebKit","Chrome","116.0.0.0","Windows","10.0","null","es-ES,es;q=0.9","true","null","<p id=""stimulus"" style=""font-size:60px;"">veintiuno</p>","null","","","tone_number_task_remaining_before_delay","","veintiuno","","306","60","2","28",""
"","","","","","html-keyboard-response","166","517488","0.0-198.0-0.0","46","1","2023-10-31 22:26:52","a725c3012b74bf33a1020a98cb69c237","190.188.115.65","Mozilla/5.0 (Windows NT 10.0; Win64; x64) AppleWebKit/537.36 (KHTML, like Gecko) Chrome/116.0.0.0 Safari/537.36","WebKit","Chrome","116.0.0.0","Windows","10.0","null","es-ES,es;q=0.9","true","640","<p id=""stimulus"" style=""font-size:60px;"">veintiuno</p>","j","","","empty_block","","veintiuno","","","","2","28",""
"","","","","","html-keyboard-response","167","520326","0.0-199.0","46","1","2023-10-31 22:26:52","a725c3012b74bf33a1020a98cb69c237","190.188.115.65","Mozilla/5.0 (Windows NT 10.0; Win64; x64) AppleWebKit/537.36 (KHTML, like Gecko) Chrome/116.0.0.0 Safari/537.36","WebKit","Chrome","116.0.0.0","Windows","10.0","null","es-ES,es;q=0.9","true","null","<div style=""font-size:100px;"">X</div>","null","","","fixation","","","","","","","",""
"","","","","","audio-keyboard-response","168","521119","0.0-200.0","46","1","2023-10-31 22:26:52","a725c3012b74bf33a1020a98cb69c237","190.188.115.65","Mozilla/5.0 (Windows NT 10.0; Win64; x64) AppleWebKit/537.36 (KHTML, like Gecko) Chrome/116.0.0.0 Safari/537.36","WebKit","Chrome","116.0.0.0","Windows","10.0","null","es-ES,es;q=0.9","true","779","tones/880hz_short.mp3","s","","","tone_number_task","992.5","sesenta y uno","tones/880hz_short.mp3","1142.5","60","2","29",""
"","","","","","html-keyboard-response","169","521347","0.0-201.0-0.0","46","1","2023-10-31 22:26:52","a725c3012b74bf33a1020a98cb69c237","190.188.115.65","Mozilla/5.0 (Windows NT 10.0; Win64; x64) AppleWebKit/537.36 (KHTML, like Gecko) Chrome/116.0.0.0 Safari/537.36","WebKit","Chrome","116.0.0.0","Windows","10.0","null","es-ES,es;q=0.9","true","null","","null","","","delay_block","","","","","","2","29",""
"","","","","","html-keyboard-response","170","521512","0.0-201.0-1.0","46","1","2023-10-31 22:26:52","a725c3012b74bf33a1020a98cb69c237","190.188.115.65","Mozilla/5.0 (Windows NT 10.0; Win64; x64) AppleWebKit/537.36 (KHTML, like Gecko) Chrome/116.0.0.0 Safari/537.36","WebKit","Chrome","116.0.0.0","Windows","10.0","null","es-ES,es;q=0.9","true","null","<p id=""stimulus"" style=""font-size:60px;"">sesenta y uno</p>","null","","","tone_number_task_remaining_before_delay","","sesenta y uno","","363.5","60","2","29",""
"","","","","","html-keyboard-response","171","522560","0.0-204.0-0.0","46","1","2023-10-31 22:26:52","a725c3012b74bf33a1020a98cb69c237","190.188.115.65","Mozilla/5.0 (Windows NT 10.0; Win64; x64) AppleWebKit/537.36 (KHTML, like Gecko) Chrome/116.0.0.0 Safari/537.36","WebKit","Chrome","116.0.0.0","Windows","10.0","null","es-ES,es;q=0.9","true","1036","<p id=""stimulus"" style=""font-size:60px;"">sesenta y uno</p>","k","","","empty_block","","sesenta y uno","","","","2","29",""
"","","","","","html-keyboard-response","172","525391","0.0-205.0","46","1","2023-10-31 22:26:52","a725c3012b74bf33a1020a98cb69c237","190.188.115.65","Mozilla/5.0 (Windows NT 10.0; Win64; x64) AppleWebKit/537.36 (KHTML, like Gecko) Chrome/116.0.0.0 Safari/537.36","WebKit","Chrome","116.0.0.0","Windows","10.0","null","es-ES,es;q=0.9","true","null","<div style=""font-size:100px;"">X</div>","null","","","fixation","","","","","","","",""
"","","","","","audio-keyboard-response","173","525557","0.0-206.0","46","1","2023-10-31 22:26:52","a725c3012b74bf33a1020a98cb69c237","190.188.115.65","Mozilla/5.0 (Windows NT 10.0; Win64; x64) AppleWebKit/537.36 (KHTML, like Gecko) Chrome/116.0.0.0 Safari/537.36","WebKit","Chrome","116.0.0.0","Windows","10.0","null","es-ES,es;q=0.9","true","null","tones/440hz_short.mp3","null","","","tone_number_task","0","veintisiete","tones/440hz_short.mp3","150","60","2","30",""
"","","","","","html-keyboard-response","174","526195","0.0-209.0-0.0","46","1","2023-10-31 22:26:52","a725c3012b74bf33a1020a98cb69c237","190.188.115.65","Mozilla/5.0 (Windows NT 10.0; Win64; x64) AppleWebKit/537.36 (KHTML, like Gecko) Chrome/116.0.0.0 Safari/537.36","WebKit","Chrome","116.0.0.0","Windows","10.0","null","es-ES,es;q=0.9","true","625","tones/440hz_short.mp3","a","","","empty_block","","veintisiete","","","","2","30",""
"","","","","","html-keyboard-response","175","526765","0.0-209.0-1.0","46","1","2023-10-31 22:26:52","a725c3012b74bf33a1020a98cb69c237","190.188.115.65","Mozilla/5.0 (Windows NT 10.0; Win64; x64) AppleWebKit/537.36 (KHTML, like Gecko) Chrome/116.0.0.0 Safari/537.36","WebKit","Chrome","116.0.0.0","Windows","10.0","null","es-ES,es;q=0.9","true","559","tones/440hz_short.mp3","j","","","empty_block","","veintisiete","","","","2","30",""
"","","","","","html-keyboard-response","176","529603","0.0-211.0","46","1","2023-10-31 22:26:52","a725c3012b74bf33a1020a98cb69c237","190.188.115.65","Mozilla/5.0 (Windows NT 10.0; Win64; x64) AppleWebKit/537.36 (KHTML, like Gecko) Chrome/116.0.0.0 Safari/537.36","WebKit","Chrome","116.0.0.0","Windows","10.0","null","es-ES,es;q=0.9","true","null","<div style=""font-size:100px;"">X</div>","null","","","fixation","","","","","","","",""
"","","","","","audio-keyboard-response","177","530408","0.0-212.0","46","1","2023-10-31 22:26:52","a725c3012b74bf33a1020a98cb69c237","190.188.115.65","Mozilla/5.0 (Windows NT 10.0; Win64; x64) AppleWebKit/537.36 (KHTML, like Gecko) Chrome/116.0.0.0 Safari/537.36","WebKit","Chrome","116.0.0.0","Windows","10.0","null","es-ES,es;q=0.9","true","789","tones/440hz_short.mp3","a","","","tone_number_task","1025","cuarenta y siete","tones/440hz_short.mp3","1175","60","2","31",""
"","","","","","html-keyboard-response","178","530649","0.0-213.0-0.0","46","1","2023-10-31 22:26:52","a725c3012b74bf33a1020a98cb69c237","190.188.115.65","Mozilla/5.0 (Windows NT 10.0; Win64; x64) AppleWebKit/537.36 (KHTML, like Gecko) Chrome/116.0.0.0 Safari/537.36","WebKit","Chrome","116.0.0.0","Windows","10.0","null","es-ES,es;q=0.9","true","null","","null","","","delay_block","","","","","","2","31",""
"","","","","","html-keyboard-response","179","530813","0.0-213.0-1.0","46","1","2023-10-31 22:26:52","a725c3012b74bf33a1020a98cb69c237","190.188.115.65","Mozilla/5.0 (Windows NT 10.0; Win64; x64) AppleWebKit/537.36 (KHTML, like Gecko) Chrome/116.0.0.0 Safari/537.36","WebKit","Chrome","116.0.0.0","Windows","10.0","null","es-ES,es;q=0.9","true","null","<p id=""stimulus"" style=""font-size:60px;"">cuarenta y siete</p>","null","","","tone_number_task_remaining_before_delay","","cuarenta y siete","","386","60","2","31",""
"","","","","","html-keyboard-response","180","532025","0.0-216.0-0.0","46","1","2023-10-31 22:26:52","a725c3012b74bf33a1020a98cb69c237","190.188.115.65","Mozilla/5.0 (Windows NT 10.0; Win64; x64) AppleWebKit/537.36 (KHTML, like Gecko) Chrome/116.0.0.0 Safari/537.36","WebKit","Chrome","116.0.0.0","Windows","10.0","null","es-ES,es;q=0.9","true","null","<p id=""stimulus"" style=""font-size:60px;"">cuarenta y siete</p>","null","","","empty_block","","cuarenta y siete","","","","2","31",""
"","","","","","html-keyboard-response","181","534856","0.0-217.0","46","1","2023-10-31 22:26:52","a725c3012b74bf33a1020a98cb69c237","190.188.115.65","Mozilla/5.0 (Windows NT 10.0; Win64; x64) AppleWebKit/537.36 (KHTML, like Gecko) Chrome/116.0.0.0 Safari/537.36","WebKit","Chrome","116.0.0.0","Windows","10.0","null","es-ES,es;q=0.9","true","null","<div style=""font-size:100px;"">X</div>","null","","","fixation","","","","","","","",""
"","","","","","audio-keyboard-response","182","535710","0.0-218.0","46","1","2023-10-31 22:26:52","a725c3012b74bf33a1020a98cb69c237","190.188.115.65","Mozilla/5.0 (Windows NT 10.0; Win64; x64) AppleWebKit/537.36 (KHTML, like Gecko) Chrome/116.0.0.0 Safari/537.36","WebKit","Chrome","116.0.0.0","Windows","10.0","null","es-ES,es;q=0.9","true","851","tones/440hz_short.mp3","a","","","tone_number_task","992.5","cincuenta y cuatro","tones/440hz_short.mp3","1142.5","60","2","32",""
"","","","","","html-keyboard-response","183","535856","0.0-219.0-0.0","46","1","2023-10-31 22:26:52","a725c3012b74bf33a1020a98cb69c237","190.188.115.65","Mozilla/5.0 (Windows NT 10.0; Win64; x64) AppleWebKit/537.36 (KHTML, like Gecko) Chrome/116.0.0.0 Safari/537.36","WebKit","Chrome","116.0.0.0","Windows","10.0","null","es-ES,es;q=0.9","true","null","","null","","","delay_block","","","","","","2","32",""
"","","","","","html-keyboard-response","184","536021","0.0-219.0-1.0","46","1","2023-10-31 22:26:52","a725c3012b74bf33a1020a98cb69c237","190.188.115.65","Mozilla/5.0 (Windows NT 10.0; Win64; x64) AppleWebKit/537.36 (KHTML, like Gecko) Chrome/116.0.0.0 Safari/537.36","WebKit","Chrome","116.0.0.0","Windows","10.0","null","es-ES,es;q=0.9","true","null","<p id=""stimulus"" style=""font-size:60px;"">cincuenta y cuatro</p>","null","","","tone_number_task_remaining_before_delay","","cincuenta y cuatro","","291.5","60","2","32",""
"","","","","","html-keyboard-response","185","537012","0.0-222.0-0.0","46","1","2023-10-31 22:26:52","a725c3012b74bf33a1020a98cb69c237","190.188.115.65","Mozilla/5.0 (Windows NT 10.0; Win64; x64) AppleWebKit/537.36 (KHTML, like Gecko) Chrome/116.0.0.0 Safari/537.36","WebKit","Chrome","116.0.0.0","Windows","10.0","null","es-ES,es;q=0.9","true","988","<p id=""stimulus"" style=""font-size:60px;"">cincuenta y cuatro</p>","j","","","empty_block","","cincuenta y cuatro","","","","2","32",""
"","","","","","html-keyboard-response","186","539840","0.0-223.0","46","1","2023-10-31 22:26:52","a725c3012b74bf33a1020a98cb69c237","190.188.115.65","Mozilla/5.0 (Windows NT 10.0; Win64; x64) AppleWebKit/537.36 (KHTML, like Gecko) Chrome/116.0.0.0 Safari/537.36","WebKit","Chrome","116.0.0.0","Windows","10.0","null","es-ES,es;q=0.9","true","null","<div style=""font-size:100px;"">X</div>","null","","","fixation","","","","","","","",""
"","","","","","audio-keyboard-response","187","540674","0.0-224.0","46","1","2023-10-31 22:26:52","a725c3012b74bf33a1020a98cb69c237","190.188.115.65","Mozilla/5.0 (Windows NT 10.0; Win64; x64) AppleWebKit/537.36 (KHTML, like Gecko) Chrome/116.0.0.0 Safari/537.36","WebKit","Chrome","116.0.0.0","Windows","10.0","null","es-ES,es;q=0.9","true","819","tones/880hz_short.mp3","s","","","tone_number_task","992.5","cuarenta y dos","tones/880hz_short.mp3","1142.5","60","2","33",""
"","","","","","html-keyboard-response","188","540854","0.0-225.0-0.0","46","1","2023-10-31 22:26:52","a725c3012b74bf33a1020a98cb69c237","190.188.115.65","Mozilla/5.0 (Windows NT 10.0; Win64; x64) AppleWebKit/537.36 (KHTML, like Gecko) Chrome/116.0.0.0 Safari/537.36","WebKit","Chrome","116.0.0.0","Windows","10.0","null","es-ES,es;q=0.9","true","null","","null","","","delay_block","","","","","","2","33",""
"","","","","","html-keyboard-response","189","541020","0.0-225.0-1.0","46","1","2023-10-31 22:26:52","a725c3012b74bf33a1020a98cb69c237","190.188.115.65","Mozilla/5.0 (Windows NT 10.0; Win64; x64) AppleWebKit/537.36 (KHTML, like Gecko) Chrome/116.0.0.0 Safari/537.36","WebKit","Chrome","116.0.0.0","Windows","10.0","null","es-ES,es;q=0.9","true","null","<p id=""stimulus"" style=""font-size:60px;"">cuarenta y dos</p>","null","","","tone_number_task_remaining_before_delay","","cuarenta y dos","","323.5","60","2","33",""
"","","","","","html-keyboard-response","190","542234","0.0-228.0-0.0","46","1","2023-10-31 22:26:52","a725c3012b74bf33a1020a98cb69c237","190.188.115.65","Mozilla/5.0 (Windows NT 10.0; Win64; x64) AppleWebKit/537.36 (KHTML, like Gecko) Chrome/116.0.0.0 Safari/537.36","WebKit","Chrome","116.0.0.0","Windows","10.0","null","es-ES,es;q=0.9","true","null","<p id=""stimulus"" style=""font-size:60px;"">cuarenta y dos</p>","null","","","empty_block","","cuarenta y dos","","","","2","33",""
"","","","","","html-keyboard-response","191","545071","0.0-229.0","46","1","2023-10-31 22:26:52","a725c3012b74bf33a1020a98cb69c237","190.188.115.65","Mozilla/5.0 (Windows NT 10.0; Win64; x64) AppleWebKit/537.36 (KHTML, like Gecko) Chrome/116.0.0.0 Safari/537.36","WebKit","Chrome","116.0.0.0","Windows","10.0","null","es-ES,es;q=0.9","true","null","<div style=""font-size:100px;"">X</div>","null","","","fixation","","","","","","","",""
"","","","","","audio-keyboard-response","192","546251","0.0-230.0","46","1","2023-10-31 22:26:52","a725c3012b74bf33a1020a98cb69c237","190.188.115.65","Mozilla/5.0 (Windows NT 10.0; Win64; x64) AppleWebKit/537.36 (KHTML, like Gecko) Chrome/116.0.0.0 Safari/537.36","WebKit","Chrome","116.0.0.0","Windows","10.0","null","es-ES,es;q=0.9","true","null","tones/880hz_short.mp3","null","","","tone_number_task","1025","treinta y ocho","tones/880hz_short.mp3","1175","60","2","34",""
"","","","","","html-keyboard-response","193","546507","0.0-233.0-0.0","46","1","2023-10-31 22:26:52","a725c3012b74bf33a1020a98cb69c237","190.188.115.65","Mozilla/5.0 (Windows NT 10.0; Win64; x64) AppleWebKit/537.36 (KHTML, like Gecko) Chrome/116.0.0.0 Safari/537.36","WebKit","Chrome","116.0.0.0","Windows","10.0","null","es-ES,es;q=0.9","true","239","tones/880hz_short.mp3","s","","","empty_block","","treinta y ocho","","","","2","34",""
"","","","","","html-keyboard-response","194","547250","0.0-233.0-1.0","46","1","2023-10-31 22:26:52","a725c3012b74bf33a1020a98cb69c237","190.188.115.65","Mozilla/5.0 (Windows NT 10.0; Win64; x64) AppleWebKit/537.36 (KHTML, like Gecko) Chrome/116.0.0.0 Safari/537.36","WebKit","Chrome","116.0.0.0","Windows","10.0","null","es-ES,es;q=0.9","true","731","tones/880hz_short.mp3","j","","","empty_block","","treinta y ocho","","","","2","34",""
"","","","","","html-keyboard-response","195","550077","0.0-235.0","46","1","2023-10-31 22:26:52","a725c3012b74bf33a1020a98cb69c237","190.188.115.65","Mozilla/5.0 (Windows NT 10.0; Win64; x64) AppleWebKit/537.36 (KHTML, like Gecko) Chrome/116.0.0.0 Safari/537.36","WebKit","Chrome","116.0.0.0","Windows","10.0","null","es-ES,es;q=0.9","true","null","<div style=""font-size:100px;"">X</div>","null","","","fixation","","","","","","","",""
"","","","","","audio-keyboard-response","196","550866","0.0-236.0","46","1","2023-10-31 22:26:52","a725c3012b74bf33a1020a98cb69c237","190.188.115.65","Mozilla/5.0 (Windows NT 10.0; Win64; x64) AppleWebKit/537.36 (KHTML, like Gecko) Chrome/116.0.0.0 Safari/537.36","WebKit","Chrome","116.0.0.0","Windows","10.0","null","es-ES,es;q=0.9","true","768","tones/880hz_short.mp3","s","","","tone_number_task","1025","treinta y seis","tones/880hz_short.mp3","1175","60","2","35",""
"","","","","","html-keyboard-response","197","551131","0.0-237.0-0.0","46","1","2023-10-31 22:26:52","a725c3012b74bf33a1020a98cb69c237","190.188.115.65","Mozilla/5.0 (Windows NT 10.0; Win64; x64) AppleWebKit/537.36 (KHTML, like Gecko) Chrome/116.0.0.0 Safari/537.36","WebKit","Chrome","116.0.0.0","Windows","10.0","null","es-ES,es;q=0.9","true","null","","null","","","delay_block","","","","","","2","35",""
"","","","","","html-keyboard-response","198","551292","0.0-237.0-1.0","46","1","2023-10-31 22:26:52","a725c3012b74bf33a1020a98cb69c237","190.188.115.65","Mozilla/5.0 (Windows NT 10.0; Win64; x64) AppleWebKit/537.36 (KHTML, like Gecko) Chrome/116.0.0.0 Safari/537.36","WebKit","Chrome","116.0.0.0","Windows","10.0","null","es-ES,es;q=0.9","true","null","<p id=""stimulus"" style=""font-size:60px;"">treinta y seis</p>","null","","","tone_number_task_remaining_before_delay","","treinta y seis","","407","60","2","35",""
"","","","","","html-keyboard-response","199","552089","0.0-240.0-0.0","46","1","2023-10-31 22:26:52","a725c3012b74bf33a1020a98cb69c237","190.188.115.65","Mozilla/5.0 (Windows NT 10.0; Win64; x64) AppleWebKit/537.36 (KHTML, like Gecko) Chrome/116.0.0.0 Safari/537.36","WebKit","Chrome","116.0.0.0","Windows","10.0","null","es-ES,es;q=0.9","true","788","<p id=""stimulus"" style=""font-size:60px;"">treinta y seis</p>","j","","","empty_block","","treinta y seis","","","","2","35",""
"","","","","","html-keyboard-response","200","554918","0.0-241.0","46","1","2023-10-31 22:26:52","a725c3012b74bf33a1020a98cb69c237","190.188.115.65","Mozilla/5.0 (Windows NT 10.0; Win64; x64) AppleWebKit/537.36 (KHTML, like Gecko) Chrome/116.0.0.0 Safari/537.36","WebKit","Chrome","116.0.0.0","Windows","10.0","null","es-ES,es;q=0.9","true","null","<div style=""font-size:100px;"">X</div>","null","","","fixation","","","","","","","",""
"","","","","","audio-keyboard-response","201","555180","0.0-242.0","46","1","2023-10-31 22:26:52","a725c3012b74bf33a1020a98cb69c237","190.188.115.65","Mozilla/5.0 (Windows NT 10.0; Win64; x64) AppleWebKit/537.36 (KHTML, like Gecko) Chrome/116.0.0.0 Safari/537.36","WebKit","Chrome","116.0.0.0","Windows","10.0","null","es-ES,es;q=0.9","true","null","tones/440hz_short.mp3","null","","","tone_number_task","102.5","veintiseis","tones/440hz_short.mp3","252.5","60","2","36",""
"","","","","","html-keyboard-response","202","555623","0.0-245.0-0.0","46","1","2023-10-31 22:26:52","a725c3012b74bf33a1020a98cb69c237","190.188.115.65","Mozilla/5.0 (Windows NT 10.0; Win64; x64) AppleWebKit/537.36 (KHTML, like Gecko) Chrome/116.0.0.0 Safari/537.36","WebKit","Chrome","116.0.0.0","Windows","10.0","null","es-ES,es;q=0.9","true","436","tones/440hz_short.mp3","a","","","empty_block","","veintiseis","","","","2","36",""
"","","","","","html-keyboard-response","203","556257","0.0-245.0-1.0","46","1","2023-10-31 22:26:52","a725c3012b74bf33a1020a98cb69c237","190.188.115.65","Mozilla/5.0 (Windows NT 10.0; Win64; x64) AppleWebKit/537.36 (KHTML, like Gecko) Chrome/116.0.0.0 Safari/537.36","WebKit","Chrome","116.0.0.0","Windows","10.0","null","es-ES,es;q=0.9","true","630","tones/440hz_short.mp3","j","","","empty_block","","veintiseis","","","","2","36",""
"","","","","","html-keyboard-response","204","559087","0.0-247.0","46","1","2023-10-31 22:26:52","a725c3012b74bf33a1020a98cb69c237","190.188.115.65","Mozilla/5.0 (Windows NT 10.0; Win64; x64) AppleWebKit/537.36 (KHTML, like Gecko) Chrome/116.0.0.0 Safari/537.36","WebKit","Chrome","116.0.0.0","Windows","10.0","null","es-ES,es;q=0.9","true","null","<div style=""font-size:100px;"">X</div>","null","","","fixation","","","","","","","",""
"","","","","","audio-keyboard-response","205","559951","0.0-248.0","46","1","2023-10-31 22:26:52","a725c3012b74bf33a1020a98cb69c237","190.188.115.65","Mozilla/5.0 (Windows NT 10.0; Win64; x64) AppleWebKit/537.36 (KHTML, like Gecko) Chrome/116.0.0.0 Safari/537.36","WebKit","Chrome","116.0.0.0","Windows","10.0","null","es-ES,es;q=0.9","true","851","tones/440hz_short.mp3","a","","","tone_number_task","1025","sesenta y ocho","tones/440hz_short.mp3","1175","60","2","37",""
"","","","","","html-keyboard-response","206","560134","0.0-249.0-0.0","46","1","2023-10-31 22:26:52","a725c3012b74bf33a1020a98cb69c237","190.188.115.65","Mozilla/5.0 (Windows NT 10.0; Win64; x64) AppleWebKit/537.36 (KHTML, like Gecko) Chrome/116.0.0.0 Safari/537.36","WebKit","Chrome","116.0.0.0","Windows","10.0","null","es-ES,es;q=0.9","true","null","","null","","","delay_block","","","","","","2","37",""
"","","","","","html-keyboard-response","207","560303","0.0-249.0-1.0","46","1","2023-10-31 22:26:52","a725c3012b74bf33a1020a98cb69c237","190.188.115.65","Mozilla/5.0 (Windows NT 10.0; Win64; x64) AppleWebKit/537.36 (KHTML, like Gecko) Chrome/116.0.0.0 Safari/537.36","WebKit","Chrome","116.0.0.0","Windows","10.0","null","es-ES,es;q=0.9","true","null","<p id=""stimulus"" style=""font-size:60px;"">sesenta y ocho</p>","null","","","tone_number_task_remaining_before_delay","","sesenta y ocho","","324","60","2","37",""
"","","","","","html-keyboard-response","208","560960","0.0-252.0-0.0","46","1","2023-10-31 22:26:52","a725c3012b74bf33a1020a98cb69c237","190.188.115.65","Mozilla/5.0 (Windows NT 10.0; Win64; x64) AppleWebKit/537.36 (KHTML, like Gecko) Chrome/116.0.0.0 Safari/537.36","WebKit","Chrome","116.0.0.0","Windows","10.0","null","es-ES,es;q=0.9","true","644","<p id=""stimulus"" style=""font-size:60px;"">sesenta y ocho</p>","k","","","empty_block","","sesenta y ocho","","","","2","37",""
"","","","","","html-keyboard-response","209","563798","0.0-253.0","46","1","2023-10-31 22:26:52","a725c3012b74bf33a1020a98cb69c237","190.188.115.65","Mozilla/5.0 (Windows NT 10.0; Win64; x64) AppleWebKit/537.36 (KHTML, like Gecko) Chrome/116.0.0.0 Safari/537.36","WebKit","Chrome","116.0.0.0","Windows","10.0","null","es-ES,es;q=0.9","true","null","<div style=""font-size:100px;"">X</div>","null","","","fixation","","","","","","","",""
"","","","","","audio-keyboard-response","210","564637","0.0-254.0","46","1","2023-10-31 22:26:52","a725c3012b74bf33a1020a98cb69c237","190.188.115.65","Mozilla/5.0 (Windows NT 10.0; Win64; x64) AppleWebKit/537.36 (KHTML, like Gecko) Chrome/116.0.0.0 Safari/537.36","WebKit","Chrome","116.0.0.0","Windows","10.0","null","es-ES,es;q=0.9","true","819","tones/440hz_short.mp3","a","","","tone_number_task","992.5","sesenta y ocho","tones/440hz_short.mp3","1142.5","60","2","38",""
"","","","","","html-keyboard-response","211","564826","0.0-255.0-0.0","46","1","2023-10-31 22:26:52","a725c3012b74bf33a1020a98cb69c237","190.188.115.65","Mozilla/5.0 (Windows NT 10.0; Win64; x64) AppleWebKit/537.36 (KHTML, like Gecko) Chrome/116.0.0.0 Safari/537.36","WebKit","Chrome","116.0.0.0","Windows","10.0","null","es-ES,es;q=0.9","true","null","","null","","","delay_block","","","","","","2","38",""
"","","","","","html-keyboard-response","212","564990","0.0-255.0-1.0","46","1","2023-10-31 22:26:52","a725c3012b74bf33a1020a98cb69c237","190.188.115.65","Mozilla/5.0 (Windows NT 10.0; Win64; x64) AppleWebKit/537.36 (KHTML, like Gecko) Chrome/116.0.0.0 Safari/537.36","WebKit","Chrome","116.0.0.0","Windows","10.0","null","es-ES,es;q=0.9","true","null","<p id=""stimulus"" style=""font-size:60px;"">sesenta y ocho</p>","null","","","tone_number_task_remaining_before_delay","","sesenta y ocho","","323.5","60","2","38",""
"","","","","","html-keyboard-response","213","565688","0.0-258.0-0.0","46","1","2023-10-31 22:26:52","a725c3012b74bf33a1020a98cb69c237","190.188.115.65","Mozilla/5.0 (Windows NT 10.0; Win64; x64) AppleWebKit/537.36 (KHTML, like Gecko) Chrome/116.0.0.0 Safari/537.36","WebKit","Chrome","116.0.0.0","Windows","10.0","null","es-ES,es;q=0.9","true","693","<p id=""stimulus"" style=""font-size:60px;"">sesenta y ocho</p>","k","","","empty_block","","sesenta y ocho","","","","2","38",""
"","","","","","html-keyboard-response","214","568522","0.0-259.0","46","1","2023-10-31 22:26:52","a725c3012b74bf33a1020a98cb69c237","190.188.115.65","Mozilla/5.0 (Windows NT 10.0; Win64; x64) AppleWebKit/537.36 (KHTML, like Gecko) Chrome/116.0.0.0 Safari/537.36","WebKit","Chrome","116.0.0.0","Windows","10.0","null","es-ES,es;q=0.9","true","null","<div style=""font-size:100px;"">X</div>","null","","","fixation","","","","","","","",""
"","","","","","audio-keyboard-response","215","569170","0.0-260.0","46","1","2023-10-31 22:26:52","a725c3012b74bf33a1020a98cb69c237","190.188.115.65","Mozilla/5.0 (Windows NT 10.0; Win64; x64) AppleWebKit/537.36 (KHTML, like Gecko) Chrome/116.0.0.0 Safari/537.36","WebKit","Chrome","116.0.0.0","Windows","10.0","null","es-ES,es;q=0.9","true","629","tones/440hz_short.mp3","a","","","tone_number_task","1025","sesenta y cinco","tones/440hz_short.mp3","1175","60","2","39",""
"","","","","","html-keyboard-response","216","569580","0.0-261.0-0.0","46","1","2023-10-31 22:26:52","a725c3012b74bf33a1020a98cb69c237","190.188.115.65","Mozilla/5.0 (Windows NT 10.0; Win64; x64) AppleWebKit/537.36 (KHTML, like Gecko) Chrome/116.0.0.0 Safari/537.36","WebKit","Chrome","116.0.0.0","Windows","10.0","null","es-ES,es;q=0.9","true","null","","null","","","delay_block","","","","","","2","39",""
