"success","timeout","failed_images","failed_audio","failed_video","trial_type","trial_index","time_elapsed","internal_node_id","run_id","condition","recorded_at","source_code_version","ip","user_agent","device","browser","browser_version","platform","platform_version","referer","accept_language","check","rt","stimulus","response","question_order","url","task","delay","number","audioFile","trial_duration","font_size","block","round","value"
"true","false","[]","[]","[]","preload","0","209","0.0-0.0","19","1","2023-10-20 21:15:55","a725c3012b74bf33a1020a98cb69c237","190.194.167.208","Mozilla/5.0 (Windows NT 10.0; Win64; x64) AppleWebKit/537.36 (KHTML, like Gecko) Chrome/118.0.0.0 Safari/537.36","WebKit","Chrome","118.0.0.0","Windows","10.0","null","es-AR,es-US;q=0.9,es-419;q=0.8,es;q=0.7","true","","","","","","","","","","","","","",""
"true","","","","","fullscreen","1","1408406","0.0-1.0","19","1","2023-10-20 21:15:55","a725c3012b74bf33a1020a98cb69c237","190.194.167.208","Mozilla/5.0 (Windows NT 10.0; Win64; x64) AppleWebKit/537.36 (KHTML, like Gecko) Chrome/118.0.0.0 Safari/537.36","WebKit","Chrome","118.0.0.0","Windows","10.0","null","es-AR,es-US;q=0.9,es-419;q=0.8,es;q=0.7","true","","","","","","","","","","","","","",""
"","","","","","html-button-response","2","1410716","0.0-2.0","19","1","2023-10-20 21:15:55","a725c3012b74bf33a1020a98cb69c237","190.194.167.208","Mozilla/5.0 (Windows NT 10.0; Win64; x64) AppleWebKit/537.36 (KHTML, like Gecko) Chrome/118.0.0.0 Safari/537.36","WebKit","Chrome","118.0.0.0","Windows","10.0","null","es-AR,es-US;q=0.9,es-419;q=0.8,es;q=0.7","true","2307","<p style=""font-size:24px; color:red;"">Cosas importantes a tener en cuenta antes de comenzar el experimento:</p>","0","","","","","","","","","","",""
"","","","","","html-button-response","3","1415820","0.0-3.0","19","1","2023-10-20 21:15:55","a725c3012b74bf33a1020a98cb69c237","190.194.167.208","Mozilla/5.0 (Windows NT 10.0; Win64; x64) AppleWebKit/537.36 (KHTML, like Gecko) Chrome/118.0.0.0 Safari/537.36","WebKit","Chrome","118.0.0.0","Windows","10.0","null","es-AR,es-US;q=0.9,es-419;q=0.8,es;q=0.7","true","5102","<p style=""font-size:24px;"">El experimento dura aproximadamente 15 minutos.</p><p style=""font-size:24px;"">Por favor, no cierres la ventana del navegador durante el experimento.</p><p style=""font-size:24px;"">Si se completa de forma parcial, no se guardará ningún resultado.</p>","0","","","","","","","","","","",""
"","","","","","html-button-response","4","1419384","0.0-4.0","19","1","2023-10-20 21:15:55","a725c3012b74bf33a1020a98cb69c237","190.194.167.208","Mozilla/5.0 (Windows NT 10.0; Win64; x64) AppleWebKit/537.36 (KHTML, like Gecko) Chrome/118.0.0.0 Safari/537.36","WebKit","Chrome","118.0.0.0","Windows","10.0","null","es-AR,es-US;q=0.9,es-419;q=0.8,es;q=0.7","true","3562","<p style=""font-size:24px;"">El experimento contiene estímulos sonoros.</p>","0","","","","","","","","","","",""
"","","","","","audio-button-response","5","1423219","0.0-5.0-0.0","19","1","2023-10-20 21:15:55","a725c3012b74bf33a1020a98cb69c237","190.194.167.208","Mozilla/5.0 (Windows NT 10.0; Win64; x64) AppleWebKit/537.36 (KHTML, like Gecko) Chrome/118.0.0.0 Safari/537.36","WebKit","Chrome","118.0.0.0","Windows","10.0","null","es-AR,es-US;q=0.9,es-419;q=0.8,es;q=0.7","true","2931","tones/440hz_short.mp3","1","","","","","","","","","","",""
"","","","","","audio-button-response","6","1425903","0.0-6.0-0.0","19","1","2023-10-20 21:15:55","a725c3012b74bf33a1020a98cb69c237","190.194.167.208","Mozilla/5.0 (Windows NT 10.0; Win64; x64) AppleWebKit/537.36 (KHTML, like Gecko) Chrome/118.0.0.0 Safari/537.36","WebKit","Chrome","118.0.0.0","Windows","10.0","null","es-AR,es-US;q=0.9,es-419;q=0.8,es;q=0.7","true","2680","tones/880hz_short.mp3","1","","","","","","","","","","",""
"","","","","","survey-html-form","7","1429202","0.0-7.0","19","1","2023-10-20 21:15:55","a725c3012b74bf33a1020a98cb69c237","190.194.167.208","Mozilla/5.0 (Windows NT 10.0; Win64; x64) AppleWebKit/537.36 (KHTML, like Gecko) Chrome/118.0.0.0 Safari/537.36","WebKit","Chrome","118.0.0.0","Windows","10.0","null","es-AR,es-US;q=0.9,es-419;q=0.8,es;q=0.7","true","3290","","{""response"":""24""}","","","","","","","","","","",""
"","","","","","survey-multi-choice","8","1434752","0.0-8.0","19","1","2023-10-20 21:15:55","a725c3012b74bf33a1020a98cb69c237","190.194.167.208","Mozilla/5.0 (Windows NT 10.0; Win64; x64) AppleWebKit/537.36 (KHTML, like Gecko) Chrome/118.0.0.0 Safari/537.36","WebKit","Chrome","118.0.0.0","Windows","10.0","null","es-AR,es-US;q=0.9,es-419;q=0.8,es;q=0.7","true","5545","","{""gender"":""Mujer"",""hand"":""Derecha""}","[0,1]","","","","","","","","","",""
"","","","","","external-html","9","1495154","0.0-9.0","19","1","2023-10-20 21:15:55","a725c3012b74bf33a1020a98cb69c237","190.194.167.208","Mozilla/5.0 (Windows NT 10.0; Win64; x64) AppleWebKit/537.36 (KHTML, like Gecko) Chrome/118.0.0.0 Safari/537.36","WebKit","Chrome","118.0.0.0","Windows","10.0","null","es-AR,es-US;q=0.9,es-419;q=0.8,es;q=0.7","true","59929","","","","instructions/instructions.html","","","","","","","","",""
"","","","","","external-html","10","1526620","0.0-10.0","19","1","2023-10-20 21:15:55","a725c3012b74bf33a1020a98cb69c237","190.194.167.208","Mozilla/5.0 (Windows NT 10.0; Win64; x64) AppleWebKit/537.36 (KHTML, like Gecko) Chrome/118.0.0.0 Safari/537.36","WebKit","Chrome","118.0.0.0","Windows","10.0","null","es-AR,es-US;q=0.9,es-419;q=0.8,es;q=0.7","true","31130","","","","instructions/animation.html","","","","","","","","",""
"","","","","","html-keyboard-response","11","1529296","0.0-11.0-0.0","19","1","2023-10-20 21:15:55","a725c3012b74bf33a1020a98cb69c237","190.194.167.208","Mozilla/5.0 (Windows NT 10.0; Win64; x64) AppleWebKit/537.36 (KHTML, like Gecko) Chrome/118.0.0.0 Safari/537.36","WebKit","Chrome","118.0.0.0","Windows","10.0","null","es-AR,es-US;q=0.9,es-419;q=0.8,es;q=0.7","true","null","<div style=""font-size:100px;"">X</div>","null","","","fixation","","","","","","","",""
"","","","","","audio-keyboard-response","12","1530451","0.0-11.0-1.0","19","1","2023-10-20 21:15:55","a725c3012b74bf33a1020a98cb69c237","190.194.167.208","Mozilla/5.0 (Windows NT 10.0; Win64; x64) AppleWebKit/537.36 (KHTML, like Gecko) Chrome/118.0.0.0 Safari/537.36","WebKit","Chrome","118.0.0.0","Windows","10.0","null","es-AR,es-US;q=0.9,es-419;q=0.8,es;q=0.7","true","null","tones/880hz_short.mp3","null","","","tone_number_task","1000","27","tones/880hz_short.mp3","1150","100","null","null",""
"","","","","","html-keyboard-response","13","1530910","0.0-11.0-4.0-0.0","19","1","2023-10-20 21:15:55","a725c3012b74bf33a1020a98cb69c237","190.194.167.208","Mozilla/5.0 (Windows NT 10.0; Win64; x64) AppleWebKit/537.36 (KHTML, like Gecko) Chrome/118.0.0.0 Safari/537.36","WebKit","Chrome","118.0.0.0","Windows","10.0","null","es-AR,es-US;q=0.9,es-419;q=0.8,es;q=0.7","true","456","tones/880hz_short.mp3","s","","","empty_block","","27","","","","null","null",""
"","","","","","html-keyboard-response","14","1531483","0.0-11.0-4.0-1.0","19","1","2023-10-20 21:15:55","a725c3012b74bf33a1020a98cb69c237","190.194.167.208","Mozilla/5.0 (Windows NT 10.0; Win64; x64) AppleWebKit/537.36 (KHTML, like Gecko) Chrome/118.0.0.0 Safari/537.36","WebKit","Chrome","118.0.0.0","Windows","10.0","null","es-AR,es-US;q=0.9,es-419;q=0.8,es;q=0.7","true","571","tones/880hz_short.mp3","j","","","empty_block","","27","","","","null","null",""
"","","","","","html-keyboard-response","15","1534157","0.0-13.0-0.0","19","1","2023-10-20 21:15:55","a725c3012b74bf33a1020a98cb69c237","190.194.167.208","Mozilla/5.0 (Windows NT 10.0; Win64; x64) AppleWebKit/537.36 (KHTML, like Gecko) Chrome/118.0.0.0 Safari/537.36","WebKit","Chrome","118.0.0.0","Windows","10.0","null","es-AR,es-US;q=0.9,es-419;q=0.8,es;q=0.7","true","null","<div style=""font-size:100px;"">X</div>","null","","","fixation","","","","","","","",""
"","","","","","audio-keyboard-response","16","1534726","0.0-13.0-1.0","19","1","2023-10-20 21:15:55","a725c3012b74bf33a1020a98cb69c237","190.194.167.208","Mozilla/5.0 (Windows NT 10.0; Win64; x64) AppleWebKit/537.36 (KHTML, like Gecko) Chrome/118.0.0.0 Safari/537.36","WebKit","Chrome","118.0.0.0","Windows","10.0","null","es-AR,es-US;q=0.9,es-419;q=0.8,es;q=0.7","true","560","tones/880hz_short.mp3","s","","","tone_number_task","500","34","tones/880hz_short.mp3","650","100","null","null",""
"","","","","","html-keyboard-response","17","1534818","0.0-13.0-3.0-0.0","19","1","2023-10-20 21:15:55","a725c3012b74bf33a1020a98cb69c237","190.194.167.208","Mozilla/5.0 (Windows NT 10.0; Win64; x64) AppleWebKit/537.36 (KHTML, like Gecko) Chrome/118.0.0.0 Safari/537.36","WebKit","Chrome","118.0.0.0","Windows","10.0","null","es-AR,es-US;q=0.9,es-419;q=0.8,es;q=0.7","true","null","<p id=""stimulus"" style=""font-size:100px;"">34</p>","null","","","tone_number_task_remaining_after_delay","","34","","","100","null","null",""
"","","","","","html-keyboard-response","18","1535847","0.0-13.0-5.0-0.0","19","1","2023-10-20 21:15:55","a725c3012b74bf33a1020a98cb69c237","190.194.167.208","Mozilla/5.0 (Windows NT 10.0; Win64; x64) AppleWebKit/537.36 (KHTML, like Gecko) Chrome/118.0.0.0 Safari/537.36","WebKit","Chrome","118.0.0.0","Windows","10.0","null","es-AR,es-US;q=0.9,es-419;q=0.8,es;q=0.7","true","1027","<p id=""stimulus"" style=""font-size:100px;"">34</p>","j","","","empty_block","","34","","","","null","null",""
"","","","","","html-keyboard-response","19","1538519","0.0-15.0-0.0","19","1","2023-10-20 21:15:55","a725c3012b74bf33a1020a98cb69c237","190.194.167.208","Mozilla/5.0 (Windows NT 10.0; Win64; x64) AppleWebKit/537.36 (KHTML, like Gecko) Chrome/118.0.0.0 Safari/537.36","WebKit","Chrome","118.0.0.0","Windows","10.0","null","es-AR,es-US;q=0.9,es-419;q=0.8,es;q=0.7","true","null","<div style=""font-size:100px;"">X</div>","null","","","fixation","","","","","","","",""
"","","","","","audio-keyboard-response","20","1538823","0.0-15.0-1.0","19","1","2023-10-20 21:15:55","a725c3012b74bf33a1020a98cb69c237","190.194.167.208","Mozilla/5.0 (Windows NT 10.0; Win64; x64) AppleWebKit/537.36 (KHTML, like Gecko) Chrome/118.0.0.0 Safari/537.36","WebKit","Chrome","118.0.0.0","Windows","10.0","null","es-AR,es-US;q=0.9,es-419;q=0.8,es;q=0.7","true","null","tones/440hz_short.mp3","null","","","tone_number_task","150","28","tones/440hz_short.mp3","300","100","null","null",""
"","","","","","html-keyboard-response","21","1539190","0.0-15.0-4.0-0.0","19","1","2023-10-20 21:15:55","a725c3012b74bf33a1020a98cb69c237","190.194.167.208","Mozilla/5.0 (Windows NT 10.0; Win64; x64) AppleWebKit/537.36 (KHTML, like Gecko) Chrome/118.0.0.0 Safari/537.36","WebKit","Chrome","118.0.0.0","Windows","10.0","null","es-AR,es-US;q=0.9,es-419;q=0.8,es;q=0.7","true","365","tones/440hz_short.mp3","a","","","empty_block","","28","","","","null","null",""
"","","","","","html-keyboard-response","22","1539659","0.0-15.0-4.0-1.0","19","1","2023-10-20 21:15:55","a725c3012b74bf33a1020a98cb69c237","190.194.167.208","Mozilla/5.0 (Windows NT 10.0; Win64; x64) AppleWebKit/537.36 (KHTML, like Gecko) Chrome/118.0.0.0 Safari/537.36","WebKit","Chrome","118.0.0.0","Windows","10.0","null","es-AR,es-US;q=0.9,es-419;q=0.8,es;q=0.7","true","467","tones/440hz_short.mp3","j","","","empty_block","","28","","","","null","null",""
"","","","","","html-keyboard-response","23","1542332","0.0-17.0-0.0","19","1","2023-10-20 21:15:55","a725c3012b74bf33a1020a98cb69c237","190.194.167.208","Mozilla/5.0 (Windows NT 10.0; Win64; x64) AppleWebKit/537.36 (KHTML, like Gecko) Chrome/118.0.0.0 Safari/537.36","WebKit","Chrome","118.0.0.0","Windows","10.0","null","es-AR,es-US;q=0.9,es-419;q=0.8,es;q=0.7","true","null","<div style=""font-size:100px;"">X</div>","null","","","fixation","","","","","","","",""
"","","","","","audio-keyboard-response","24","1542535","0.0-17.0-1.0","19","1","2023-10-20 21:15:55","a725c3012b74bf33a1020a98cb69c237","190.194.167.208","Mozilla/5.0 (Windows NT 10.0; Win64; x64) AppleWebKit/537.36 (KHTML, like Gecko) Chrome/118.0.0.0 Safari/537.36","WebKit","Chrome","118.0.0.0","Windows","10.0","null","es-AR,es-US;q=0.9,es-419;q=0.8,es;q=0.7","true","null","tones/440hz_short.mp3","null","","","tone_number_task","50","49","tones/440hz_short.mp3","200","100","null","null",""
"","","","","","html-keyboard-response","25","1543923","0.0-17.0-4.0-0.0","19","1","2023-10-20 21:15:55","a725c3012b74bf33a1020a98cb69c237","190.194.167.208","Mozilla/5.0 (Windows NT 10.0; Win64; x64) AppleWebKit/537.36 (KHTML, like Gecko) Chrome/118.0.0.0 Safari/537.36","WebKit","Chrome","118.0.0.0","Windows","10.0","null","es-AR,es-US;q=0.9,es-419;q=0.8,es;q=0.7","true","1386","tones/440hz_short.mp3","a","","","empty_block","","49","","","","null","null",""
"","","","","","html-keyboard-response","26","1544288","0.0-17.0-4.0-1.0","19","1","2023-10-20 21:15:55","a725c3012b74bf33a1020a98cb69c237","190.194.167.208","Mozilla/5.0 (Windows NT 10.0; Win64; x64) AppleWebKit/537.36 (KHTML, like Gecko) Chrome/118.0.0.0 Safari/537.36","WebKit","Chrome","118.0.0.0","Windows","10.0","null","es-AR,es-US;q=0.9,es-419;q=0.8,es;q=0.7","true","363","tones/440hz_short.mp3","k","","","empty_block","","49","","","","null","null",""
"","","","","","html-button-response","27","1549632","0.0-19.0","19","1","2023-10-20 21:15:55","a725c3012b74bf33a1020a98cb69c237","190.194.167.208","Mozilla/5.0 (Windows NT 10.0; Win64; x64) AppleWebKit/537.36 (KHTML, like Gecko) Chrome/118.0.0.0 Safari/537.36","WebKit","Chrome","118.0.0.0","Windows","10.0","null","es-AR,es-US;q=0.9,es-419;q=0.8,es;q=0.7","true","5341","
  <h1> Muy bien </h1>
  <p> Ahora, en vez de ser presentados en dígitos, los números vendrán escritos en palabras. </p>
  <p> Por ejemplo, en vez de 44 te aparecerá ""cuarenta y cuatro"". </p>
  ","0","","","","","","","","","","",""
"","","","","","html-keyboard-response","28","1552307","0.0-20.0-0.0","19","1","2023-10-20 21:15:55","a725c3012b74bf33a1020a98cb69c237","190.194.167.208","Mozilla/5.0 (Windows NT 10.0; Win64; x64) AppleWebKit/537.36 (KHTML, like Gecko) Chrome/118.0.0.0 Safari/537.36","WebKit","Chrome","118.0.0.0","Windows","10.0","null","es-AR,es-US;q=0.9,es-419;q=0.8,es;q=0.7","true","null","<div style=""font-size:100px;"">X</div>","null","","","fixation","","","","","","","",""
"","","","","","audio-keyboard-response","29","1552823","0.0-20.0-1.0","19","1","2023-10-20 21:15:55","a725c3012b74bf33a1020a98cb69c237","190.194.167.208","Mozilla/5.0 (Windows NT 10.0; Win64; x64) AppleWebKit/537.36 (KHTML, like Gecko) Chrome/118.0.0.0 Safari/537.36","WebKit","Chrome","118.0.0.0","Windows","10.0","null","es-AR,es-US;q=0.9,es-419;q=0.8,es;q=0.7","true","509","tones/440hz_short.mp3","a","","","tone_number_task","1000","sesenta y uno","tones/440hz_short.mp3","1150","60","null","null",""
"","","","","","html-keyboard-response","30","1553317","0.0-20.0-2.0-0.0","19","1","2023-10-20 21:15:55","a725c3012b74bf33a1020a98cb69c237","190.194.167.208","Mozilla/5.0 (Windows NT 10.0; Win64; x64) AppleWebKit/537.36 (KHTML, like Gecko) Chrome/118.0.0.0 Safari/537.36","WebKit","Chrome","118.0.0.0","Windows","10.0","null","es-AR,es-US;q=0.9,es-419;q=0.8,es;q=0.7","true","null","","null","","","delay_block","","","","","","null","null",""
"","","","","","html-keyboard-response","31","1553472","0.0-20.0-2.0-1.0","19","1","2023-10-20 21:15:55","a725c3012b74bf33a1020a98cb69c237","190.194.167.208","Mozilla/5.0 (Windows NT 10.0; Win64; x64) AppleWebKit/537.36 (KHTML, like Gecko) Chrome/118.0.0.0 Safari/537.36","WebKit","Chrome","118.0.0.0","Windows","10.0","null","es-AR,es-US;q=0.9,es-419;q=0.8,es;q=0.7","true","null","<p id=""stimulus"" style=""font-size:60px;"">sesenta y uno</p>","null","","","tone_number_task_remaining_before_delay","","sesenta y uno","","641","60","null","null",""
"","","","","","html-keyboard-response","32","1553997","0.0-20.0-5.0-0.0","19","1","2023-10-20 21:15:55","a725c3012b74bf33a1020a98cb69c237","190.194.167.208","Mozilla/5.0 (Windows NT 10.0; Win64; x64) AppleWebKit/537.36 (KHTML, like Gecko) Chrome/118.0.0.0 Safari/537.36","WebKit","Chrome","118.0.0.0","Windows","10.0","null","es-AR,es-US;q=0.9,es-419;q=0.8,es;q=0.7","true","523","<p id=""stimulus"" style=""font-size:60px;"">sesenta y uno</p>","k","","","empty_block","","sesenta y uno","","","","null","null",""
"","","","","","html-button-response","33","1565158","0.0-22.0","19","1","2023-10-20 21:15:55","a725c3012b74bf33a1020a98cb69c237","190.194.167.208","Mozilla/5.0 (Windows NT 10.0; Win64; x64) AppleWebKit/537.36 (KHTML, like Gecko) Chrome/118.0.0.0 Safari/537.36","WebKit","Chrome","118.0.0.0","Windows","10.0","null","es-AR,es-US;q=0.9,es-419;q=0.8,es;q=0.7","true","11159","
  <h1> Fin del Entrenamiento </h1>
  <p> ¡Felicitaciones, terminaste el entrenamiento! Ahora vamos a comenzar con el experimento. </p>
  <p> Es importante tener en cuenta que consta de cuatro bloques.</p>
  <p> Podés aprovechar los momentos entre bloques para tomar un breve descanso o tomar agua entre cada uno</p>
  <p> Recordá que tenés que responder lo más rápido que puedas, pero sin equivocarte. </p>
  ","0","","","","","","","","","","",""
"","","","","","external-html","34","1572233","0.0-23.0","19","1","2023-10-20 21:15:55","a725c3012b74bf33a1020a98cb69c237","190.194.167.208","Mozilla/5.0 (Windows NT 10.0; Win64; x64) AppleWebKit/537.36 (KHTML, like Gecko) Chrome/118.0.0.0 Safari/537.36","WebKit","Chrome","118.0.0.0","Windows","10.0","null","es-AR,es-US;q=0.9,es-419;q=0.8,es;q=0.7","true","6744","","","","instructions/instructions_digits_first.html","","","","","","","","",""
"","","","","","call-function","35","1572237","0.0-24.0","19","1","2023-10-20 21:15:55","a725c3012b74bf33a1020a98cb69c237","190.194.167.208","Mozilla/5.0 (Windows NT 10.0; Win64; x64) AppleWebKit/537.36 (KHTML, like Gecko) Chrome/118.0.0.0 Safari/537.36","WebKit","Chrome","118.0.0.0","Windows","10.0","null","es-AR,es-US;q=0.9,es-419;q=0.8,es;q=0.7","true","","","","","","","","","","","","","",""
"","","","","","html-keyboard-response","36","1574910","0.0-25.0","19","1","2023-10-20 21:15:55","a725c3012b74bf33a1020a98cb69c237","190.194.167.208","Mozilla/5.0 (Windows NT 10.0; Win64; x64) AppleWebKit/537.36 (KHTML, like Gecko) Chrome/118.0.0.0 Safari/537.36","WebKit","Chrome","118.0.0.0","Windows","10.0","null","es-AR,es-US;q=0.9,es-419;q=0.8,es;q=0.7","true","null","<div style=""font-size:100px;"">X</div>","null","","","fixation","","","","","","","",""
"","","","","","audio-keyboard-response","37","1575064","0.0-26.0","19","1","2023-10-20 21:15:55","a725c3012b74bf33a1020a98cb69c237","190.194.167.208","Mozilla/5.0 (Windows NT 10.0; Win64; x64) AppleWebKit/537.36 (KHTML, like Gecko) Chrome/118.0.0.0 Safari/537.36","WebKit","Chrome","118.0.0.0","Windows","10.0","null","es-AR,es-US;q=0.9,es-419;q=0.8,es;q=0.7","true","null","tones/440hz_short.mp3","null","","","tone_number_task","0","23","tones/440hz_short.mp3","150","100","0","0",""
"","","","","","html-keyboard-response","38","1575701","0.0-29.0-0.0","19","1","2023-10-20 21:15:55","a725c3012b74bf33a1020a98cb69c237","190.194.167.208","Mozilla/5.0 (Windows NT 10.0; Win64; x64) AppleWebKit/537.36 (KHTML, like Gecko) Chrome/118.0.0.0 Safari/537.36","WebKit","Chrome","118.0.0.0","Windows","10.0","null","es-AR,es-US;q=0.9,es-419;q=0.8,es;q=0.7","true","635","tones/440hz_short.mp3","a","","","empty_block","","23","","","","0","0",""
"","","","","","html-keyboard-response","39","1576001","0.0-29.0-1.0","19","1","2023-10-20 21:15:55","a725c3012b74bf33a1020a98cb69c237","190.194.167.208","Mozilla/5.0 (Windows NT 10.0; Win64; x64) AppleWebKit/537.36 (KHTML, like Gecko) Chrome/118.0.0.0 Safari/537.36","WebKit","Chrome","118.0.0.0","Windows","10.0","null","es-AR,es-US;q=0.9,es-419;q=0.8,es;q=0.7","true","298","tones/440hz_short.mp3","j","","","empty_block","","23","","","","0","0",""
"","","","","","html-keyboard-response","40","1578674","0.0-31.0","19","1","2023-10-20 21:15:55","a725c3012b74bf33a1020a98cb69c237","190.194.167.208","Mozilla/5.0 (Windows NT 10.0; Win64; x64) AppleWebKit/537.36 (KHTML, like Gecko) Chrome/118.0.0.0 Safari/537.36","WebKit","Chrome","118.0.0.0","Windows","10.0","null","es-AR,es-US;q=0.9,es-419;q=0.8,es;q=0.7","true","null","<div style=""font-size:100px;"">X</div>","null","","","fixation","","","","","","","",""
"","","","","","audio-keyboard-response","41","1578835","0.0-32.0","19","1","2023-10-20 21:15:55","a725c3012b74bf33a1020a98cb69c237","190.194.167.208","Mozilla/5.0 (Windows NT 10.0; Win64; x64) AppleWebKit/537.36 (KHTML, like Gecko) Chrome/118.0.0.0 Safari/537.36","WebKit","Chrome","118.0.0.0","Windows","10.0","null","es-AR,es-US;q=0.9,es-419;q=0.8,es;q=0.7","true","null","tones/880hz_short.mp3","null","","","tone_number_task","0","54","tones/880hz_short.mp3","150","100","0","1",""
"","","","","","html-keyboard-response","42","1579480","0.0-35.0-0.0","19","1","2023-10-20 21:15:55","a725c3012b74bf33a1020a98cb69c237","190.194.167.208","Mozilla/5.0 (Windows NT 10.0; Win64; x64) AppleWebKit/537.36 (KHTML, like Gecko) Chrome/118.0.0.0 Safari/537.36","WebKit","Chrome","118.0.0.0","Windows","10.0","null","es-AR,es-US;q=0.9,es-419;q=0.8,es;q=0.7","true","643","tones/880hz_short.mp3","s","","","empty_block","","54","","","","0","1",""
"","","","","","html-keyboard-response","43","1579754","0.0-35.0-1.0","19","1","2023-10-20 21:15:55","a725c3012b74bf33a1020a98cb69c237","190.194.167.208","Mozilla/5.0 (Windows NT 10.0; Win64; x64) AppleWebKit/537.36 (KHTML, like Gecko) Chrome/118.0.0.0 Safari/537.36","WebKit","Chrome","118.0.0.0","Windows","10.0","null","es-AR,es-US;q=0.9,es-419;q=0.8,es;q=0.7","true","271","tones/880hz_short.mp3","k","","","empty_block","","54","","","","0","1",""
"","","","","","html-keyboard-response","44","1582427","0.0-37.0","19","1","2023-10-20 21:15:55","a725c3012b74bf33a1020a98cb69c237","190.194.167.208","Mozilla/5.0 (Windows NT 10.0; Win64; x64) AppleWebKit/537.36 (KHTML, like Gecko) Chrome/118.0.0.0 Safari/537.36","WebKit","Chrome","118.0.0.0","Windows","10.0","null","es-AR,es-US;q=0.9,es-419;q=0.8,es;q=0.7","true","null","<div style=""font-size:100px;"">X</div>","null","","","fixation","","","","","","","",""
"","","","","","audio-keyboard-response","45","1583283","0.0-38.0","19","1","2023-10-20 21:15:55","a725c3012b74bf33a1020a98cb69c237","190.194.167.208","Mozilla/5.0 (Windows NT 10.0; Win64; x64) AppleWebKit/537.36 (KHTML, like Gecko) Chrome/118.0.0.0 Safari/537.36","WebKit","Chrome","118.0.0.0","Windows","10.0","null","es-AR,es-US;q=0.9,es-419;q=0.8,es;q=0.7","true","848","tones/440hz_short.mp3","a","","","tone_number_task","992.5","32","tones/440hz_short.mp3","1142.5","100","0","2",""
"","","","","","html-keyboard-response","46","1583437","0.0-39.0-0.0","19","1","2023-10-20 21:15:55","a725c3012b74bf33a1020a98cb69c237","190.194.167.208","Mozilla/5.0 (Windows NT 10.0; Win64; x64) AppleWebKit/537.36 (KHTML, like Gecko) Chrome/118.0.0.0 Safari/537.36","WebKit","Chrome","118.0.0.0","Windows","10.0","null","es-AR,es-US;q=0.9,es-419;q=0.8,es;q=0.7","true","null","","null","","","delay_block","","","","","","0","2",""
"","","","","","html-keyboard-response","47","1583590","0.0-39.0-1.0","19","1","2023-10-20 21:15:55","a725c3012b74bf33a1020a98cb69c237","190.194.167.208","Mozilla/5.0 (Windows NT 10.0; Win64; x64) AppleWebKit/537.36 (KHTML, like Gecko) Chrome/118.0.0.0 Safari/537.36","WebKit","Chrome","118.0.0.0","Windows","10.0","null","es-AR,es-US;q=0.9,es-419;q=0.8,es;q=0.7","true","null","<p id=""stimulus"" style=""font-size:100px;"">32</p>","null","","","tone_number_task_remaining_before_delay","","32","","294.5","100","0","2",""
"","","","","","html-keyboard-response","48","1584036","0.0-42.0-0.0","19","1","2023-10-20 21:15:55","a725c3012b74bf33a1020a98cb69c237","190.194.167.208","Mozilla/5.0 (Windows NT 10.0; Win64; x64) AppleWebKit/537.36 (KHTML, like Gecko) Chrome/118.0.0.0 Safari/537.36","WebKit","Chrome","118.0.0.0","Windows","10.0","null","es-AR,es-US;q=0.9,es-419;q=0.8,es;q=0.7","true","444","<p id=""stimulus"" style=""font-size:100px;"">32</p>","j","","","empty_block","","32","","","","0","2",""
"","","","","","html-keyboard-response","49","1586709","0.0-43.0","19","1","2023-10-20 21:15:55","a725c3012b74bf33a1020a98cb69c237","190.194.167.208","Mozilla/5.0 (Windows NT 10.0; Win64; x64) AppleWebKit/537.36 (KHTML, like Gecko) Chrome/118.0.0.0 Safari/537.36","WebKit","Chrome","118.0.0.0","Windows","10.0","null","es-AR,es-US;q=0.9,es-419;q=0.8,es;q=0.7","true","null","<div style=""font-size:100px;"">X</div>","null","","","fixation","","","","","","","",""
"","","","","","audio-keyboard-response","50","1587264","0.0-44.0","19","1","2023-10-20 21:15:55","a725c3012b74bf33a1020a98cb69c237","190.194.167.208","Mozilla/5.0 (Windows NT 10.0; Win64; x64) AppleWebKit/537.36 (KHTML, like Gecko) Chrome/118.0.0.0 Safari/537.36","WebKit","Chrome","118.0.0.0","Windows","10.0","null","es-AR,es-US;q=0.9,es-419;q=0.8,es;q=0.7","true","549","tones/440hz_short.mp3","a","","","tone_number_task","1025","50","tones/440hz_short.mp3","1175","100","0","3",""
"","","","","","html-keyboard-response","51","1587744","0.0-45.0-0.0","19","1","2023-10-20 21:15:55","a725c3012b74bf33a1020a98cb69c237","190.194.167.208","Mozilla/5.0 (Windows NT 10.0; Win64; x64) AppleWebKit/537.36 (KHTML, like Gecko) Chrome/118.0.0.0 Safari/537.36","WebKit","Chrome","118.0.0.0","Windows","10.0","null","es-AR,es-US;q=0.9,es-419;q=0.8,es;q=0.7","true","null","","null","","","delay_block","","","","","","0","3",""
"","","","","","html-keyboard-response","52","1587898","0.0-45.0-1.0","19","1","2023-10-20 21:15:55","a725c3012b74bf33a1020a98cb69c237","190.194.167.208","Mozilla/5.0 (Windows NT 10.0; Win64; x64) AppleWebKit/537.36 (KHTML, like Gecko) Chrome/118.0.0.0 Safari/537.36","WebKit","Chrome","118.0.0.0","Windows","10.0","null","es-AR,es-US;q=0.9,es-419;q=0.8,es;q=0.7","true","null","<p id=""stimulus"" style=""font-size:100px;"">50</p>","null","","","tone_number_task_remaining_before_delay","","50","","626","100","0","3",""
"","","","","","html-keyboard-response","53","1588732","0.0-48.0-0.0","19","1","2023-10-20 21:15:55","a725c3012b74bf33a1020a98cb69c237","190.194.167.208","Mozilla/5.0 (Windows NT 10.0; Win64; x64) AppleWebKit/537.36 (KHTML, like Gecko) Chrome/118.0.0.0 Safari/537.36","WebKit","Chrome","118.0.0.0","Windows","10.0","null","es-AR,es-US;q=0.9,es-419;q=0.8,es;q=0.7","true","832","<p id=""stimulus"" style=""font-size:100px;"">50</p>","k","","","empty_block","","50","","","","0","3",""
"","","","","","html-keyboard-response","54","1591406","0.0-49.0","19","1","2023-10-20 21:15:55","a725c3012b74bf33a1020a98cb69c237","190.194.167.208","Mozilla/5.0 (Windows NT 10.0; Win64; x64) AppleWebKit/537.36 (KHTML, like Gecko) Chrome/118.0.0.0 Safari/537.36","WebKit","Chrome","118.0.0.0","Windows","10.0","null","es-AR,es-US;q=0.9,es-419;q=0.8,es;q=0.7","true","null","<div style=""font-size:100px;"">X</div>","null","","","fixation","","","","","","","",""
"","","","","","audio-keyboard-response","55","1591662","0.0-50.0","19","1","2023-10-20 21:15:55","a725c3012b74bf33a1020a98cb69c237","190.194.167.208","Mozilla/5.0 (Windows NT 10.0; Win64; x64) AppleWebKit/537.36 (KHTML, like Gecko) Chrome/118.0.0.0 Safari/537.36","WebKit","Chrome","118.0.0.0","Windows","10.0","null","es-AR,es-US;q=0.9,es-419;q=0.8,es;q=0.7","true","null","tones/880hz_short.mp3","null","","","tone_number_task","102.5","49","tones/880hz_short.mp3","252.5","100","0","4",""
"","","","","","html-keyboard-response","56","1592201","0.0-53.0-0.0","19","1","2023-10-20 21:15:55","a725c3012b74bf33a1020a98cb69c237","190.194.167.208","Mozilla/5.0 (Windows NT 10.0; Win64; x64) AppleWebKit/537.36 (KHTML, like Gecko) Chrome/118.0.0.0 Safari/537.36","WebKit","Chrome","118.0.0.0","Windows","10.0","null","es-AR,es-US;q=0.9,es-419;q=0.8,es;q=0.7","true","536","tones/880hz_short.mp3","a","","","empty_block","","49","","","","0","4",""
"","","","","","html-keyboard-response","57","1592906","0.0-53.0-1.0","19","1","2023-10-20 21:15:55","a725c3012b74bf33a1020a98cb69c237","190.194.167.208","Mozilla/5.0 (Windows NT 10.0; Win64; x64) AppleWebKit/537.36 (KHTML, like Gecko) Chrome/118.0.0.0 Safari/537.36","WebKit","Chrome","118.0.0.0","Windows","10.0","null","es-AR,es-US;q=0.9,es-419;q=0.8,es;q=0.7","true","704","tones/880hz_short.mp3","j","","","empty_block","","49","","","","0","4",""
"","","","","","html-keyboard-response","58","1595580","0.0-55.0","19","1","2023-10-20 21:15:55","a725c3012b74bf33a1020a98cb69c237","190.194.167.208","Mozilla/5.0 (Windows NT 10.0; Win64; x64) AppleWebKit/537.36 (KHTML, like Gecko) Chrome/118.0.0.0 Safari/537.36","WebKit","Chrome","118.0.0.0","Windows","10.0","null","es-AR,es-US;q=0.9,es-419;q=0.8,es;q=0.7","true","null","<div style=""font-size:100px;"">X</div>","null","","","fixation","","","","","","","",""
"","","","","","audio-keyboard-response","59","1596410","0.0-56.0","19","1","2023-10-20 21:15:55","a725c3012b74bf33a1020a98cb69c237","190.194.167.208","Mozilla/5.0 (Windows NT 10.0; Win64; x64) AppleWebKit/537.36 (KHTML, like Gecko) Chrome/118.0.0.0 Safari/537.36","WebKit","Chrome","118.0.0.0","Windows","10.0","null","es-AR,es-US;q=0.9,es-419;q=0.8,es;q=0.7","true","829","tones/440hz_short.mp3","a","","","tone_number_task","1025","63","tones/440hz_short.mp3","1175","100","0","5",""
"","","","","","html-keyboard-response","60","1596611","0.0-57.0-0.0","19","1","2023-10-20 21:15:55","a725c3012b74bf33a1020a98cb69c237","190.194.167.208","Mozilla/5.0 (Windows NT 10.0; Win64; x64) AppleWebKit/537.36 (KHTML, like Gecko) Chrome/118.0.0.0 Safari/537.36","WebKit","Chrome","118.0.0.0","Windows","10.0","null","es-AR,es-US;q=0.9,es-419;q=0.8,es;q=0.7","true","null","","null","","","delay_block","","","","","","0","5",""
"","","","","","html-keyboard-response","61","1596765","0.0-57.0-1.0","19","1","2023-10-20 21:15:55","a725c3012b74bf33a1020a98cb69c237","190.194.167.208","Mozilla/5.0 (Windows NT 10.0; Win64; x64) AppleWebKit/537.36 (KHTML, like Gecko) Chrome/118.0.0.0 Safari/537.36","WebKit","Chrome","118.0.0.0","Windows","10.0","null","es-AR,es-US;q=0.9,es-419;q=0.8,es;q=0.7","true","null","<p id=""stimulus"" style=""font-size:100px;"">63</p>","null","","","tone_number_task_remaining_before_delay","","63","","346","100","0","5",""
"","","","","","html-keyboard-response","62","1597229","0.0-60.0-0.0","19","1","2023-10-20 21:15:55","a725c3012b74bf33a1020a98cb69c237","190.194.167.208","Mozilla/5.0 (Windows NT 10.0; Win64; x64) AppleWebKit/537.36 (KHTML, like Gecko) Chrome/118.0.0.0 Safari/537.36","WebKit","Chrome","118.0.0.0","Windows","10.0","null","es-AR,es-US;q=0.9,es-419;q=0.8,es;q=0.7","true","461","<p id=""stimulus"" style=""font-size:100px;"">63</p>","k","","","empty_block","","63","","","","0","5",""
"","","","","","html-keyboard-response","63","1599902","0.0-61.0","19","1","2023-10-20 21:15:55","a725c3012b74bf33a1020a98cb69c237","190.194.167.208","Mozilla/5.0 (Windows NT 10.0; Win64; x64) AppleWebKit/537.36 (KHTML, like Gecko) Chrome/118.0.0.0 Safari/537.36","WebKit","Chrome","118.0.0.0","Windows","10.0","null","es-AR,es-US;q=0.9,es-419;q=0.8,es;q=0.7","true","null","<div style=""font-size:100px;"">X</div>","null","","","fixation","","","","","","","",""
"","","","","","audio-keyboard-response","64","1600055","0.0-62.0","19","1","2023-10-20 21:15:55","a725c3012b74bf33a1020a98cb69c237","190.194.167.208","Mozilla/5.0 (Windows NT 10.0; Win64; x64) AppleWebKit/537.36 (KHTML, like Gecko) Chrome/118.0.0.0 Safari/537.36","WebKit","Chrome","118.0.0.0","Windows","10.0","null","es-AR,es-US;q=0.9,es-419;q=0.8,es;q=0.7","true","null","tones/880hz_short.mp3","null","","","tone_number_task","0","33","tones/880hz_short.mp3","150","100","0","6",""
"","","","","","html-keyboard-response","65","1601257","0.0-65.0-0.0","19","1","2023-10-20 21:15:55","a725c3012b74bf33a1020a98cb69c237","190.194.167.208","Mozilla/5.0 (Windows NT 10.0; Win64; x64) AppleWebKit/537.36 (KHTML, like Gecko) Chrome/118.0.0.0 Safari/537.36","WebKit","Chrome","118.0.0.0","Windows","10.0","null","es-AR,es-US;q=0.9,es-419;q=0.8,es;q=0.7","true","null","tones/880hz_short.mp3","null","","","empty_block","","33","","","","0","6",""
"","","","","","html-keyboard-response","66","1601327","0.0-65.0-1.0","19","1","2023-10-20 21:15:55","a725c3012b74bf33a1020a98cb69c237","190.194.167.208","Mozilla/5.0 (Windows NT 10.0; Win64; x64) AppleWebKit/537.36 (KHTML, like Gecko) Chrome/118.0.0.0 Safari/537.36","WebKit","Chrome","118.0.0.0","Windows","10.0","null","es-AR,es-US;q=0.9,es-419;q=0.8,es;q=0.7","true","67","tones/880hz_short.mp3","a","","","empty_block","","33","","","","0","6",""
"","","","","","html-keyboard-response","67","1604007","0.0-67.0","19","1","2023-10-20 21:15:55","a725c3012b74bf33a1020a98cb69c237","190.194.167.208","Mozilla/5.0 (Windows NT 10.0; Win64; x64) AppleWebKit/537.36 (KHTML, like Gecko) Chrome/118.0.0.0 Safari/537.36","WebKit","Chrome","118.0.0.0","Windows","10.0","null","es-AR,es-US;q=0.9,es-419;q=0.8,es;q=0.7","true","null","<div style=""font-size:100px;"">X</div>","null","","","fixation","","","","","","","",""
"","","","","","audio-keyboard-response","68","1604264","0.0-68.0","19","1","2023-10-20 21:15:55","a725c3012b74bf33a1020a98cb69c237","190.194.167.208","Mozilla/5.0 (Windows NT 10.0; Win64; x64) AppleWebKit/537.36 (KHTML, like Gecko) Chrome/118.0.0.0 Safari/537.36","WebKit","Chrome","118.0.0.0","Windows","10.0","null","es-AR,es-US;q=0.9,es-419;q=0.8,es;q=0.7","true","null","tones/880hz_short.mp3","null","","","tone_number_task","102.5","56","tones/880hz_short.mp3","252.5","100","0","7",""
"","","","","","html-keyboard-response","69","1604951","0.0-71.0-0.0","19","1","2023-10-20 21:15:55","a725c3012b74bf33a1020a98cb69c237","190.194.167.208","Mozilla/5.0 (Windows NT 10.0; Win64; x64) AppleWebKit/537.36 (KHTML, like Gecko) Chrome/118.0.0.0 Safari/537.36","WebKit","Chrome","118.0.0.0","Windows","10.0","null","es-AR,es-US;q=0.9,es-419;q=0.8,es;q=0.7","true","684","tones/880hz_short.mp3","s","","","empty_block","","56","","","","0","7",""
"","","","","","html-keyboard-response","70","1605448","0.0-71.0-1.0","19","1","2023-10-20 21:15:55","a725c3012b74bf33a1020a98cb69c237","190.194.167.208","Mozilla/5.0 (Windows NT 10.0; Win64; x64) AppleWebKit/537.36 (KHTML, like Gecko) Chrome/118.0.0.0 Safari/537.36","WebKit","Chrome","118.0.0.0","Windows","10.0","null","es-AR,es-US;q=0.9,es-419;q=0.8,es;q=0.7","true","494","tones/880hz_short.mp3","k","","","empty_block","","56","","","","0","7",""
"","","","","","html-keyboard-response","71","1608122","0.0-73.0","19","1","2023-10-20 21:15:55","a725c3012b74bf33a1020a98cb69c237","190.194.167.208","Mozilla/5.0 (Windows NT 10.0; Win64; x64) AppleWebKit/537.36 (KHTML, like Gecko) Chrome/118.0.0.0 Safari/537.36","WebKit","Chrome","118.0.0.0","Windows","10.0","null","es-AR,es-US;q=0.9,es-419;q=0.8,es;q=0.7","true","null","<div style=""font-size:100px;"">X</div>","null","","","fixation","","","","","","","",""
"","","","","","audio-keyboard-response","72","1608377","0.0-74.0","19","1","2023-10-20 21:15:55","a725c3012b74bf33a1020a98cb69c237","190.194.167.208","Mozilla/5.0 (Windows NT 10.0; Win64; x64) AppleWebKit/537.36 (KHTML, like Gecko) Chrome/118.0.0.0 Safari/537.36","WebKit","Chrome","118.0.0.0","Windows","10.0","null","es-AR,es-US;q=0.9,es-419;q=0.8,es;q=0.7","true","null","tones/440hz_short.mp3","null","","","tone_number_task","102.5","30","tones/440hz_short.mp3","252.5","100","0","8",""
"","","","","","html-keyboard-response","73","1608809","0.0-77.0-0.0","19","1","2023-10-20 21:15:55","a725c3012b74bf33a1020a98cb69c237","190.194.167.208","Mozilla/5.0 (Windows NT 10.0; Win64; x64) AppleWebKit/537.36 (KHTML, like Gecko) Chrome/118.0.0.0 Safari/537.36","WebKit","Chrome","118.0.0.0","Windows","10.0","null","es-AR,es-US;q=0.9,es-419;q=0.8,es;q=0.7","true","429","tones/440hz_short.mp3","a","","","empty_block","","30","","","","0","8",""
"","","","","","html-keyboard-response","74","1609385","0.0-77.0-1.0","19","1","2023-10-20 21:15:55","a725c3012b74bf33a1020a98cb69c237","190.194.167.208","Mozilla/5.0 (Windows NT 10.0; Win64; x64) AppleWebKit/537.36 (KHTML, like Gecko) Chrome/118.0.0.0 Safari/537.36","WebKit","Chrome","118.0.0.0","Windows","10.0","null","es-AR,es-US;q=0.9,es-419;q=0.8,es;q=0.7","true","573","tones/440hz_short.mp3","j","","","empty_block","","30","","","","0","8",""
"","","","","","html-keyboard-response","75","1612059","0.0-79.0","19","1","2023-10-20 21:15:55","a725c3012b74bf33a1020a98cb69c237","190.194.167.208","Mozilla/5.0 (Windows NT 10.0; Win64; x64) AppleWebKit/537.36 (KHTML, like Gecko) Chrome/118.0.0.0 Safari/537.36","WebKit","Chrome","118.0.0.0","Windows","10.0","null","es-AR,es-US;q=0.9,es-419;q=0.8,es;q=0.7","true","null","<div style=""font-size:100px;"">X</div>","null","","","fixation","","","","","","","",""
"","","","","","audio-keyboard-response","76","1612316","0.0-80.0","19","1","2023-10-20 21:15:55","a725c3012b74bf33a1020a98cb69c237","190.194.167.208","Mozilla/5.0 (Windows NT 10.0; Win64; x64) AppleWebKit/537.36 (KHTML, like Gecko) Chrome/118.0.0.0 Safari/537.36","WebKit","Chrome","118.0.0.0","Windows","10.0","null","es-AR,es-US;q=0.9,es-419;q=0.8,es;q=0.7","true","null","tones/440hz_short.mp3","null","","","tone_number_task","102.5","47","tones/440hz_short.mp3","252.5","100","0","9",""
"","","","","","html-keyboard-response","77","1612904","0.0-83.0-0.0","19","1","2023-10-20 21:15:55","a725c3012b74bf33a1020a98cb69c237","190.194.167.208","Mozilla/5.0 (Windows NT 10.0; Win64; x64) AppleWebKit/537.36 (KHTML, like Gecko) Chrome/118.0.0.0 Safari/537.36","WebKit","Chrome","118.0.0.0","Windows","10.0","null","es-AR,es-US;q=0.9,es-419;q=0.8,es;q=0.7","true","584","tones/440hz_short.mp3","a","","","empty_block","","47","","","","0","9",""
"","","","","","html-keyboard-response","78","1613497","0.0-83.0-1.0","19","1","2023-10-20 21:15:55","a725c3012b74bf33a1020a98cb69c237","190.194.167.208","Mozilla/5.0 (Windows NT 10.0; Win64; x64) AppleWebKit/537.36 (KHTML, like Gecko) Chrome/118.0.0.0 Safari/537.36","WebKit","Chrome","118.0.0.0","Windows","10.0","null","es-AR,es-US;q=0.9,es-419;q=0.8,es;q=0.7","true","590","tones/440hz_short.mp3","k","","","empty_block","","47","","","","0","9",""
"","","","","","html-keyboard-response","79","1616170","0.0-85.0","19","1","2023-10-20 21:15:55","a725c3012b74bf33a1020a98cb69c237","190.194.167.208","Mozilla/5.0 (Windows NT 10.0; Win64; x64) AppleWebKit/537.36 (KHTML, like Gecko) Chrome/118.0.0.0 Safari/537.36","WebKit","Chrome","118.0.0.0","Windows","10.0","null","es-AR,es-US;q=0.9,es-419;q=0.8,es;q=0.7","true","null","<div style=""font-size:100px;"">X</div>","null","","","fixation","","","","","","","",""
"","","","","","audio-keyboard-response","80","1616807","0.0-86.0","19","1","2023-10-20 21:15:55","a725c3012b74bf33a1020a98cb69c237","190.194.167.208","Mozilla/5.0 (Windows NT 10.0; Win64; x64) AppleWebKit/537.36 (KHTML, like Gecko) Chrome/118.0.0.0 Safari/537.36","WebKit","Chrome","118.0.0.0","Windows","10.0","null","es-AR,es-US;q=0.9,es-419;q=0.8,es;q=0.7","true","629","tones/880hz_short.mp3","s","","","tone_number_task","1025","59","tones/880hz_short.mp3","1175","100","0","10",""
"","","","","","html-keyboard-response","81","1617209","0.0-87.0-0.0","19","1","2023-10-20 21:15:55","a725c3012b74bf33a1020a98cb69c237","190.194.167.208","Mozilla/5.0 (Windows NT 10.0; Win64; x64) AppleWebKit/537.36 (KHTML, like Gecko) Chrome/118.0.0.0 Safari/537.36","WebKit","Chrome","118.0.0.0","Windows","10.0","null","es-AR,es-US;q=0.9,es-419;q=0.8,es;q=0.7","true","null","","null","","","delay_block","","","","","","0","10",""
"","","","","","html-keyboard-response","82","1617363","0.0-87.0-1.0","19","1","2023-10-20 21:15:55","a725c3012b74bf33a1020a98cb69c237","190.194.167.208","Mozilla/5.0 (Windows NT 10.0; Win64; x64) AppleWebKit/537.36 (KHTML, like Gecko) Chrome/118.0.0.0 Safari/537.36","WebKit","Chrome","118.0.0.0","Windows","10.0","null","es-AR,es-US;q=0.9,es-419;q=0.8,es;q=0.7","true","null","<p id=""stimulus"" style=""font-size:100px;"">59</p>","null","","","tone_number_task_remaining_before_delay","","59","","546","100","0","10",""
"","","","","","html-keyboard-response","83","1617706","0.0-90.0-0.0","19","1","2023-10-20 21:15:55","a725c3012b74bf33a1020a98cb69c237","190.194.167.208","Mozilla/5.0 (Windows NT 10.0; Win64; x64) AppleWebKit/537.36 (KHTML, like Gecko) Chrome/118.0.0.0 Safari/537.36","WebKit","Chrome","118.0.0.0","Windows","10.0","null","es-AR,es-US;q=0.9,es-419;q=0.8,es;q=0.7","true","339","<p id=""stimulus"" style=""font-size:100px;"">59</p>","k","","","empty_block","","59","","","","0","10",""
"","","","","","html-keyboard-response","84","1620380","0.0-91.0","19","1","2023-10-20 21:15:55","a725c3012b74bf33a1020a98cb69c237","190.194.167.208","Mozilla/5.0 (Windows NT 10.0; Win64; x64) AppleWebKit/537.36 (KHTML, like Gecko) Chrome/118.0.0.0 Safari/537.36","WebKit","Chrome","118.0.0.0","Windows","10.0","null","es-AR,es-US;q=0.9,es-419;q=0.8,es;q=0.7","true","null","<div style=""font-size:100px;"">X</div>","null","","","fixation","","","","","","","",""
"","","","","","audio-keyboard-response","85","1621560","0.0-92.0","19","1","2023-10-20 21:15:55","a725c3012b74bf33a1020a98cb69c237","190.194.167.208","Mozilla/5.0 (Windows NT 10.0; Win64; x64) AppleWebKit/537.36 (KHTML, like Gecko) Chrome/118.0.0.0 Safari/537.36","WebKit","Chrome","118.0.0.0","Windows","10.0","null","es-AR,es-US;q=0.9,es-419;q=0.8,es;q=0.7","true","null","tones/440hz_short.mp3","null","","","tone_number_task","1025","23","tones/440hz_short.mp3","1175","100","0","11",""
"","","","","","html-keyboard-response","86","1621776","0.0-95.0-0.0","19","1","2023-10-20 21:15:55","a725c3012b74bf33a1020a98cb69c237","190.194.167.208","Mozilla/5.0 (Windows NT 10.0; Win64; x64) AppleWebKit/537.36 (KHTML, like Gecko) Chrome/118.0.0.0 Safari/537.36","WebKit","Chrome","118.0.0.0","Windows","10.0","null","es-AR,es-US;q=0.9,es-419;q=0.8,es;q=0.7","true","212","tones/440hz_short.mp3","a","","","empty_block","","23","","","","0","11",""
"","","","","","html-keyboard-response","87","1622222","0.0-95.0-1.0","19","1","2023-10-20 21:15:55","a725c3012b74bf33a1020a98cb69c237","190.194.167.208","Mozilla/5.0 (Windows NT 10.0; Win64; x64) AppleWebKit/537.36 (KHTML, like Gecko) Chrome/118.0.0.0 Safari/537.36","WebKit","Chrome","118.0.0.0","Windows","10.0","null","es-AR,es-US;q=0.9,es-419;q=0.8,es;q=0.7","true","442","tones/440hz_short.mp3","j","","","empty_block","","23","","","","0","11",""
"","","","","","html-keyboard-response","88","1624897","0.0-97.0","19","1","2023-10-20 21:15:55","a725c3012b74bf33a1020a98cb69c237","190.194.167.208","Mozilla/5.0 (Windows NT 10.0; Win64; x64) AppleWebKit/537.36 (KHTML, like Gecko) Chrome/118.0.0.0 Safari/537.36","WebKit","Chrome","118.0.0.0","Windows","10.0","null","es-AR,es-US;q=0.9,es-419;q=0.8,es;q=0.7","true","null","<div style=""font-size:100px;"">X</div>","null","","","fixation","","","","","","","",""
"","","","","","audio-keyboard-response","89","1625579","0.0-98.0","19","1","2023-10-20 21:15:55","a725c3012b74bf33a1020a98cb69c237","190.194.167.208","Mozilla/5.0 (Windows NT 10.0; Win64; x64) AppleWebKit/537.36 (KHTML, like Gecko) Chrome/118.0.0.0 Safari/537.36","WebKit","Chrome","118.0.0.0","Windows","10.0","null","es-AR,es-US;q=0.9,es-419;q=0.8,es;q=0.7","true","680","tones/880hz_short.mp3","s","","","tone_number_task","1025","23","tones/880hz_short.mp3","1175","100","0","12",""
"","","","","","html-keyboard-response","90","1625929","0.0-99.0-0.0","19","1","2023-10-20 21:15:55","a725c3012b74bf33a1020a98cb69c237","190.194.167.208","Mozilla/5.0 (Windows NT 10.0; Win64; x64) AppleWebKit/537.36 (KHTML, like Gecko) Chrome/118.0.0.0 Safari/537.36","WebKit","Chrome","118.0.0.0","Windows","10.0","null","es-AR,es-US;q=0.9,es-419;q=0.8,es;q=0.7","true","null","","null","","","delay_block","","","","","","0","12",""
"","","","","","html-keyboard-response","91","1626084","0.0-99.0-1.0","19","1","2023-10-20 21:15:55","a725c3012b74bf33a1020a98cb69c237","190.194.167.208","Mozilla/5.0 (Windows NT 10.0; Win64; x64) AppleWebKit/537.36 (KHTML, like Gecko) Chrome/118.0.0.0 Safari/537.36","WebKit","Chrome","118.0.0.0","Windows","10.0","null","es-AR,es-US;q=0.9,es-419;q=0.8,es;q=0.7","true","null","<p id=""stimulus"" style=""font-size:100px;"">23</p>","null","","","tone_number_task_remaining_before_delay","","23","","495","100","0","12",""
"","","","","","html-keyboard-response","92","1626373","0.0-102.0-0.0","19","1","2023-10-20 21:15:55","a725c3012b74bf33a1020a98cb69c237","190.194.167.208","Mozilla/5.0 (Windows NT 10.0; Win64; x64) AppleWebKit/537.36 (KHTML, like Gecko) Chrome/118.0.0.0 Safari/537.36","WebKit","Chrome","118.0.0.0","Windows","10.0","null","es-AR,es-US;q=0.9,es-419;q=0.8,es;q=0.7","true","286","<p id=""stimulus"" style=""font-size:100px;"">23</p>","j","","","empty_block","","23","","","","0","12",""
"","","","","","html-keyboard-response","93","1629047","0.0-103.0","19","1","2023-10-20 21:15:55","a725c3012b74bf33a1020a98cb69c237","190.194.167.208","Mozilla/5.0 (Windows NT 10.0; Win64; x64) AppleWebKit/537.36 (KHTML, like Gecko) Chrome/118.0.0.0 Safari/537.36","WebKit","Chrome","118.0.0.0","Windows","10.0","null","es-AR,es-US;q=0.9,es-419;q=0.8,es;q=0.7","true","null","<div style=""font-size:100px;"">X</div>","null","","","fixation","","","","","","","",""
"","","","","","audio-keyboard-response","94","1629305","0.0-104.0","19","1","2023-10-20 21:15:55","a725c3012b74bf33a1020a98cb69c237","190.194.167.208","Mozilla/5.0 (Windows NT 10.0; Win64; x64) AppleWebKit/537.36 (KHTML, like Gecko) Chrome/118.0.0.0 Safari/537.36","WebKit","Chrome","118.0.0.0","Windows","10.0","null","es-AR,es-US;q=0.9,es-419;q=0.8,es;q=0.7","true","null","tones/880hz_short.mp3","null","","","tone_number_task","102.5","69","tones/880hz_short.mp3","252.5","100","0","13",""
"","","","","","html-keyboard-response","95","1629978","0.0-107.0-0.0","19","1","2023-10-20 21:15:55","a725c3012b74bf33a1020a98cb69c237","190.194.167.208","Mozilla/5.0 (Windows NT 10.0; Win64; x64) AppleWebKit/537.36 (KHTML, like Gecko) Chrome/118.0.0.0 Safari/537.36","WebKit","Chrome","118.0.0.0","Windows","10.0","null","es-AR,es-US;q=0.9,es-419;q=0.8,es;q=0.7","true","670","tones/880hz_short.mp3","s","","","empty_block","","69","","","","0","13",""
"","","","","","html-keyboard-response","96","1630276","0.0-107.0-1.0","19","1","2023-10-20 21:15:55","a725c3012b74bf33a1020a98cb69c237","190.194.167.208","Mozilla/5.0 (Windows NT 10.0; Win64; x64) AppleWebKit/537.36 (KHTML, like Gecko) Chrome/118.0.0.0 Safari/537.36","WebKit","Chrome","118.0.0.0","Windows","10.0","null","es-AR,es-US;q=0.9,es-419;q=0.8,es;q=0.7","true","294","tones/880hz_short.mp3","k","","","empty_block","","69","","","","0","13",""
"","","","","","html-keyboard-response","97","1632951","0.0-109.0","19","1","2023-10-20 21:15:55","a725c3012b74bf33a1020a98cb69c237","190.194.167.208","Mozilla/5.0 (Windows NT 10.0; Win64; x64) AppleWebKit/537.36 (KHTML, like Gecko) Chrome/118.0.0.0 Safari/537.36","WebKit","Chrome","118.0.0.0","Windows","10.0","null","es-AR,es-US;q=0.9,es-419;q=0.8,es;q=0.7","true","null","<div style=""font-size:100px;"">X</div>","null","","","fixation","","","","","","","",""
"","","","","","audio-keyboard-response","98","1633106","0.0-110.0","19","1","2023-10-20 21:15:55","a725c3012b74bf33a1020a98cb69c237","190.194.167.208","Mozilla/5.0 (Windows NT 10.0; Win64; x64) AppleWebKit/537.36 (KHTML, like Gecko) Chrome/118.0.0.0 Safari/537.36","WebKit","Chrome","118.0.0.0","Windows","10.0","null","es-AR,es-US;q=0.9,es-419;q=0.8,es;q=0.7","true","null","tones/880hz_short.mp3","null","","","tone_number_task","0","47","tones/880hz_short.mp3","150","100","0","14",""
"","","","","","html-keyboard-response","99","1633624","0.0-113.0-0.0","19","1","2023-10-20 21:15:55","a725c3012b74bf33a1020a98cb69c237","190.194.167.208","Mozilla/5.0 (Windows NT 10.0; Win64; x64) AppleWebKit/537.36 (KHTML, like Gecko) Chrome/118.0.0.0 Safari/537.36","WebKit","Chrome","118.0.0.0","Windows","10.0","null","es-AR,es-US;q=0.9,es-419;q=0.8,es;q=0.7","true","513","tones/880hz_short.mp3","s","","","empty_block","","47","","","","0","14",""
"","","","","","html-keyboard-response","100","1633933","0.0-113.0-1.0","19","1","2023-10-20 21:15:55","a725c3012b74bf33a1020a98cb69c237","190.194.167.208","Mozilla/5.0 (Windows NT 10.0; Win64; x64) AppleWebKit/537.36 (KHTML, like Gecko) Chrome/118.0.0.0 Safari/537.36","WebKit","Chrome","118.0.0.0","Windows","10.0","null","es-AR,es-US;q=0.9,es-419;q=0.8,es;q=0.7","true","305","tones/880hz_short.mp3","j","","","empty_block","","47","","","","0","14",""
"","","","","","html-keyboard-response","101","1636607","0.0-115.0","19","1","2023-10-20 21:15:55","a725c3012b74bf33a1020a98cb69c237","190.194.167.208","Mozilla/5.0 (Windows NT 10.0; Win64; x64) AppleWebKit/537.36 (KHTML, like Gecko) Chrome/118.0.0.0 Safari/537.36","WebKit","Chrome","118.0.0.0","Windows","10.0","null","es-AR,es-US;q=0.9,es-419;q=0.8,es;q=0.7","true","null","<div style=""font-size:100px;"">X</div>","null","","","fixation","","","","","","","",""
"","","","","","audio-keyboard-response","102","1637356","0.0-116.0","19","1","2023-10-20 21:15:55","a725c3012b74bf33a1020a98cb69c237","190.194.167.208","Mozilla/5.0 (Windows NT 10.0; Win64; x64) AppleWebKit/537.36 (KHTML, like Gecko) Chrome/118.0.0.0 Safari/537.36","WebKit","Chrome","118.0.0.0","Windows","10.0","null","es-AR,es-US;q=0.9,es-419;q=0.8,es;q=0.7","true","741","tones/440hz_short.mp3","a","","","tone_number_task","992.5","52","tones/440hz_short.mp3","1142.5","100","0","15",""
"","","","","","html-keyboard-response","103","1637610","0.0-117.0-0.0","19","1","2023-10-20 21:15:55","a725c3012b74bf33a1020a98cb69c237","190.194.167.208","Mozilla/5.0 (Windows NT 10.0; Win64; x64) AppleWebKit/537.36 (KHTML, like Gecko) Chrome/118.0.0.0 Safari/537.36","WebKit","Chrome","118.0.0.0","Windows","10.0","null","es-AR,es-US;q=0.9,es-419;q=0.8,es;q=0.7","true","null","","null","","","delay_block","","","","","","0","15",""
"","","","","","html-keyboard-response","104","1637766","0.0-117.0-1.0","19","1","2023-10-20 21:15:55","a725c3012b74bf33a1020a98cb69c237","190.194.167.208","Mozilla/5.0 (Windows NT 10.0; Win64; x64) AppleWebKit/537.36 (KHTML, like Gecko) Chrome/118.0.0.0 Safari/537.36","WebKit","Chrome","118.0.0.0","Windows","10.0","null","es-AR,es-US;q=0.9,es-419;q=0.8,es;q=0.7","true","null","<p id=""stimulus"" style=""font-size:100px;"">52</p>","null","","","tone_number_task_remaining_before_delay","","52","","401.5","100","0","15",""
"","","","","","html-keyboard-response","105","1638203","0.0-120.0-0.0","19","1","2023-10-20 21:15:55","a725c3012b74bf33a1020a98cb69c237","190.194.167.208","Mozilla/5.0 (Windows NT 10.0; Win64; x64) AppleWebKit/537.36 (KHTML, like Gecko) Chrome/118.0.0.0 Safari/537.36","WebKit","Chrome","118.0.0.0","Windows","10.0","null","es-AR,es-US;q=0.9,es-419;q=0.8,es;q=0.7","true","432","<p id=""stimulus"" style=""font-size:100px;"">52</p>","k","","","empty_block","","52","","","","0","15",""
"","","","","","html-keyboard-response","106","1640879","0.0-121.0","19","1","2023-10-20 21:15:55","a725c3012b74bf33a1020a98cb69c237","190.194.167.208","Mozilla/5.0 (Windows NT 10.0; Win64; x64) AppleWebKit/537.36 (KHTML, like Gecko) Chrome/118.0.0.0 Safari/537.36","WebKit","Chrome","118.0.0.0","Windows","10.0","null","es-AR,es-US;q=0.9,es-419;q=0.8,es;q=0.7","true","null","<div style=""font-size:100px;"">X</div>","null","","","fixation","","","","","","","",""
"","","","","","audio-keyboard-response","107","1641034","0.0-122.0","19","1","2023-10-20 21:15:55","a725c3012b74bf33a1020a98cb69c237","190.194.167.208","Mozilla/5.0 (Windows NT 10.0; Win64; x64) AppleWebKit/537.36 (KHTML, like Gecko) Chrome/118.0.0.0 Safari/537.36","WebKit","Chrome","118.0.0.0","Windows","10.0","null","es-AR,es-US;q=0.9,es-419;q=0.8,es;q=0.7","true","null","tones/880hz_short.mp3","null","","","tone_number_task","0","59","tones/880hz_short.mp3","150","100","0","16",""
"","","","","","html-keyboard-response","108","1641507","0.0-125.0-0.0","19","1","2023-10-20 21:15:55","a725c3012b74bf33a1020a98cb69c237","190.194.167.208","Mozilla/5.0 (Windows NT 10.0; Win64; x64) AppleWebKit/537.36 (KHTML, like Gecko) Chrome/118.0.0.0 Safari/537.36","WebKit","Chrome","118.0.0.0","Windows","10.0","null","es-AR,es-US;q=0.9,es-419;q=0.8,es;q=0.7","true","468","tones/880hz_short.mp3","s","","","empty_block","","59","","","","0","16",""
"","","","","","html-keyboard-response","109","1642029","0.0-125.0-1.0","19","1","2023-10-20 21:15:55","a725c3012b74bf33a1020a98cb69c237","190.194.167.208","Mozilla/5.0 (Windows NT 10.0; Win64; x64) AppleWebKit/537.36 (KHTML, like Gecko) Chrome/118.0.0.0 Safari/537.36","WebKit","Chrome","118.0.0.0","Windows","10.0","null","es-AR,es-US;q=0.9,es-419;q=0.8,es;q=0.7","true","518","tones/880hz_short.mp3","k","","","empty_block","","59","","","","0","16",""
"","","","","","html-keyboard-response","110","1644705","0.0-127.0","19","1","2023-10-20 21:15:55","a725c3012b74bf33a1020a98cb69c237","190.194.167.208","Mozilla/5.0 (Windows NT 10.0; Win64; x64) AppleWebKit/537.36 (KHTML, like Gecko) Chrome/118.0.0.0 Safari/537.36","WebKit","Chrome","118.0.0.0","Windows","10.0","null","es-AR,es-US;q=0.9,es-419;q=0.8,es;q=0.7","true","null","<div style=""font-size:100px;"">X</div>","null","","","fixation","","","","","","","",""
"","","","","","audio-keyboard-response","111","1644861","0.0-128.0","19","1","2023-10-20 21:15:55","a725c3012b74bf33a1020a98cb69c237","190.194.167.208","Mozilla/5.0 (Windows NT 10.0; Win64; x64) AppleWebKit/537.36 (KHTML, like Gecko) Chrome/118.0.0.0 Safari/537.36","WebKit","Chrome","118.0.0.0","Windows","10.0","null","es-AR,es-US;q=0.9,es-419;q=0.8,es;q=0.7","true","null","tones/440hz_short.mp3","null","","","tone_number_task","0","43","tones/440hz_short.mp3","150","100","0","17",""
"","","","","","html-keyboard-response","112","1645428","0.0-131.0-0.0","19","1","2023-10-20 21:15:55","a725c3012b74bf33a1020a98cb69c237","190.194.167.208","Mozilla/5.0 (Windows NT 10.0; Win64; x64) AppleWebKit/537.36 (KHTML, like Gecko) Chrome/118.0.0.0 Safari/537.36","WebKit","Chrome","118.0.0.0","Windows","10.0","null","es-AR,es-US;q=0.9,es-419;q=0.8,es;q=0.7","true","563","tones/440hz_short.mp3","a","","","empty_block","","43","","","","0","17",""
"","","","","","html-keyboard-response","113","1645696","0.0-131.0-1.0","19","1","2023-10-20 21:15:55","a725c3012b74bf33a1020a98cb69c237","190.194.167.208","Mozilla/5.0 (Windows NT 10.0; Win64; x64) AppleWebKit/537.36 (KHTML, like Gecko) Chrome/118.0.0.0 Safari/537.36","WebKit","Chrome","118.0.0.0","Windows","10.0","null","es-AR,es-US;q=0.9,es-419;q=0.8,es;q=0.7","true","264","tones/440hz_short.mp3","j","","","empty_block","","43","","","","0","17",""
"","","","","","html-keyboard-response","114","1648371","0.0-133.0","19","1","2023-10-20 21:15:55","a725c3012b74bf33a1020a98cb69c237","190.194.167.208","Mozilla/5.0 (Windows NT 10.0; Win64; x64) AppleWebKit/537.36 (KHTML, like Gecko) Chrome/118.0.0.0 Safari/537.36","WebKit","Chrome","118.0.0.0","Windows","10.0","null","es-AR,es-US;q=0.9,es-419;q=0.8,es;q=0.7","true","null","<div style=""font-size:100px;"">X</div>","null","","","fixation","","","","","","","",""
"","","","","","audio-keyboard-response","115","1648992","0.0-134.0","19","1","2023-10-20 21:15:55","a725c3012b74bf33a1020a98cb69c237","190.194.167.208","Mozilla/5.0 (Windows NT 10.0; Win64; x64) AppleWebKit/537.36 (KHTML, like Gecko) Chrome/118.0.0.0 Safari/537.36","WebKit","Chrome","118.0.0.0","Windows","10.0","null","es-AR,es-US;q=0.9,es-419;q=0.8,es;q=0.7","true","621","tones/440hz_short.mp3","a","","","tone_number_task","992.5","50","tones/440hz_short.mp3","1142.5","100","0","18",""
"","","","","","html-keyboard-response","116","1649368","0.0-135.0-0.0","19","1","2023-10-20 21:15:55","a725c3012b74bf33a1020a98cb69c237","190.194.167.208","Mozilla/5.0 (Windows NT 10.0; Win64; x64) AppleWebKit/537.36 (KHTML, like Gecko) Chrome/118.0.0.0 Safari/537.36","WebKit","Chrome","118.0.0.0","Windows","10.0","null","es-AR,es-US;q=0.9,es-419;q=0.8,es;q=0.7","true","null","","null","","","delay_block","","","","","","0","18",""
"","","","","","html-keyboard-response","117","1649524","0.0-135.0-1.0","19","1","2023-10-20 21:15:55","a725c3012b74bf33a1020a98cb69c237","190.194.167.208","Mozilla/5.0 (Windows NT 10.0; Win64; x64) AppleWebKit/537.36 (KHTML, like Gecko) Chrome/118.0.0.0 Safari/537.36","WebKit","Chrome","118.0.0.0","Windows","10.0","null","es-AR,es-US;q=0.9,es-419;q=0.8,es;q=0.7","true","null","<p id=""stimulus"" style=""font-size:100px;"">50</p>","null","","","tone_number_task_remaining_before_delay","","50","","521.5","100","0","18",""
"","","","","","html-keyboard-response","118","1649839","0.0-138.0-0.0","19","1","2023-10-20 21:15:55","a725c3012b74bf33a1020a98cb69c237","190.194.167.208","Mozilla/5.0 (Windows NT 10.0; Win64; x64) AppleWebKit/537.36 (KHTML, like Gecko) Chrome/118.0.0.0 Safari/537.36","WebKit","Chrome","118.0.0.0","Windows","10.0","null","es-AR,es-US;q=0.9,es-419;q=0.8,es;q=0.7","true","310","<p id=""stimulus"" style=""font-size:100px;"">50</p>","k","","","empty_block","","50","","","","0","18",""
"","","","","","html-keyboard-response","119","1652513","0.0-139.0","19","1","2023-10-20 21:15:55","a725c3012b74bf33a1020a98cb69c237","190.194.167.208","Mozilla/5.0 (Windows NT 10.0; Win64; x64) AppleWebKit/537.36 (KHTML, like Gecko) Chrome/118.0.0.0 Safari/537.36","WebKit","Chrome","118.0.0.0","Windows","10.0","null","es-AR,es-US;q=0.9,es-419;q=0.8,es;q=0.7","true","null","<div style=""font-size:100px;"">X</div>","null","","","fixation","","","","","","","",""
"","","","","","audio-keyboard-response","120","1652670","0.0-140.0","19","1","2023-10-20 21:15:55","a725c3012b74bf33a1020a98cb69c237","190.194.167.208","Mozilla/5.0 (Windows NT 10.0; Win64; x64) AppleWebKit/537.36 (KHTML, like Gecko) Chrome/118.0.0.0 Safari/537.36","WebKit","Chrome","118.0.0.0","Windows","10.0","null","es-AR,es-US;q=0.9,es-419;q=0.8,es;q=0.7","true","null","tones/440hz_short.mp3","null","","","tone_number_task","0","66","tones/440hz_short.mp3","150","100","0","19",""
"","","","","","html-keyboard-response","121","1653313","0.0-143.0-0.0","19","1","2023-10-20 21:15:55","a725c3012b74bf33a1020a98cb69c237","190.194.167.208","Mozilla/5.0 (Windows NT 10.0; Win64; x64) AppleWebKit/537.36 (KHTML, like Gecko) Chrome/118.0.0.0 Safari/537.36","WebKit","Chrome","118.0.0.0","Windows","10.0","null","es-AR,es-US;q=0.9,es-419;q=0.8,es;q=0.7","true","639","tones/440hz_short.mp3","a","","","empty_block","","66","","","","0","19",""
"","","","","","html-keyboard-response","122","1653717","0.0-143.0-1.0","19","1","2023-10-20 21:15:55","a725c3012b74bf33a1020a98cb69c237","190.194.167.208","Mozilla/5.0 (Windows NT 10.0; Win64; x64) AppleWebKit/537.36 (KHTML, like Gecko) Chrome/118.0.0.0 Safari/537.36","WebKit","Chrome","118.0.0.0","Windows","10.0","null","es-AR,es-US;q=0.9,es-419;q=0.8,es;q=0.7","true","400","tones/440hz_short.mp3","k","","","empty_block","","66","","","","0","19",""
"","","","","","html-keyboard-response","123","1656392","0.0-145.0","19","1","2023-10-20 21:15:55","a725c3012b74bf33a1020a98cb69c237","190.194.167.208","Mozilla/5.0 (Windows NT 10.0; Win64; x64) AppleWebKit/537.36 (KHTML, like Gecko) Chrome/118.0.0.0 Safari/537.36","WebKit","Chrome","118.0.0.0","Windows","10.0","null","es-AR,es-US;q=0.9,es-419;q=0.8,es;q=0.7","true","null","<div style=""font-size:100px;"">X</div>","null","","","fixation","","","","","","","",""
"","","","","","audio-keyboard-response","124","1656547","0.0-146.0","19","1","2023-10-20 21:15:55","a725c3012b74bf33a1020a98cb69c237","190.194.167.208","Mozilla/5.0 (Windows NT 10.0; Win64; x64) AppleWebKit/537.36 (KHTML, like Gecko) Chrome/118.0.0.0 Safari/537.36","WebKit","Chrome","118.0.0.0","Windows","10.0","null","es-AR,es-US;q=0.9,es-419;q=0.8,es;q=0.7","true","null","tones/440hz_short.mp3","null","","","tone_number_task","0","37","tones/440hz_short.mp3","150","100","0","20",""
"","","","","","html-keyboard-response","125","1657290","0.0-149.0-0.0","19","1","2023-10-20 21:15:55","a725c3012b74bf33a1020a98cb69c237","190.194.167.208","Mozilla/5.0 (Windows NT 10.0; Win64; x64) AppleWebKit/537.36 (KHTML, like Gecko) Chrome/118.0.0.0 Safari/537.36","WebKit","Chrome","118.0.0.0","Windows","10.0","null","es-AR,es-US;q=0.9,es-419;q=0.8,es;q=0.7","true","739","tones/440hz_short.mp3","a","","","empty_block","","37","","","","0","20",""
"","","","","","html-keyboard-response","126","1657561","0.0-149.0-1.0","19","1","2023-10-20 21:15:55","a725c3012b74bf33a1020a98cb69c237","190.194.167.208","Mozilla/5.0 (Windows NT 10.0; Win64; x64) AppleWebKit/537.36 (KHTML, like Gecko) Chrome/118.0.0.0 Safari/537.36","WebKit","Chrome","118.0.0.0","Windows","10.0","null","es-AR,es-US;q=0.9,es-419;q=0.8,es;q=0.7","true","266","tones/440hz_short.mp3","j","","","empty_block","","37","","","","0","20",""
"","","","","","html-keyboard-response","127","1660237","0.0-151.0","19","1","2023-10-20 21:15:55","a725c3012b74bf33a1020a98cb69c237","190.194.167.208","Mozilla/5.0 (Windows NT 10.0; Win64; x64) AppleWebKit/537.36 (KHTML, like Gecko) Chrome/118.0.0.0 Safari/537.36","WebKit","Chrome","118.0.0.0","Windows","10.0","null","es-AR,es-US;q=0.9,es-419;q=0.8,es;q=0.7","true","null","<div style=""font-size:100px;"">X</div>","null","","","fixation","","","","","","","",""
"","","","","","audio-keyboard-response","128","1660711","0.0-152.0","19","1","2023-10-20 21:15:55","a725c3012b74bf33a1020a98cb69c237","190.194.167.208","Mozilla/5.0 (Windows NT 10.0; Win64; x64) AppleWebKit/537.36 (KHTML, like Gecko) Chrome/118.0.0.0 Safari/537.36","WebKit","Chrome","118.0.0.0","Windows","10.0","null","es-AR,es-US;q=0.9,es-419;q=0.8,es;q=0.7","true","472","tones/440hz_short.mp3","a","","","tone_number_task","992.5","57","tones/440hz_short.mp3","1142.5","100","0","21",""
"","","","","","html-keyboard-response","129","1661236","0.0-153.0-0.0","19","1","2023-10-20 21:15:55","a725c3012b74bf33a1020a98cb69c237","190.194.167.208","Mozilla/5.0 (Windows NT 10.0; Win64; x64) AppleWebKit/537.36 (KHTML, like Gecko) Chrome/118.0.0.0 Safari/537.36","WebKit","Chrome","118.0.0.0","Windows","10.0","null","es-AR,es-US;q=0.9,es-419;q=0.8,es;q=0.7","true","null","","null","","","delay_block","","","","","","0","21",""
"","","","","","html-keyboard-response","130","1661390","0.0-153.0-1.0","19","1","2023-10-20 21:15:55","a725c3012b74bf33a1020a98cb69c237","190.194.167.208","Mozilla/5.0 (Windows NT 10.0; Win64; x64) AppleWebKit/537.36 (KHTML, like Gecko) Chrome/118.0.0.0 Safari/537.36","WebKit","Chrome","118.0.0.0","Windows","10.0","null","es-AR,es-US;q=0.9,es-419;q=0.8,es;q=0.7","true","null","<p id=""stimulus"" style=""font-size:100px;"">57</p>","null","","","tone_number_task_remaining_before_delay","","57","","670.5","100","0","21",""
"","","","","","html-keyboard-response","131","1661803","0.0-156.0-0.0","19","1","2023-10-20 21:15:55","a725c3012b74bf33a1020a98cb69c237","190.194.167.208","Mozilla/5.0 (Windows NT 10.0; Win64; x64) AppleWebKit/537.36 (KHTML, like Gecko) Chrome/118.0.0.0 Safari/537.36","WebKit","Chrome","118.0.0.0","Windows","10.0","null","es-AR,es-US;q=0.9,es-419;q=0.8,es;q=0.7","true","408","<p id=""stimulus"" style=""font-size:100px;"">57</p>","k","","","empty_block","","57","","","","0","21",""
"","","","","","html-keyboard-response","132","1664480","0.0-157.0","19","1","2023-10-20 21:15:55","a725c3012b74bf33a1020a98cb69c237","190.194.167.208","Mozilla/5.0 (Windows NT 10.0; Win64; x64) AppleWebKit/537.36 (KHTML, like Gecko) Chrome/118.0.0.0 Safari/537.36","WebKit","Chrome","118.0.0.0","Windows","10.0","null","es-AR,es-US;q=0.9,es-419;q=0.8,es;q=0.7","true","null","<div style=""font-size:100px;"">X</div>","null","","","fixation","","","","","","","",""
"","","","","","audio-keyboard-response","133","1664635","0.0-158.0","19","1","2023-10-20 21:15:55","a725c3012b74bf33a1020a98cb69c237","190.194.167.208","Mozilla/5.0 (Windows NT 10.0; Win64; x64) AppleWebKit/537.36 (KHTML, like Gecko) Chrome/118.0.0.0 Safari/537.36","WebKit","Chrome","118.0.0.0","Windows","10.0","null","es-AR,es-US;q=0.9,es-419;q=0.8,es;q=0.7","true","null","tones/880hz_short.mp3","null","","","tone_number_task","0","54","tones/880hz_short.mp3","150","100","0","22",""
"","","","","","html-keyboard-response","134","1665209","0.0-161.0-0.0","19","1","2023-10-20 21:15:55","a725c3012b74bf33a1020a98cb69c237","190.194.167.208","Mozilla/5.0 (Windows NT 10.0; Win64; x64) AppleWebKit/537.36 (KHTML, like Gecko) Chrome/118.0.0.0 Safari/537.36","WebKit","Chrome","118.0.0.0","Windows","10.0","null","es-AR,es-US;q=0.9,es-419;q=0.8,es;q=0.7","true","569","tones/880hz_short.mp3","s","","","empty_block","","54","","","","0","22",""
"","","","","","html-keyboard-response","135","1665708","0.0-161.0-1.0","19","1","2023-10-20 21:15:55","a725c3012b74bf33a1020a98cb69c237","190.194.167.208","Mozilla/5.0 (Windows NT 10.0; Win64; x64) AppleWebKit/537.36 (KHTML, like Gecko) Chrome/118.0.0.0 Safari/537.36","WebKit","Chrome","118.0.0.0","Windows","10.0","null","es-AR,es-US;q=0.9,es-419;q=0.8,es;q=0.7","true","495","tones/880hz_short.mp3","k","","","empty_block","","54","","","","0","22",""
"","","","","","html-keyboard-response","136","1668385","0.0-163.0","19","1","2023-10-20 21:15:55","a725c3012b74bf33a1020a98cb69c237","190.194.167.208","Mozilla/5.0 (Windows NT 10.0; Win64; x64) AppleWebKit/537.36 (KHTML, like Gecko) Chrome/118.0.0.0 Safari/537.36","WebKit","Chrome","118.0.0.0","Windows","10.0","null","es-AR,es-US;q=0.9,es-419;q=0.8,es;q=0.7","true","null","<div style=""font-size:100px;"">X</div>","null","","","fixation","","","","","","","",""
"","","","","","audio-keyboard-response","137","1668642","0.0-164.0","19","1","2023-10-20 21:15:55","a725c3012b74bf33a1020a98cb69c237","190.194.167.208","Mozilla/5.0 (Windows NT 10.0; Win64; x64) AppleWebKit/537.36 (KHTML, like Gecko) Chrome/118.0.0.0 Safari/537.36","WebKit","Chrome","118.0.0.0","Windows","10.0","null","es-AR,es-US;q=0.9,es-419;q=0.8,es;q=0.7","true","null","tones/440hz_short.mp3","null","","","tone_number_task","102.5","38","tones/440hz_short.mp3","252.5","100","0","23",""
"","","","","","html-keyboard-response","138","1669114","0.0-167.0-0.0","19","1","2023-10-20 21:15:55","a725c3012b74bf33a1020a98cb69c237","190.194.167.208","Mozilla/5.0 (Windows NT 10.0; Win64; x64) AppleWebKit/537.36 (KHTML, like Gecko) Chrome/118.0.0.0 Safari/537.36","WebKit","Chrome","118.0.0.0","Windows","10.0","null","es-AR,es-US;q=0.9,es-419;q=0.8,es;q=0.7","true","467","tones/440hz_short.mp3","a","","","empty_block","","38","","","","0","23",""
"","","","","","html-keyboard-response","139","1669899","0.0-167.0-1.0","19","1","2023-10-20 21:15:55","a725c3012b74bf33a1020a98cb69c237","190.194.167.208","Mozilla/5.0 (Windows NT 10.0; Win64; x64) AppleWebKit/537.36 (KHTML, like Gecko) Chrome/118.0.0.0 Safari/537.36","WebKit","Chrome","118.0.0.0","Windows","10.0","null","es-AR,es-US;q=0.9,es-419;q=0.8,es;q=0.7","true","780","tones/440hz_short.mp3","j","","","empty_block","","38","","","","0","23",""
"","","","","","html-keyboard-response","140","1672573","0.0-169.0","19","1","2023-10-20 21:15:55","a725c3012b74bf33a1020a98cb69c237","190.194.167.208","Mozilla/5.0 (Windows NT 10.0; Win64; x64) AppleWebKit/537.36 (KHTML, like Gecko) Chrome/118.0.0.0 Safari/537.36","WebKit","Chrome","118.0.0.0","Windows","10.0","null","es-AR,es-US;q=0.9,es-419;q=0.8,es;q=0.7","true","null","<div style=""font-size:100px;"">X</div>","null","","","fixation","","","","","","","",""
"","","","","","audio-keyboard-response","141","1673015","0.0-170.0","19","1","2023-10-20 21:15:55","a725c3012b74bf33a1020a98cb69c237","190.194.167.208","Mozilla/5.0 (Windows NT 10.0; Win64; x64) AppleWebKit/537.36 (KHTML, like Gecko) Chrome/118.0.0.0 Safari/537.36","WebKit","Chrome","118.0.0.0","Windows","10.0","null","es-AR,es-US;q=0.9,es-419;q=0.8,es;q=0.7","true","440","tones/440hz_short.mp3","a","","","tone_number_task","992.5","34","tones/440hz_short.mp3","1142.5","100","0","24",""
"","","","","","html-keyboard-response","142","1673574","0.0-171.0-0.0","19","1","2023-10-20 21:15:55","a725c3012b74bf33a1020a98cb69c237","190.194.167.208","Mozilla/5.0 (Windows NT 10.0; Win64; x64) AppleWebKit/537.36 (KHTML, like Gecko) Chrome/118.0.0.0 Safari/537.36","WebKit","Chrome","118.0.0.0","Windows","10.0","null","es-AR,es-US;q=0.9,es-419;q=0.8,es;q=0.7","true","null","","null","","","delay_block","","","","","","0","24",""
"","","","","","html-keyboard-response","143","1673729","0.0-171.0-1.0","19","1","2023-10-20 21:15:55","a725c3012b74bf33a1020a98cb69c237","190.194.167.208","Mozilla/5.0 (Windows NT 10.0; Win64; x64) AppleWebKit/537.36 (KHTML, like Gecko) Chrome/118.0.0.0 Safari/537.36","WebKit","Chrome","118.0.0.0","Windows","10.0","null","es-AR,es-US;q=0.9,es-419;q=0.8,es;q=0.7","true","null","<p id=""stimulus"" style=""font-size:100px;"">34</p>","null","","","tone_number_task_remaining_before_delay","","34","","702.5","100","0","24",""
"","","","","","html-keyboard-response","144","1674154","0.0-174.0-0.0","19","1","2023-10-20 21:15:55","a725c3012b74bf33a1020a98cb69c237","190.194.167.208","Mozilla/5.0 (Windows NT 10.0; Win64; x64) AppleWebKit/537.36 (KHTML, like Gecko) Chrome/118.0.0.0 Safari/537.36","WebKit","Chrome","118.0.0.0","Windows","10.0","null","es-AR,es-US;q=0.9,es-419;q=0.8,es;q=0.7","true","419","<p id=""stimulus"" style=""font-size:100px;"">34</p>","j","","","empty_block","","34","","","","0","24",""
"","","","","","html-keyboard-response","145","1676829","0.0-175.0","19","1","2023-10-20 21:15:55","a725c3012b74bf33a1020a98cb69c237","190.194.167.208","Mozilla/5.0 (Windows NT 10.0; Win64; x64) AppleWebKit/537.36 (KHTML, like Gecko) Chrome/118.0.0.0 Safari/537.36","WebKit","Chrome","118.0.0.0","Windows","10.0","null","es-AR,es-US;q=0.9,es-419;q=0.8,es;q=0.7","true","null","<div style=""font-size:100px;"">X</div>","null","","","fixation","","","","","","","",""
"","","","","","audio-keyboard-response","146","1677451","0.0-176.0","19","1","2023-10-20 21:15:55","a725c3012b74bf33a1020a98cb69c237","190.194.167.208","Mozilla/5.0 (Windows NT 10.0; Win64; x64) AppleWebKit/537.36 (KHTML, like Gecko) Chrome/118.0.0.0 Safari/537.36","WebKit","Chrome","118.0.0.0","Windows","10.0","null","es-AR,es-US;q=0.9,es-419;q=0.8,es;q=0.7","true","619","tones/440hz_short.mp3","a","","","tone_number_task","1025","69","tones/440hz_short.mp3","1175","100","0","25",""
"","","","","","html-keyboard-response","147","1677862","0.0-177.0-0.0","19","1","2023-10-20 21:15:55","a725c3012b74bf33a1020a98cb69c237","190.194.167.208","Mozilla/5.0 (Windows NT 10.0; Win64; x64) AppleWebKit/537.36 (KHTML, like Gecko) Chrome/118.0.0.0 Safari/537.36","WebKit","Chrome","118.0.0.0","Windows","10.0","null","es-AR,es-US;q=0.9,es-419;q=0.8,es;q=0.7","true","null","","null","","","delay_block","","","","","","0","25",""
"","","","","","html-keyboard-response","148","1678019","0.0-177.0-1.0","19","1","2023-10-20 21:15:55","a725c3012b74bf33a1020a98cb69c237","190.194.167.208","Mozilla/5.0 (Windows NT 10.0; Win64; x64) AppleWebKit/537.36 (KHTML, like Gecko) Chrome/118.0.0.0 Safari/537.36","WebKit","Chrome","118.0.0.0","Windows","10.0","null","es-AR,es-US;q=0.9,es-419;q=0.8,es;q=0.7","true","null","<p id=""stimulus"" style=""font-size:100px;"">69</p>","null","","","tone_number_task_remaining_before_delay","","69","","556","100","0","25",""
"","","","","","html-keyboard-response","149","1678254","0.0-180.0-0.0","19","1","2023-10-20 21:15:55","a725c3012b74bf33a1020a98cb69c237","190.194.167.208","Mozilla/5.0 (Windows NT 10.0; Win64; x64) AppleWebKit/537.36 (KHTML, like Gecko) Chrome/118.0.0.0 Safari/537.36","WebKit","Chrome","118.0.0.0","Windows","10.0","null","es-AR,es-US;q=0.9,es-419;q=0.8,es;q=0.7","true","230","<p id=""stimulus"" style=""font-size:100px;"">69</p>","k","","","empty_block","","69","","","","0","25",""
"","","","","","html-keyboard-response","150","1680931","0.0-181.0","19","1","2023-10-20 21:15:55","a725c3012b74bf33a1020a98cb69c237","190.194.167.208","Mozilla/5.0 (Windows NT 10.0; Win64; x64) AppleWebKit/537.36 (KHTML, like Gecko) Chrome/118.0.0.0 Safari/537.36","WebKit","Chrome","118.0.0.0","Windows","10.0","null","es-AR,es-US;q=0.9,es-419;q=0.8,es;q=0.7","true","null","<div style=""font-size:100px;"">X</div>","null","","","fixation","","","","","","","",""
"","","","","","audio-keyboard-response","151","1681534","0.0-182.0","19","1","2023-10-20 21:15:55","a725c3012b74bf33a1020a98cb69c237","190.194.167.208","Mozilla/5.0 (Windows NT 10.0; Win64; x64) AppleWebKit/537.36 (KHTML, like Gecko) Chrome/118.0.0.0 Safari/537.36","WebKit","Chrome","118.0.0.0","Windows","10.0","null","es-AR,es-US;q=0.9,es-419;q=0.8,es;q=0.7","true","600","tones/880hz_short.mp3","s","","","tone_number_task","1025","32","tones/880hz_short.mp3","1175","100","0","26",""
"","","","","","html-keyboard-response","152","1681965","0.0-183.0-0.0","19","1","2023-10-20 21:15:55","a725c3012b74bf33a1020a98cb69c237","190.194.167.208","Mozilla/5.0 (Windows NT 10.0; Win64; x64) AppleWebKit/537.36 (KHTML, like Gecko) Chrome/118.0.0.0 Safari/537.36","WebKit","Chrome","118.0.0.0","Windows","10.0","null","es-AR,es-US;q=0.9,es-419;q=0.8,es;q=0.7","true","null","","null","","","delay_block","","","","","","0","26",""
"","","","","","html-keyboard-response","153","1682122","0.0-183.0-1.0","19","1","2023-10-20 21:15:55","a725c3012b74bf33a1020a98cb69c237","190.194.167.208","Mozilla/5.0 (Windows NT 10.0; Win64; x64) AppleWebKit/537.36 (KHTML, like Gecko) Chrome/118.0.0.0 Safari/537.36","WebKit","Chrome","118.0.0.0","Windows","10.0","null","es-AR,es-US;q=0.9,es-419;q=0.8,es;q=0.7","true","null","<p id=""stimulus"" style=""font-size:100px;"">32</p>","null","","","tone_number_task_remaining_before_delay","","32","","575","100","0","26",""
"","","","","","html-keyboard-response","154","1682417","0.0-186.0-0.0","19","1","2023-10-20 21:15:55","a725c3012b74bf33a1020a98cb69c237","190.194.167.208","Mozilla/5.0 (Windows NT 10.0; Win64; x64) AppleWebKit/537.36 (KHTML, like Gecko) Chrome/118.0.0.0 Safari/537.36","WebKit","Chrome","118.0.0.0","Windows","10.0","null","es-AR,es-US;q=0.9,es-419;q=0.8,es;q=0.7","true","289","<p id=""stimulus"" style=""font-size:100px;"">32</p>","j","","","empty_block","","32","","","","0","26",""
"","","","","","html-keyboard-response","155","1685092","0.0-187.0","19","1","2023-10-20 21:15:55","a725c3012b74bf33a1020a98cb69c237","190.194.167.208","Mozilla/5.0 (Windows NT 10.0; Win64; x64) AppleWebKit/537.36 (KHTML, like Gecko) Chrome/118.0.0.0 Safari/537.36","WebKit","Chrome","118.0.0.0","Windows","10.0","null","es-AR,es-US;q=0.9,es-419;q=0.8,es;q=0.7","true","null","<div style=""font-size:100px;"">X</div>","null","","","fixation","","","","","","","",""
"","","","","","audio-keyboard-response","156","1685926","0.0-188.0","19","1","2023-10-20 21:15:55","a725c3012b74bf33a1020a98cb69c237","190.194.167.208","Mozilla/5.0 (Windows NT 10.0; Win64; x64) AppleWebKit/537.36 (KHTML, like Gecko) Chrome/118.0.0.0 Safari/537.36","WebKit","Chrome","118.0.0.0","Windows","10.0","null","es-AR,es-US;q=0.9,es-419;q=0.8,es;q=0.7","true","829","tones/440hz_short.mp3","a","","","tone_number_task","992.5","33","tones/440hz_short.mp3","1142.5","100","0","27",""
"","","","","","html-keyboard-response","157","1686097","0.0-189.0-0.0","19","1","2023-10-20 21:15:55","a725c3012b74bf33a1020a98cb69c237","190.194.167.208","Mozilla/5.0 (Windows NT 10.0; Win64; x64) AppleWebKit/537.36 (KHTML, like Gecko) Chrome/118.0.0.0 Safari/537.36","WebKit","Chrome","118.0.0.0","Windows","10.0","null","es-AR,es-US;q=0.9,es-419;q=0.8,es;q=0.7","true","null","","null","","","delay_block","","","","","","0","27",""
"","","","","","html-keyboard-response","158","1686252","0.0-189.0-1.0","19","1","2023-10-20 21:15:55","a725c3012b74bf33a1020a98cb69c237","190.194.167.208","Mozilla/5.0 (Windows NT 10.0; Win64; x64) AppleWebKit/537.36 (KHTML, like Gecko) Chrome/118.0.0.0 Safari/537.36","WebKit","Chrome","118.0.0.0","Windows","10.0","null","es-AR,es-US;q=0.9,es-419;q=0.8,es;q=0.7","true","null","<p id=""stimulus"" style=""font-size:100px;"">33</p>","null","","","tone_number_task_remaining_before_delay","","33","","313.5","100","0","27",""
"","","","","","html-keyboard-response","159","1686526","0.0-192.0-0.0","19","1","2023-10-20 21:15:55","a725c3012b74bf33a1020a98cb69c237","190.194.167.208","Mozilla/5.0 (Windows NT 10.0; Win64; x64) AppleWebKit/537.36 (KHTML, like Gecko) Chrome/118.0.0.0 Safari/537.36","WebKit","Chrome","118.0.0.0","Windows","10.0","null","es-AR,es-US;q=0.9,es-419;q=0.8,es;q=0.7","true","268","<p id=""stimulus"" style=""font-size:100px;"">33</p>","j","","","empty_block","","33","","","","0","27",""
"","","","","","html-keyboard-response","160","1689204","0.0-193.0","19","1","2023-10-20 21:15:55","a725c3012b74bf33a1020a98cb69c237","190.194.167.208","Mozilla/5.0 (Windows NT 10.0; Win64; x64) AppleWebKit/537.36 (KHTML, like Gecko) Chrome/118.0.0.0 Safari/537.36","WebKit","Chrome","118.0.0.0","Windows","10.0","null","es-AR,es-US;q=0.9,es-419;q=0.8,es;q=0.7","true","null","<div style=""font-size:100px;"">X</div>","null","","","fixation","","","","","","","",""
"","","","","","audio-keyboard-response","161","1689930","0.0-194.0","19","1","2023-10-20 21:15:55","a725c3012b74bf33a1020a98cb69c237","190.194.167.208","Mozilla/5.0 (Windows NT 10.0; Win64; x64) AppleWebKit/537.36 (KHTML, like Gecko) Chrome/118.0.0.0 Safari/537.36","WebKit","Chrome","118.0.0.0","Windows","10.0","null","es-AR,es-US;q=0.9,es-419;q=0.8,es;q=0.7","true","720","tones/880hz_short.mp3","s","","","tone_number_task","992.5","28","tones/880hz_short.mp3","1142.5","100","0","28",""
"","","","","","html-keyboard-response","162","1690208","0.0-195.0-0.0","19","1","2023-10-20 21:15:55","a725c3012b74bf33a1020a98cb69c237","190.194.167.208","Mozilla/5.0 (Windows NT 10.0; Win64; x64) AppleWebKit/537.36 (KHTML, like Gecko) Chrome/118.0.0.0 Safari/537.36","WebKit","Chrome","118.0.0.0","Windows","10.0","null","es-AR,es-US;q=0.9,es-419;q=0.8,es;q=0.7","true","null","","null","","","delay_block","","","","","","0","28",""
"","","","","","html-keyboard-response","163","1690365","0.0-195.0-1.0","19","1","2023-10-20 21:15:55","a725c3012b74bf33a1020a98cb69c237","190.194.167.208","Mozilla/5.0 (Windows NT 10.0; Win64; x64) AppleWebKit/537.36 (KHTML, like Gecko) Chrome/118.0.0.0 Safari/537.36","WebKit","Chrome","118.0.0.0","Windows","10.0","null","es-AR,es-US;q=0.9,es-419;q=0.8,es;q=0.7","true","null","<p id=""stimulus"" style=""font-size:100px;"">28</p>","null","","","tone_number_task_remaining_before_delay","","28","","422.5","100","0","28",""
"","","","","","html-keyboard-response","164","1690634","0.0-198.0-0.0","19","1","2023-10-20 21:15:55","a725c3012b74bf33a1020a98cb69c237","190.194.167.208","Mozilla/5.0 (Windows NT 10.0; Win64; x64) AppleWebKit/537.36 (KHTML, like Gecko) Chrome/118.0.0.0 Safari/537.36","WebKit","Chrome","118.0.0.0","Windows","10.0","null","es-AR,es-US;q=0.9,es-419;q=0.8,es;q=0.7","true","264","<p id=""stimulus"" style=""font-size:100px;"">28</p>","j","","","empty_block","","28","","","","0","28",""
"","","","","","html-keyboard-response","165","1693309","0.0-199.0","19","1","2023-10-20 21:15:55","a725c3012b74bf33a1020a98cb69c237","190.194.167.208","Mozilla/5.0 (Windows NT 10.0; Win64; x64) AppleWebKit/537.36 (KHTML, like Gecko) Chrome/118.0.0.0 Safari/537.36","WebKit","Chrome","118.0.0.0","Windows","10.0","null","es-AR,es-US;q=0.9,es-419;q=0.8,es;q=0.7","true","null","<div style=""font-size:100px;"">X</div>","null","","","fixation","","","","","","","",""
"","","","","","audio-keyboard-response","166","1693568","0.0-200.0","19","1","2023-10-20 21:15:55","a725c3012b74bf33a1020a98cb69c237","190.194.167.208","Mozilla/5.0 (Windows NT 10.0; Win64; x64) AppleWebKit/537.36 (KHTML, like Gecko) Chrome/118.0.0.0 Safari/537.36","WebKit","Chrome","118.0.0.0","Windows","10.0","null","es-AR,es-US;q=0.9,es-419;q=0.8,es;q=0.7","true","null","tones/440hz_short.mp3","null","","","tone_number_task","102.5","61","tones/440hz_short.mp3","252.5","100","0","29",""
"","","","","","html-keyboard-response","167","1694740","0.0-203.0-0.0","19","1","2023-10-20 21:15:55","a725c3012b74bf33a1020a98cb69c237","190.194.167.208","Mozilla/5.0 (Windows NT 10.0; Win64; x64) AppleWebKit/537.36 (KHTML, like Gecko) Chrome/118.0.0.0 Safari/537.36","WebKit","Chrome","118.0.0.0","Windows","10.0","null","es-AR,es-US;q=0.9,es-419;q=0.8,es;q=0.7","true","1166","tones/440hz_short.mp3","a","","","empty_block","","61","","","","0","29",""
"","","","","","html-keyboard-response","168","1695002","0.0-203.0-1.0","19","1","2023-10-20 21:15:55","a725c3012b74bf33a1020a98cb69c237","190.194.167.208","Mozilla/5.0 (Windows NT 10.0; Win64; x64) AppleWebKit/537.36 (KHTML, like Gecko) Chrome/118.0.0.0 Safari/537.36","WebKit","Chrome","118.0.0.0","Windows","10.0","null","es-AR,es-US;q=0.9,es-419;q=0.8,es;q=0.7","true","257","tones/440hz_short.mp3","k","","","empty_block","","61","","","","0","29",""
"","","","","","html-keyboard-response","169","1697677","0.0-205.0","19","1","2023-10-20 21:15:55","a725c3012b74bf33a1020a98cb69c237","190.194.167.208","Mozilla/5.0 (Windows NT 10.0; Win64; x64) AppleWebKit/537.36 (KHTML, like Gecko) Chrome/118.0.0.0 Safari/537.36","WebKit","Chrome","118.0.0.0","Windows","10.0","null","es-AR,es-US;q=0.9,es-419;q=0.8,es;q=0.7","true","null","<div style=""font-size:100px;"">X</div>","null","","","fixation","","","","","","","",""
"","","","","","audio-keyboard-response","170","1697936","0.0-206.0","19","1","2023-10-20 21:15:55","a725c3012b74bf33a1020a98cb69c237","190.194.167.208","Mozilla/5.0 (Windows NT 10.0; Win64; x64) AppleWebKit/537.36 (KHTML, like Gecko) Chrome/118.0.0.0 Safari/537.36","WebKit","Chrome","118.0.0.0","Windows","10.0","null","es-AR,es-US;q=0.9,es-419;q=0.8,es;q=0.7","true","null","tones/880hz_short.mp3","null","","","tone_number_task","102.5","66","tones/880hz_short.mp3","252.5","100","0","30",""
"","","","","","html-keyboard-response","171","1698160","0.0-209.0-0.0","19","1","2023-10-20 21:15:55","a725c3012b74bf33a1020a98cb69c237","190.194.167.208","Mozilla/5.0 (Windows NT 10.0; Win64; x64) AppleWebKit/537.36 (KHTML, like Gecko) Chrome/118.0.0.0 Safari/537.36","WebKit","Chrome","118.0.0.0","Windows","10.0","null","es-AR,es-US;q=0.9,es-419;q=0.8,es;q=0.7","true","219","tones/880hz_short.mp3","s","","","empty_block","","66","","","","0","30",""
"","","","","","html-keyboard-response","172","1698467","0.0-209.0-1.0","19","1","2023-10-20 21:15:55","a725c3012b74bf33a1020a98cb69c237","190.194.167.208","Mozilla/5.0 (Windows NT 10.0; Win64; x64) AppleWebKit/537.36 (KHTML, like Gecko) Chrome/118.0.0.0 Safari/537.36","WebKit","Chrome","118.0.0.0","Windows","10.0","null","es-AR,es-US;q=0.9,es-419;q=0.8,es;q=0.7","true","302","tones/880hz_short.mp3","k","","","empty_block","","66","","","","0","30",""
"","","","","","html-keyboard-response","173","1701143","0.0-211.0","19","1","2023-10-20 21:15:55","a725c3012b74bf33a1020a98cb69c237","190.194.167.208","Mozilla/5.0 (Windows NT 10.0; Win64; x64) AppleWebKit/537.36 (KHTML, like Gecko) Chrome/118.0.0.0 Safari/537.36","WebKit","Chrome","118.0.0.0","Windows","10.0","null","es-AR,es-US;q=0.9,es-419;q=0.8,es;q=0.7","true","null","<div style=""font-size:100px;"">X</div>","null","","","fixation","","","","","","","",""
"","","","","","audio-keyboard-response","174","1701760","0.0-212.0","19","1","2023-10-20 21:15:55","a725c3012b74bf33a1020a98cb69c237","190.194.167.208","Mozilla/5.0 (Windows NT 10.0; Win64; x64) AppleWebKit/537.36 (KHTML, like Gecko) Chrome/118.0.0.0 Safari/537.36","WebKit","Chrome","118.0.0.0","Windows","10.0","null","es-AR,es-US;q=0.9,es-419;q=0.8,es;q=0.7","true","608","tones/880hz_short.mp3","s","","","tone_number_task","1025","53","tones/880hz_short.mp3","1175","100","0","31",""
"","","","","","html-keyboard-response","175","1702184","0.0-213.0-0.0","19","1","2023-10-20 21:15:55","a725c3012b74bf33a1020a98cb69c237","190.194.167.208","Mozilla/5.0 (Windows NT 10.0; Win64; x64) AppleWebKit/537.36 (KHTML, like Gecko) Chrome/118.0.0.0 Safari/537.36","WebKit","Chrome","118.0.0.0","Windows","10.0","null","es-AR,es-US;q=0.9,es-419;q=0.8,es;q=0.7","true","null","","null","","","delay_block","","","","","","0","31",""
"","","","","","html-keyboard-response","176","1702342","0.0-213.0-1.0","19","1","2023-10-20 21:15:55","a725c3012b74bf33a1020a98cb69c237","190.194.167.208","Mozilla/5.0 (Windows NT 10.0; Win64; x64) AppleWebKit/537.36 (KHTML, like Gecko) Chrome/118.0.0.0 Safari/537.36","WebKit","Chrome","118.0.0.0","Windows","10.0","null","es-AR,es-US;q=0.9,es-419;q=0.8,es;q=0.7","true","null","<p id=""stimulus"" style=""font-size:100px;"">53</p>","null","","","tone_number_task_remaining_before_delay","","53","","567","100","0","31",""
"","","","","","html-keyboard-response","177","1702886","0.0-216.0-0.0","19","1","2023-10-20 21:15:55","a725c3012b74bf33a1020a98cb69c237","190.194.167.208","Mozilla/5.0 (Windows NT 10.0; Win64; x64) AppleWebKit/537.36 (KHTML, like Gecko) Chrome/118.0.0.0 Safari/537.36","WebKit","Chrome","118.0.0.0","Windows","10.0","null","es-AR,es-US;q=0.9,es-419;q=0.8,es;q=0.7","true","538","<p id=""stimulus"" style=""font-size:100px;"">53</p>","k","","","empty_block","","53","","","","0","31",""
"","","","","","html-keyboard-response","178","1705564","0.0-217.0","19","1","2023-10-20 21:15:55","a725c3012b74bf33a1020a98cb69c237","190.194.167.208","Mozilla/5.0 (Windows NT 10.0; Win64; x64) AppleWebKit/537.36 (KHTML, like Gecko) Chrome/118.0.0.0 Safari/537.36","WebKit","Chrome","118.0.0.0","Windows","10.0","null","es-AR,es-US;q=0.9,es-419;q=0.8,es;q=0.7","true","null","<div style=""font-size:100px;"">X</div>","null","","","fixation","","","","","","","",""
"","","","","","audio-keyboard-response","179","1706137","0.0-218.0","19","1","2023-10-20 21:15:55","a725c3012b74bf33a1020a98cb69c237","190.194.167.208","Mozilla/5.0 (Windows NT 10.0; Win64; x64) AppleWebKit/537.36 (KHTML, like Gecko) Chrome/118.0.0.0 Safari/537.36","WebKit","Chrome","118.0.0.0","Windows","10.0","null","es-AR,es-US;q=0.9,es-419;q=0.8,es;q=0.7","true","571","tones/440hz_short.mp3","a","","","tone_number_task","992.5","62","tones/440hz_short.mp3","1142.5","100","0","32",""
"","","","","","html-keyboard-response","180","1706563","0.0-219.0-0.0","19","1","2023-10-20 21:15:55","a725c3012b74bf33a1020a98cb69c237","190.194.167.208","Mozilla/5.0 (Windows NT 10.0; Win64; x64) AppleWebKit/537.36 (KHTML, like Gecko) Chrome/118.0.0.0 Safari/537.36","WebKit","Chrome","118.0.0.0","Windows","10.0","null","es-AR,es-US;q=0.9,es-419;q=0.8,es;q=0.7","true","null","","null","","","delay_block","","","","","","0","32",""
"","","","","","html-keyboard-response","181","1706718","0.0-219.0-1.0","19","1","2023-10-20 21:15:55","a725c3012b74bf33a1020a98cb69c237","190.194.167.208","Mozilla/5.0 (Windows NT 10.0; Win64; x64) AppleWebKit/537.36 (KHTML, like Gecko) Chrome/118.0.0.0 Safari/537.36","WebKit","Chrome","118.0.0.0","Windows","10.0","null","es-AR,es-US;q=0.9,es-419;q=0.8,es;q=0.7","true","null","<p id=""stimulus"" style=""font-size:100px;"">62</p>","null","","","tone_number_task_remaining_before_delay","","62","","571.5","100","0","32",""
"","","","","","html-keyboard-response","182","1707161","0.0-222.0-0.0","19","1","2023-10-20 21:15:55","a725c3012b74bf33a1020a98cb69c237","190.194.167.208","Mozilla/5.0 (Windows NT 10.0; Win64; x64) AppleWebKit/537.36 (KHTML, like Gecko) Chrome/118.0.0.0 Safari/537.36","WebKit","Chrome","118.0.0.0","Windows","10.0","null","es-AR,es-US;q=0.9,es-419;q=0.8,es;q=0.7","true","437","<p id=""stimulus"" style=""font-size:100px;"">62</p>","k","","","empty_block","","62","","","","0","32",""
"","","","","","html-keyboard-response","183","1709837","0.0-223.0","19","1","2023-10-20 21:15:55","a725c3012b74bf33a1020a98cb69c237","190.194.167.208","Mozilla/5.0 (Windows NT 10.0; Win64; x64) AppleWebKit/537.36 (KHTML, like Gecko) Chrome/118.0.0.0 Safari/537.36","WebKit","Chrome","118.0.0.0","Windows","10.0","null","es-AR,es-US;q=0.9,es-419;q=0.8,es;q=0.7","true","null","<div style=""font-size:100px;"">X</div>","null","","","fixation","","","","","","","",""
"","","","","","audio-keyboard-response","184","1710288","0.0-224.0","19","1","2023-10-20 21:15:55","a725c3012b74bf33a1020a98cb69c237","190.194.167.208","Mozilla/5.0 (Windows NT 10.0; Win64; x64) AppleWebKit/537.36 (KHTML, like Gecko) Chrome/118.0.0.0 Safari/537.36","WebKit","Chrome","118.0.0.0","Windows","10.0","null","es-AR,es-US;q=0.9,es-419;q=0.8,es;q=0.7","true","451","tones/880hz_short.mp3","s","","","tone_number_task","1025","44","tones/880hz_short.mp3","1175","100","0","33",""
"","","","","","html-keyboard-response","185","1710867","0.0-225.0-0.0","19","1","2023-10-20 21:15:55","a725c3012b74bf33a1020a98cb69c237","190.194.167.208","Mozilla/5.0 (Windows NT 10.0; Win64; x64) AppleWebKit/537.36 (KHTML, like Gecko) Chrome/118.0.0.0 Safari/537.36","WebKit","Chrome","118.0.0.0","Windows","10.0","null","es-AR,es-US;q=0.9,es-419;q=0.8,es;q=0.7","true","null","","null","","","delay_block","","","","","","0","33",""
"","","","","","html-keyboard-response","186","1711025","0.0-225.0-1.0","19","1","2023-10-20 21:15:55","a725c3012b74bf33a1020a98cb69c237","190.194.167.208","Mozilla/5.0 (Windows NT 10.0; Win64; x64) AppleWebKit/537.36 (KHTML, like Gecko) Chrome/118.0.0.0 Safari/537.36","WebKit","Chrome","118.0.0.0","Windows","10.0","null","es-AR,es-US;q=0.9,es-419;q=0.8,es;q=0.7","true","null","<p id=""stimulus"" style=""font-size:100px;"">44</p>","null","","","tone_number_task_remaining_before_delay","","44","","724","100","0","33",""
"","","","","","html-keyboard-response","187","1711341","0.0-228.0-0.0","19","1","2023-10-20 21:15:55","a725c3012b74bf33a1020a98cb69c237","190.194.167.208","Mozilla/5.0 (Windows NT 10.0; Win64; x64) AppleWebKit/537.36 (KHTML, like Gecko) Chrome/118.0.0.0 Safari/537.36","WebKit","Chrome","118.0.0.0","Windows","10.0","null","es-AR,es-US;q=0.9,es-419;q=0.8,es;q=0.7","true","311","<p id=""stimulus"" style=""font-size:100px;"">44</p>","j","","","empty_block","","44","","","","0","33",""
"","","","","","html-keyboard-response","188","1714018","0.0-229.0","19","1","2023-10-20 21:15:55","a725c3012b74bf33a1020a98cb69c237","190.194.167.208","Mozilla/5.0 (Windows NT 10.0; Win64; x64) AppleWebKit/537.36 (KHTML, like Gecko) Chrome/118.0.0.0 Safari/537.36","WebKit","Chrome","118.0.0.0","Windows","10.0","null","es-AR,es-US;q=0.9,es-419;q=0.8,es;q=0.7","true","null","<div style=""font-size:100px;"">X</div>","null","","","fixation","","","","","","","",""
"","","","","","audio-keyboard-response","189","1714768","0.0-230.0","19","1","2023-10-20 21:15:55","a725c3012b74bf33a1020a98cb69c237","190.194.167.208","Mozilla/5.0 (Windows NT 10.0; Win64; x64) AppleWebKit/537.36 (KHTML, like Gecko) Chrome/118.0.0.0 Safari/537.36","WebKit","Chrome","118.0.0.0","Windows","10.0","null","es-AR,es-US;q=0.9,es-419;q=0.8,es;q=0.7","true","749","tones/880hz_short.mp3","s","","","tone_number_task","1025","34","tones/880hz_short.mp3","1175","100","0","34",""
"","","","","","html-keyboard-response","190","1715050","0.0-231.0-0.0","19","1","2023-10-20 21:15:55","a725c3012b74bf33a1020a98cb69c237","190.194.167.208","Mozilla/5.0 (Windows NT 10.0; Win64; x64) AppleWebKit/537.36 (KHTML, like Gecko) Chrome/118.0.0.0 Safari/537.36","WebKit","Chrome","118.0.0.0","Windows","10.0","null","es-AR,es-US;q=0.9,es-419;q=0.8,es;q=0.7","true","null","","null","","","delay_block","","","","","","0","34",""
"","","","","","html-keyboard-response","191","1715207","0.0-231.0-1.0","19","1","2023-10-20 21:15:55","a725c3012b74bf33a1020a98cb69c237","190.194.167.208","Mozilla/5.0 (Windows NT 10.0; Win64; x64) AppleWebKit/537.36 (KHTML, like Gecko) Chrome/118.0.0.0 Safari/537.36","WebKit","Chrome","118.0.0.0","Windows","10.0","null","es-AR,es-US;q=0.9,es-419;q=0.8,es;q=0.7","true","null","<p id=""stimulus"" style=""font-size:100px;"">34</p>","null","","","tone_number_task_remaining_before_delay","","34","","426","100","0","34",""
"","","","","","html-keyboard-response","192","1715478","0.0-234.0-0.0","19","1","2023-10-20 21:15:55","a725c3012b74bf33a1020a98cb69c237","190.194.167.208","Mozilla/5.0 (Windows NT 10.0; Win64; x64) AppleWebKit/537.36 (KHTML, like Gecko) Chrome/118.0.0.0 Safari/537.36","WebKit","Chrome","118.0.0.0","Windows","10.0","null","es-AR,es-US;q=0.9,es-419;q=0.8,es;q=0.7","true","265","<p id=""stimulus"" style=""font-size:100px;"">34</p>","j","","","empty_block","","34","","","","0","34",""
"","","","","","html-keyboard-response","193","1718154","0.0-235.0","19","1","2023-10-20 21:15:55","a725c3012b74bf33a1020a98cb69c237","190.194.167.208","Mozilla/5.0 (Windows NT 10.0; Win64; x64) AppleWebKit/537.36 (KHTML, like Gecko) Chrome/118.0.0.0 Safari/537.36","WebKit","Chrome","118.0.0.0","Windows","10.0","null","es-AR,es-US;q=0.9,es-419;q=0.8,es;q=0.7","true","null","<div style=""font-size:100px;"">X</div>","null","","","fixation","","","","","","","",""
"","","","","","audio-keyboard-response","194","1718414","0.0-236.0","19","1","2023-10-20 21:15:55","a725c3012b74bf33a1020a98cb69c237","190.194.167.208","Mozilla/5.0 (Windows NT 10.0; Win64; x64) AppleWebKit/537.36 (KHTML, like Gecko) Chrome/118.0.0.0 Safari/537.36","WebKit","Chrome","118.0.0.0","Windows","10.0","null","es-AR,es-US;q=0.9,es-419;q=0.8,es;q=0.7","true","null","tones/440hz_short.mp3","null","","","tone_number_task","102.5","31","tones/440hz_short.mp3","252.5","100","0","35",""
"","","","","","html-keyboard-response","195","1718824","0.0-239.0-0.0","19","1","2023-10-20 21:15:55","a725c3012b74bf33a1020a98cb69c237","190.194.167.208","Mozilla/5.0 (Windows NT 10.0; Win64; x64) AppleWebKit/537.36 (KHTML, like Gecko) Chrome/118.0.0.0 Safari/537.36","WebKit","Chrome","118.0.0.0","Windows","10.0","null","es-AR,es-US;q=0.9,es-419;q=0.8,es;q=0.7","true","404","tones/440hz_short.mp3","a","","","empty_block","","31","","","","0","35",""
"","","","","","html-keyboard-response","196","1719149","0.0-239.0-1.0","19","1","2023-10-20 21:15:55","a725c3012b74bf33a1020a98cb69c237","190.194.167.208","Mozilla/5.0 (Windows NT 10.0; Win64; x64) AppleWebKit/537.36 (KHTML, like Gecko) Chrome/118.0.0.0 Safari/537.36","WebKit","Chrome","118.0.0.0","Windows","10.0","null","es-AR,es-US;q=0.9,es-419;q=0.8,es;q=0.7","true","320","tones/440hz_short.mp3","j","","","empty_block","","31","","","","0","35",""
"","","","","","html-keyboard-response","197","1721824","0.0-241.0","19","1","2023-10-20 21:15:55","a725c3012b74bf33a1020a98cb69c237","190.194.167.208","Mozilla/5.0 (Windows NT 10.0; Win64; x64) AppleWebKit/537.36 (KHTML, like Gecko) Chrome/118.0.0.0 Safari/537.36","WebKit","Chrome","118.0.0.0","Windows","10.0","null","es-AR,es-US;q=0.9,es-419;q=0.8,es;q=0.7","true","null","<div style=""font-size:100px;"">X</div>","null","","","fixation","","","","","","","",""
"","","","","","audio-keyboard-response","198","1722504","0.0-242.0","19","1","2023-10-20 21:15:55","a725c3012b74bf33a1020a98cb69c237","190.194.167.208","Mozilla/5.0 (Windows NT 10.0; Win64; x64) AppleWebKit/537.36 (KHTML, like Gecko) Chrome/118.0.0.0 Safari/537.36","WebKit","Chrome","118.0.0.0","Windows","10.0","null","es-AR,es-US;q=0.9,es-419;q=0.8,es;q=0.7","true","669","tones/880hz_short.mp3","a","","","tone_number_task","992.5","55","tones/880hz_short.mp3","1142.5","100","0","36",""
"","","","","","html-keyboard-response","199","1722834","0.0-243.0-0.0","19","1","2023-10-20 21:15:55","a725c3012b74bf33a1020a98cb69c237","190.194.167.208","Mozilla/5.0 (Windows NT 10.0; Win64; x64) AppleWebKit/537.36 (KHTML, like Gecko) Chrome/118.0.0.0 Safari/537.36","WebKit","Chrome","118.0.0.0","Windows","10.0","null","es-AR,es-US;q=0.9,es-419;q=0.8,es;q=0.7","true","null","","null","","","delay_block","","","","","","0","36",""
"","","","","","html-keyboard-response","200","1722991","0.0-243.0-1.0","19","1","2023-10-20 21:15:55","a725c3012b74bf33a1020a98cb69c237","190.194.167.208","Mozilla/5.0 (Windows NT 10.0; Win64; x64) AppleWebKit/537.36 (KHTML, like Gecko) Chrome/118.0.0.0 Safari/537.36","WebKit","Chrome","118.0.0.0","Windows","10.0","null","es-AR,es-US;q=0.9,es-419;q=0.8,es;q=0.7","true","null","<p id=""stimulus"" style=""font-size:100px;"">55</p>","null","","","tone_number_task_remaining_before_delay","","55","","473.5","100","0","36",""
"","","","","","html-keyboard-response","201","1723427","0.0-246.0-0.0","19","1","2023-10-20 21:15:55","a725c3012b74bf33a1020a98cb69c237","190.194.167.208","Mozilla/5.0 (Windows NT 10.0; Win64; x64) AppleWebKit/537.36 (KHTML, like Gecko) Chrome/118.0.0.0 Safari/537.36","WebKit","Chrome","118.0.0.0","Windows","10.0","null","es-AR,es-US;q=0.9,es-419;q=0.8,es;q=0.7","true","430","<p id=""stimulus"" style=""font-size:100px;"">55</p>","k","","","empty_block","","55","","","","0","36",""
"","","","","","html-keyboard-response","202","1726104","0.0-247.0","19","1","2023-10-20 21:15:55","a725c3012b74bf33a1020a98cb69c237","190.194.167.208","Mozilla/5.0 (Windows NT 10.0; Win64; x64) AppleWebKit/537.36 (KHTML, like Gecko) Chrome/118.0.0.0 Safari/537.36","WebKit","Chrome","118.0.0.0","Windows","10.0","null","es-AR,es-US;q=0.9,es-419;q=0.8,es;q=0.7","true","null","<div style=""font-size:100px;"">X</div>","null","","","fixation","","","","","","","",""
"","","","","","audio-keyboard-response","203","1726362","0.0-248.0","19","1","2023-10-20 21:15:55","a725c3012b74bf33a1020a98cb69c237","190.194.167.208","Mozilla/5.0 (Windows NT 10.0; Win64; x64) AppleWebKit/537.36 (KHTML, like Gecko) Chrome/118.0.0.0 Safari/537.36","WebKit","Chrome","118.0.0.0","Windows","10.0","null","es-AR,es-US;q=0.9,es-419;q=0.8,es;q=0.7","true","null","tones/880hz_short.mp3","null","","","tone_number_task","102.5","64","tones/880hz_short.mp3","252.5","100","0","37",""
"","","","","","html-keyboard-response","204","1726569","0.0-251.0-0.0","19","1","2023-10-20 21:15:55","a725c3012b74bf33a1020a98cb69c237","190.194.167.208","Mozilla/5.0 (Windows NT 10.0; Win64; x64) AppleWebKit/537.36 (KHTML, like Gecko) Chrome/118.0.0.0 Safari/537.36","WebKit","Chrome","118.0.0.0","Windows","10.0","null","es-AR,es-US;q=0.9,es-419;q=0.8,es;q=0.7","true","204","tones/880hz_short.mp3","s","","","empty_block","","64","","","","0","37",""
"","","","","","html-keyboard-response","205","1726995","0.0-251.0-1.0","19","1","2023-10-20 21:15:55","a725c3012b74bf33a1020a98cb69c237","190.194.167.208","Mozilla/5.0 (Windows NT 10.0; Win64; x64) AppleWebKit/537.36 (KHTML, like Gecko) Chrome/118.0.0.0 Safari/537.36","WebKit","Chrome","118.0.0.0","Windows","10.0","null","es-AR,es-US;q=0.9,es-419;q=0.8,es;q=0.7","true","423","tones/880hz_short.mp3","k","","","empty_block","","64","","","","0","37",""
"","","","","","html-keyboard-response","206","1729668","0.0-253.0","19","1","2023-10-20 21:15:55","a725c3012b74bf33a1020a98cb69c237","190.194.167.208","Mozilla/5.0 (Windows NT 10.0; Win64; x64) AppleWebKit/537.36 (KHTML, like Gecko) Chrome/118.0.0.0 Safari/537.36","WebKit","Chrome","118.0.0.0","Windows","10.0","null","es-AR,es-US;q=0.9,es-419;q=0.8,es;q=0.7","true","null","<div style=""font-size:100px;"">X</div>","null","","","fixation","","","","","","","",""
"","","","","","audio-keyboard-response","207","1730107","0.0-254.0","19","1","2023-10-20 21:15:55","a725c3012b74bf33a1020a98cb69c237","190.194.167.208","Mozilla/5.0 (Windows NT 10.0; Win64; x64) AppleWebKit/537.36 (KHTML, like Gecko) Chrome/118.0.0.0 Safari/537.36","WebKit","Chrome","118.0.0.0","Windows","10.0","null","es-AR,es-US;q=0.9,es-419;q=0.8,es;q=0.7","true","429","tones/880hz_short.mp3","s","","","tone_number_task","992.5","27","tones/880hz_short.mp3","1142.5","100","0","38",""
