"success","timeout","failed_images","failed_audio","failed_video","trial_type","trial_index","time_elapsed","internal_node_id","run_id","condition","recorded_at","source_code_version","ip","user_agent","device","browser","browser_version","platform","platform_version","referer","accept_language","check","rt","stimulus","response","question_order","url","task","delay","number","audioFile","trial_duration","font_size","block","round","value"
"true","false","[]","[]","[]","preload","0","260","0.0-0.0","49","1","2023-11-01 00:41:20","a725c3012b74bf33a1020a98cb69c237","186.13.97.33","Mozilla/5.0 (Windows NT 10.0; Win64; x64) AppleWebKit/537.36 (KHTML, like Gecko) Chrome/118.0.0.0 Safari/537.36","WebKit","Chrome","118.0.0.0","Windows","10.0","null","pt,en-US;q=0.9,en;q=0.8","true","","","","","","","","","","","","","",""
"true","","","","","fullscreen","1","142698","0.0-1.0","49","1","2023-11-01 00:41:20","a725c3012b74bf33a1020a98cb69c237","186.13.97.33","Mozilla/5.0 (Windows NT 10.0; Win64; x64) AppleWebKit/537.36 (KHTML, like Gecko) Chrome/118.0.0.0 Safari/537.36","WebKit","Chrome","118.0.0.0","Windows","10.0","null","pt,en-US;q=0.9,en;q=0.8","true","","","","","","","","","","","","","",""
"","","","","","html-button-response","2","146492","0.0-2.0","49","1","2023-11-01 00:41:20","a725c3012b74bf33a1020a98cb69c237","186.13.97.33","Mozilla/5.0 (Windows NT 10.0; Win64; x64) AppleWebKit/537.36 (KHTML, like Gecko) Chrome/118.0.0.0 Safari/537.36","WebKit","Chrome","118.0.0.0","Windows","10.0","null","pt,en-US;q=0.9,en;q=0.8","true","3792","<p style=""font-size:24px; color:red;"">Cosas importantes a tener en cuenta antes de comenzar el experimento:</p>","0","","","","","","","","","","",""
"","","","","","html-button-response","3","152888","0.0-3.0","49","1","2023-11-01 00:41:20","a725c3012b74bf33a1020a98cb69c237","186.13.97.33","Mozilla/5.0 (Windows NT 10.0; Win64; x64) AppleWebKit/537.36 (KHTML, like Gecko) Chrome/118.0.0.0 Safari/537.36","WebKit","Chrome","118.0.0.0","Windows","10.0","null","pt,en-US;q=0.9,en;q=0.8","true","6396","<p style=""font-size:24px;"">El experimento dura aproximadamente 15 minutos.</p><p style=""font-size:24px;"">Por favor, no cierres la ventana del navegador durante el experimento.</p><p style=""font-size:24px;"">Si se completa de forma parcial, no se guardará ningún resultado.</p>","0","","","","","","","","","","",""
"","","","","","html-button-response","4","156286","0.0-4.0","49","1","2023-11-01 00:41:20","a725c3012b74bf33a1020a98cb69c237","186.13.97.33","Mozilla/5.0 (Windows NT 10.0; Win64; x64) AppleWebKit/537.36 (KHTML, like Gecko) Chrome/118.0.0.0 Safari/537.36","WebKit","Chrome","118.0.0.0","Windows","10.0","null","pt,en-US;q=0.9,en;q=0.8","true","3397","<p style=""font-size:24px;"">El experimento contiene estímulos sonoros.</p>","0","","","","","","","","","","",""
"","","","","","audio-button-response","5","161403","0.0-5.0-0.0","49","1","2023-11-01 00:41:20","a725c3012b74bf33a1020a98cb69c237","186.13.97.33","Mozilla/5.0 (Windows NT 10.0; Win64; x64) AppleWebKit/537.36 (KHTML, like Gecko) Chrome/118.0.0.0 Safari/537.36","WebKit","Chrome","118.0.0.0","Windows","10.0","null","pt,en-US;q=0.9,en;q=0.8","true","5101","tones/440hz_short.mp3","0","","","","","","","","","","",""
"","","","","","audio-button-response","6","180629","0.0-5.1-0.1","49","1","2023-11-01 00:41:20","a725c3012b74bf33a1020a98cb69c237","186.13.97.33","Mozilla/5.0 (Windows NT 10.0; Win64; x64) AppleWebKit/537.36 (KHTML, like Gecko) Chrome/118.0.0.0 Safari/537.36","WebKit","Chrome","118.0.0.0","Windows","10.0","null","pt,en-US;q=0.9,en;q=0.8","true","19229","tones/440hz_short.mp3","1","","","","","","","","","","",""
"","","","","","audio-button-response","7","183370","0.0-6.0-0.0","49","1","2023-11-01 00:41:20","a725c3012b74bf33a1020a98cb69c237","186.13.97.33","Mozilla/5.0 (Windows NT 10.0; Win64; x64) AppleWebKit/537.36 (KHTML, like Gecko) Chrome/118.0.0.0 Safari/537.36","WebKit","Chrome","118.0.0.0","Windows","10.0","null","pt,en-US;q=0.9,en;q=0.8","true","2739","tones/880hz_short.mp3","1","","","","","","","","","","",""
"","","","","","survey-html-form","8","187634","0.0-7.0","49","1","2023-11-01 00:41:20","a725c3012b74bf33a1020a98cb69c237","186.13.97.33","Mozilla/5.0 (Windows NT 10.0; Win64; x64) AppleWebKit/537.36 (KHTML, like Gecko) Chrome/118.0.0.0 Safari/537.36","WebKit","Chrome","118.0.0.0","Windows","10.0","null","pt,en-US;q=0.9,en;q=0.8","true","4261","","{""response"":""43""}","","","","","","","","","","",""
"","","","","","survey-multi-choice","9","192738","0.0-8.0","49","1","2023-11-01 00:41:20","a725c3012b74bf33a1020a98cb69c237","186.13.97.33","Mozilla/5.0 (Windows NT 10.0; Win64; x64) AppleWebKit/537.36 (KHTML, like Gecko) Chrome/118.0.0.0 Safari/537.36","WebKit","Chrome","118.0.0.0","Windows","10.0","null","pt,en-US;q=0.9,en;q=0.8","true","5102","","{""gender"":""Mujer"",""hand"":""Derecha""}","[0,1]","","","","","","","","","",""
"","","","","","external-html","10","270750","0.0-9.0","49","1","2023-11-01 00:41:20","a725c3012b74bf33a1020a98cb69c237","186.13.97.33","Mozilla/5.0 (Windows NT 10.0; Win64; x64) AppleWebKit/537.36 (KHTML, like Gecko) Chrome/118.0.0.0 Safari/537.36","WebKit","Chrome","118.0.0.0","Windows","10.0","null","pt,en-US;q=0.9,en;q=0.8","true","77727","","","","instructions/instructions.html","","","","","","","","",""
"","","","","","external-html","11","301150","0.0-10.0","49","1","2023-11-01 00:41:20","a725c3012b74bf33a1020a98cb69c237","186.13.97.33","Mozilla/5.0 (Windows NT 10.0; Win64; x64) AppleWebKit/537.36 (KHTML, like Gecko) Chrome/118.0.0.0 Safari/537.36","WebKit","Chrome","118.0.0.0","Windows","10.0","null","pt,en-US;q=0.9,en;q=0.8","true","30108","","","","instructions/animation.html","","","","","","","","",""
"","","","","","html-keyboard-response","12","303942","0.0-11.0-0.0","49","1","2023-11-01 00:41:20","a725c3012b74bf33a1020a98cb69c237","186.13.97.33","Mozilla/5.0 (Windows NT 10.0; Win64; x64) AppleWebKit/537.36 (KHTML, like Gecko) Chrome/118.0.0.0 Safari/537.36","WebKit","Chrome","118.0.0.0","Windows","10.0","null","pt,en-US;q=0.9,en;q=0.8","true","null","<div style=""font-size:100px;"">X</div>","null","","","fixation","","","","","","","",""
"","","","","","audio-keyboard-response","13","305094","0.0-11.0-1.0","49","1","2023-11-01 00:41:20","a725c3012b74bf33a1020a98cb69c237","186.13.97.33","Mozilla/5.0 (Windows NT 10.0; Win64; x64) AppleWebKit/537.36 (KHTML, like Gecko) Chrome/118.0.0.0 Safari/537.36","WebKit","Chrome","118.0.0.0","Windows","10.0","null","pt,en-US;q=0.9,en;q=0.8","true","null","tones/440hz_short.mp3","null","","","tone_number_task","1000","69","tones/440hz_short.mp3","1150","100","null","null",""
"","","","","","html-keyboard-response","14","305676","0.0-11.0-4.0-0.0","49","1","2023-11-01 00:41:20","a725c3012b74bf33a1020a98cb69c237","186.13.97.33","Mozilla/5.0 (Windows NT 10.0; Win64; x64) AppleWebKit/537.36 (KHTML, like Gecko) Chrome/118.0.0.0 Safari/537.36","WebKit","Chrome","118.0.0.0","Windows","10.0","null","pt,en-US;q=0.9,en;q=0.8","true","581","tones/440hz_short.mp3","a","","","empty_block","","69","","","","null","null",""
"","","","","","html-keyboard-response","15","307832","0.0-11.0-4.0-1.0","49","1","2023-11-01 00:41:20","a725c3012b74bf33a1020a98cb69c237","186.13.97.33","Mozilla/5.0 (Windows NT 10.0; Win64; x64) AppleWebKit/537.36 (KHTML, like Gecko) Chrome/118.0.0.0 Safari/537.36","WebKit","Chrome","118.0.0.0","Windows","10.0","null","pt,en-US;q=0.9,en;q=0.8","true","2155","tones/440hz_short.mp3","j","","","empty_block","","69","","","","null","null",""
"","","","","","html-button-response","16","313899","0.0-11.0-6.0-0.0","49","1","2023-11-01 00:41:20","a725c3012b74bf33a1020a98cb69c237","186.13.97.33","Mozilla/5.0 (Windows NT 10.0; Win64; x64) AppleWebKit/537.36 (KHTML, like Gecko) Chrome/118.0.0.0 Safari/537.36","WebKit","Chrome","118.0.0.0","Windows","10.0","null","pt,en-US;q=0.9,en;q=0.8","true","6066","
  '<p style=""font-size:24px; color:red;"">Incorrecto</p><p> Respondiste alguno de los estímulos de manera incorrecta.</p><p>Por favor, repasá las instrucciones y seguimos desde donde nos quedamos. </p>
  ","0","","","","","","","","","","",""
"","","","","","external-html","17","336217","0.0-11.0-6.0-1.0","49","1","2023-11-01 00:41:20","a725c3012b74bf33a1020a98cb69c237","186.13.97.33","Mozilla/5.0 (Windows NT 10.0; Win64; x64) AppleWebKit/537.36 (KHTML, like Gecko) Chrome/118.0.0.0 Safari/537.36","WebKit","Chrome","118.0.0.0","Windows","10.0","null","pt,en-US;q=0.9,en;q=0.8","true","22036","","","","instructions/instructions_B.html","","","","","","","","",""
"","","","","","html-keyboard-response","18","339008","0.0-11.1-0.1","49","1","2023-11-01 00:41:20","a725c3012b74bf33a1020a98cb69c237","186.13.97.33","Mozilla/5.0 (Windows NT 10.0; Win64; x64) AppleWebKit/537.36 (KHTML, like Gecko) Chrome/118.0.0.0 Safari/537.36","WebKit","Chrome","118.0.0.0","Windows","10.0","null","pt,en-US;q=0.9,en;q=0.8","true","null","<div style=""font-size:100px;"">X</div>","null","","","fixation","","","","","","","",""
"","","","","","audio-keyboard-response","19","340161","0.0-11.1-1.1","49","1","2023-11-01 00:41:20","a725c3012b74bf33a1020a98cb69c237","186.13.97.33","Mozilla/5.0 (Windows NT 10.0; Win64; x64) AppleWebKit/537.36 (KHTML, like Gecko) Chrome/118.0.0.0 Safari/537.36","WebKit","Chrome","118.0.0.0","Windows","10.0","null","pt,en-US;q=0.9,en;q=0.8","true","null","tones/440hz_short.mp3","null","","","tone_number_task","1000","69","tones/440hz_short.mp3","1150","100","null","null",""
"","","","","","html-keyboard-response","20","340353","0.0-11.1-4.1-0.1","49","1","2023-11-01 00:41:20","a725c3012b74bf33a1020a98cb69c237","186.13.97.33","Mozilla/5.0 (Windows NT 10.0; Win64; x64) AppleWebKit/537.36 (KHTML, like Gecko) Chrome/118.0.0.0 Safari/537.36","WebKit","Chrome","118.0.0.0","Windows","10.0","null","pt,en-US;q=0.9,en;q=0.8","true","191","tones/440hz_short.mp3","a","","","empty_block","","69","","","","null","null",""
"","","","","","html-keyboard-response","21","346443","0.0-11.1-4.1-1.1","49","1","2023-11-01 00:41:20","a725c3012b74bf33a1020a98cb69c237","186.13.97.33","Mozilla/5.0 (Windows NT 10.0; Win64; x64) AppleWebKit/537.36 (KHTML, like Gecko) Chrome/118.0.0.0 Safari/537.36","WebKit","Chrome","118.0.0.0","Windows","10.0","null","pt,en-US;q=0.9,en;q=0.8","true","6089","tones/440hz_short.mp3","a","","","empty_block","","69","","","","null","null",""
"","","","","","html-keyboard-response","22","349232","0.0-13.0-0.0","49","1","2023-11-01 00:41:20","a725c3012b74bf33a1020a98cb69c237","186.13.97.33","Mozilla/5.0 (Windows NT 10.0; Win64; x64) AppleWebKit/537.36 (KHTML, like Gecko) Chrome/118.0.0.0 Safari/537.36","WebKit","Chrome","118.0.0.0","Windows","10.0","null","pt,en-US;q=0.9,en;q=0.8","true","null","<div style=""font-size:100px;"">X</div>","null","","","fixation","","","","","","","",""
"","","","","","audio-keyboard-response","23","349884","0.0-13.0-1.0","49","1","2023-11-01 00:41:20","a725c3012b74bf33a1020a98cb69c237","186.13.97.33","Mozilla/5.0 (Windows NT 10.0; Win64; x64) AppleWebKit/537.36 (KHTML, like Gecko) Chrome/118.0.0.0 Safari/537.36","WebKit","Chrome","118.0.0.0","Windows","10.0","null","pt,en-US;q=0.9,en;q=0.8","true","null","tones/880hz_short.mp3","null","","","tone_number_task","500","47","tones/880hz_short.mp3","650","100","null","null",""
"","","","","","html-keyboard-response","24","352584","0.0-13.0-4.0-0.0","49","1","2023-11-01 00:41:20","a725c3012b74bf33a1020a98cb69c237","186.13.97.33","Mozilla/5.0 (Windows NT 10.0; Win64; x64) AppleWebKit/537.36 (KHTML, like Gecko) Chrome/118.0.0.0 Safari/537.36","WebKit","Chrome","118.0.0.0","Windows","10.0","null","pt,en-US;q=0.9,en;q=0.8","true","2699","tones/880hz_short.mp3","j","","","empty_block","","47","","","","null","null",""
"","","","","","html-keyboard-response","25","361194","0.0-13.0-4.0-1.0","49","1","2023-11-01 00:41:20","a725c3012b74bf33a1020a98cb69c237","186.13.97.33","Mozilla/5.0 (Windows NT 10.0; Win64; x64) AppleWebKit/537.36 (KHTML, like Gecko) Chrome/118.0.0.0 Safari/537.36","WebKit","Chrome","118.0.0.0","Windows","10.0","null","pt,en-US;q=0.9,en;q=0.8","true","8609","tones/880hz_short.mp3","j","","","empty_block","","47","","","","null","null",""
"","","","","","html-button-response","26","363789","0.0-13.0-6.0-0.0","49","1","2023-11-01 00:41:20","a725c3012b74bf33a1020a98cb69c237","186.13.97.33","Mozilla/5.0 (Windows NT 10.0; Win64; x64) AppleWebKit/537.36 (KHTML, like Gecko) Chrome/118.0.0.0 Safari/537.36","WebKit","Chrome","118.0.0.0","Windows","10.0","null","pt,en-US;q=0.9,en;q=0.8","true","2594","
  '<p style=""font-size:24px; color:red;"">Incorrecto</p><p> Respondiste alguno de los estímulos de manera incorrecta.</p><p>Por favor, repasá las instrucciones y seguimos desde donde nos quedamos. </p>
  ","0","","","","","","","","","","",""
"","","","","","external-html","27","378539","0.0-13.0-6.0-1.0","49","1","2023-11-01 00:41:20","a725c3012b74bf33a1020a98cb69c237","186.13.97.33","Mozilla/5.0 (Windows NT 10.0; Win64; x64) AppleWebKit/537.36 (KHTML, like Gecko) Chrome/118.0.0.0 Safari/537.36","WebKit","Chrome","118.0.0.0","Windows","10.0","null","pt,en-US;q=0.9,en;q=0.8","true","14479","","","","instructions/instructions_B.html","","","","","","","","",""
"","","","","","html-keyboard-response","28","381331","0.0-13.1-0.1","49","1","2023-11-01 00:41:20","a725c3012b74bf33a1020a98cb69c237","186.13.97.33","Mozilla/5.0 (Windows NT 10.0; Win64; x64) AppleWebKit/537.36 (KHTML, like Gecko) Chrome/118.0.0.0 Safari/537.36","WebKit","Chrome","118.0.0.0","Windows","10.0","null","pt,en-US;q=0.9,en;q=0.8","true","null","<div style=""font-size:100px;"">X</div>","null","","","fixation","","","","","","","",""
"","","","","","audio-keyboard-response","29","381983","0.0-13.1-1.1","49","1","2023-11-01 00:41:20","a725c3012b74bf33a1020a98cb69c237","186.13.97.33","Mozilla/5.0 (Windows NT 10.0; Win64; x64) AppleWebKit/537.36 (KHTML, like Gecko) Chrome/118.0.0.0 Safari/537.36","WebKit","Chrome","118.0.0.0","Windows","10.0","null","pt,en-US;q=0.9,en;q=0.8","true","null","tones/880hz_short.mp3","null","","","tone_number_task","500","47","tones/880hz_short.mp3","650","100","null","null",""
"","","","","","html-keyboard-response","30","382540","0.0-13.1-4.1-0.1","49","1","2023-11-01 00:41:20","a725c3012b74bf33a1020a98cb69c237","186.13.97.33","Mozilla/5.0 (Windows NT 10.0; Win64; x64) AppleWebKit/537.36 (KHTML, like Gecko) Chrome/118.0.0.0 Safari/537.36","WebKit","Chrome","118.0.0.0","Windows","10.0","null","pt,en-US;q=0.9,en;q=0.8","true","556","tones/880hz_short.mp3","s","","","empty_block","","47","","","","null","null",""
"","","","","","html-keyboard-response","31","392542","0.0-13.1-4.1-1.1","49","1","2023-11-01 00:41:20","a725c3012b74bf33a1020a98cb69c237","186.13.97.33","Mozilla/5.0 (Windows NT 10.0; Win64; x64) AppleWebKit/537.36 (KHTML, like Gecko) Chrome/118.0.0.0 Safari/537.36","WebKit","Chrome","118.0.0.0","Windows","10.0","null","pt,en-US;q=0.9,en;q=0.8","true","null","tones/880hz_short.mp3","null","","","empty_block","","47","","","","null","null",""
"","","","","","html-keyboard-response","32","395346","0.0-15.0-0.0","49","1","2023-11-01 00:41:20","a725c3012b74bf33a1020a98cb69c237","186.13.97.33","Mozilla/5.0 (Windows NT 10.0; Win64; x64) AppleWebKit/537.36 (KHTML, like Gecko) Chrome/118.0.0.0 Safari/537.36","WebKit","Chrome","118.0.0.0","Windows","10.0","null","pt,en-US;q=0.9,en;q=0.8","true","null","<div style=""font-size:100px;"">X</div>","null","","","fixation","","","","","","","",""
"","","","","","audio-keyboard-response","33","395657","0.0-15.0-1.0","49","1","2023-11-01 00:41:20","a725c3012b74bf33a1020a98cb69c237","186.13.97.33","Mozilla/5.0 (Windows NT 10.0; Win64; x64) AppleWebKit/537.36 (KHTML, like Gecko) Chrome/118.0.0.0 Safari/537.36","WebKit","Chrome","118.0.0.0","Windows","10.0","null","pt,en-US;q=0.9,en;q=0.8","true","null","tones/440hz_short.mp3","null","","","tone_number_task","150","24","tones/440hz_short.mp3","300","100","null","null",""
"","","","","","html-keyboard-response","34","397988","0.0-15.0-4.0-0.0","49","1","2023-11-01 00:41:20","a725c3012b74bf33a1020a98cb69c237","186.13.97.33","Mozilla/5.0 (Windows NT 10.0; Win64; x64) AppleWebKit/537.36 (KHTML, like Gecko) Chrome/118.0.0.0 Safari/537.36","WebKit","Chrome","118.0.0.0","Windows","10.0","null","pt,en-US;q=0.9,en;q=0.8","true","2330","tones/440hz_short.mp3","j","","","empty_block","","24","","","","null","null",""
"","","","","","html-keyboard-response","35","407990","0.0-15.0-4.0-1.0","49","1","2023-11-01 00:41:20","a725c3012b74bf33a1020a98cb69c237","186.13.97.33","Mozilla/5.0 (Windows NT 10.0; Win64; x64) AppleWebKit/537.36 (KHTML, like Gecko) Chrome/118.0.0.0 Safari/537.36","WebKit","Chrome","118.0.0.0","Windows","10.0","null","pt,en-US;q=0.9,en;q=0.8","true","null","tones/440hz_short.mp3","null","","","empty_block","","24","","","","null","null",""
"","","","","","html-keyboard-response","36","410780","0.0-17.0-0.0","49","1","2023-11-01 00:41:20","a725c3012b74bf33a1020a98cb69c237","186.13.97.33","Mozilla/5.0 (Windows NT 10.0; Win64; x64) AppleWebKit/537.36 (KHTML, like Gecko) Chrome/118.0.0.0 Safari/537.36","WebKit","Chrome","118.0.0.0","Windows","10.0","null","pt,en-US;q=0.9,en;q=0.8","true","null","<div style=""font-size:100px;"">X</div>","null","","","fixation","","","","","","","",""
"","","","","","audio-keyboard-response","37","410983","0.0-17.0-1.0","49","1","2023-11-01 00:41:20","a725c3012b74bf33a1020a98cb69c237","186.13.97.33","Mozilla/5.0 (Windows NT 10.0; Win64; x64) AppleWebKit/537.36 (KHTML, like Gecko) Chrome/118.0.0.0 Safari/537.36","WebKit","Chrome","118.0.0.0","Windows","10.0","null","pt,en-US;q=0.9,en;q=0.8","true","null","tones/440hz_short.mp3","null","","","tone_number_task","50","47","tones/440hz_short.mp3","200","100","null","null",""
"","","","","","html-keyboard-response","38","412807","0.0-17.0-4.0-0.0","49","1","2023-11-01 00:41:20","a725c3012b74bf33a1020a98cb69c237","186.13.97.33","Mozilla/5.0 (Windows NT 10.0; Win64; x64) AppleWebKit/537.36 (KHTML, like Gecko) Chrome/118.0.0.0 Safari/537.36","WebKit","Chrome","118.0.0.0","Windows","10.0","null","pt,en-US;q=0.9,en;q=0.8","true","1823","tones/440hz_short.mp3","j","","","empty_block","","47","","","","null","null",""
"","","","","","html-keyboard-response","39","422810","0.0-17.0-4.0-1.0","49","1","2023-11-01 00:41:20","a725c3012b74bf33a1020a98cb69c237","186.13.97.33","Mozilla/5.0 (Windows NT 10.0; Win64; x64) AppleWebKit/537.36 (KHTML, like Gecko) Chrome/118.0.0.0 Safari/537.36","WebKit","Chrome","118.0.0.0","Windows","10.0","null","pt,en-US;q=0.9,en;q=0.8","true","null","tones/440hz_short.mp3","null","","","empty_block","","47","","","","null","null",""
"","","","","","html-button-response","40","427955","0.0-17.0-6.0-0.0","49","1","2023-11-01 00:41:20","a725c3012b74bf33a1020a98cb69c237","186.13.97.33","Mozilla/5.0 (Windows NT 10.0; Win64; x64) AppleWebKit/537.36 (KHTML, like Gecko) Chrome/118.0.0.0 Safari/537.36","WebKit","Chrome","118.0.0.0","Windows","10.0","null","pt,en-US;q=0.9,en;q=0.8","true","5144","
  '<p style=""font-size:24px; color:red;"">Incorrecto</p><p> Respondiste alguno de los estímulos de manera incorrecta.</p><p>Por favor, repasá las instrucciones y seguimos desde donde nos quedamos. </p>
  ","0","","","","","","","","","","",""
"","","","","","external-html","41","433707","0.0-17.0-6.0-1.0","49","1","2023-11-01 00:41:20","a725c3012b74bf33a1020a98cb69c237","186.13.97.33","Mozilla/5.0 (Windows NT 10.0; Win64; x64) AppleWebKit/537.36 (KHTML, like Gecko) Chrome/118.0.0.0 Safari/537.36","WebKit","Chrome","118.0.0.0","Windows","10.0","null","pt,en-US;q=0.9,en;q=0.8","true","5483","","","","instructions/instructions_B.html","","","","","","","","",""
"","","","","","html-keyboard-response","42","436499","0.0-17.1-0.1","49","1","2023-11-01 00:41:20","a725c3012b74bf33a1020a98cb69c237","186.13.97.33","Mozilla/5.0 (Windows NT 10.0; Win64; x64) AppleWebKit/537.36 (KHTML, like Gecko) Chrome/118.0.0.0 Safari/537.36","WebKit","Chrome","118.0.0.0","Windows","10.0","null","pt,en-US;q=0.9,en;q=0.8","true","null","<div style=""font-size:100px;"">X</div>","null","","","fixation","","","","","","","",""
"","","","","","audio-keyboard-response","43","436701","0.0-17.1-1.1","49","1","2023-11-01 00:41:20","a725c3012b74bf33a1020a98cb69c237","186.13.97.33","Mozilla/5.0 (Windows NT 10.0; Win64; x64) AppleWebKit/537.36 (KHTML, like Gecko) Chrome/118.0.0.0 Safari/537.36","WebKit","Chrome","118.0.0.0","Windows","10.0","null","pt,en-US;q=0.9,en;q=0.8","true","null","tones/440hz_short.mp3","null","","","tone_number_task","50","47","tones/440hz_short.mp3","200","100","null","null",""
"","","","","","html-keyboard-response","44","437604","0.0-17.1-4.1-0.1","49","1","2023-11-01 00:41:20","a725c3012b74bf33a1020a98cb69c237","186.13.97.33","Mozilla/5.0 (Windows NT 10.0; Win64; x64) AppleWebKit/537.36 (KHTML, like Gecko) Chrome/118.0.0.0 Safari/537.36","WebKit","Chrome","118.0.0.0","Windows","10.0","null","pt,en-US;q=0.9,en;q=0.8","true","901","tones/440hz_short.mp3","k","","","empty_block","","47","","","","null","null",""
"","","","","","html-keyboard-response","45","447607","0.0-17.1-4.1-1.1","49","1","2023-11-01 00:41:20","a725c3012b74bf33a1020a98cb69c237","186.13.97.33","Mozilla/5.0 (Windows NT 10.0; Win64; x64) AppleWebKit/537.36 (KHTML, like Gecko) Chrome/118.0.0.0 Safari/537.36","WebKit","Chrome","118.0.0.0","Windows","10.0","null","pt,en-US;q=0.9,en;q=0.8","true","null","tones/440hz_short.mp3","null","","","empty_block","","47","","","","null","null",""
"","","","","","html-button-response","46","453885","0.0-19.0","49","1","2023-11-01 00:41:20","a725c3012b74bf33a1020a98cb69c237","186.13.97.33","Mozilla/5.0 (Windows NT 10.0; Win64; x64) AppleWebKit/537.36 (KHTML, like Gecko) Chrome/118.0.0.0 Safari/537.36","WebKit","Chrome","118.0.0.0","Windows","10.0","null","pt,en-US;q=0.9,en;q=0.8","true","6277","
  <h1> Muy bien </h1>
  <p> Ahora, en vez de ser presentados en dígitos, los números vendrán escritos en palabras. </p>
  <p> Por ejemplo, en vez de 44 te aparecerá ""cuarenta y cuatro"". </p>
  ","0","","","","","","","","","","",""
"","","","","","html-keyboard-response","47","456674","0.0-20.0-0.0","49","1","2023-11-01 00:41:20","a725c3012b74bf33a1020a98cb69c237","186.13.97.33","Mozilla/5.0 (Windows NT 10.0; Win64; x64) AppleWebKit/537.36 (KHTML, like Gecko) Chrome/118.0.0.0 Safari/537.36","WebKit","Chrome","118.0.0.0","Windows","10.0","null","pt,en-US;q=0.9,en;q=0.8","true","null","<div style=""font-size:100px;"">X</div>","null","","","fixation","","","","","","","",""
"","","","","","audio-keyboard-response","48","457826","0.0-20.0-1.0","49","1","2023-11-01 00:41:20","a725c3012b74bf33a1020a98cb69c237","186.13.97.33","Mozilla/5.0 (Windows NT 10.0; Win64; x64) AppleWebKit/537.36 (KHTML, like Gecko) Chrome/118.0.0.0 Safari/537.36","WebKit","Chrome","118.0.0.0","Windows","10.0","null","pt,en-US;q=0.9,en;q=0.8","true","null","tones/440hz_short.mp3","null","","","tone_number_task","1000","treinta y tres","tones/440hz_short.mp3","1150","60","null","null",""
"","","","","","html-keyboard-response","49","458811","0.0-20.0-4.0-0.0","49","1","2023-11-01 00:41:20","a725c3012b74bf33a1020a98cb69c237","186.13.97.33","Mozilla/5.0 (Windows NT 10.0; Win64; x64) AppleWebKit/537.36 (KHTML, like Gecko) Chrome/118.0.0.0 Safari/537.36","WebKit","Chrome","118.0.0.0","Windows","10.0","null","pt,en-US;q=0.9,en;q=0.8","true","983","tones/440hz_short.mp3","a","","","empty_block","","treinta y tres","","","","null","null",""
"","","","","","html-keyboard-response","50","468813","0.0-20.0-4.0-1.0","49","1","2023-11-01 00:41:20","a725c3012b74bf33a1020a98cb69c237","186.13.97.33","Mozilla/5.0 (Windows NT 10.0; Win64; x64) AppleWebKit/537.36 (KHTML, like Gecko) Chrome/118.0.0.0 Safari/537.36","WebKit","Chrome","118.0.0.0","Windows","10.0","null","pt,en-US;q=0.9,en;q=0.8","true","null","tones/440hz_short.mp3","null","","","empty_block","","treinta y tres","","","","null","null",""
"","","","","","html-button-response","51","472369","0.0-22.0","49","1","2023-11-01 00:41:20","a725c3012b74bf33a1020a98cb69c237","186.13.97.33","Mozilla/5.0 (Windows NT 10.0; Win64; x64) AppleWebKit/537.36 (KHTML, like Gecko) Chrome/118.0.0.0 Safari/537.36","WebKit","Chrome","118.0.0.0","Windows","10.0","null","pt,en-US;q=0.9,en;q=0.8","true","3554","
  <h1> Fin del Entrenamiento </h1>
  <p> ¡Felicitaciones, terminaste el entrenamiento! Ahora vamos a comenzar con el experimento. </p>
  <p> Es importante tener en cuenta que consta de cuatro bloques.</p>
  <p> Podés aprovechar los momentos entre bloques para tomar un breve descanso o tomar agua entre cada uno</p>
  <p> Recordá que tenés que responder lo más rápido que puedas, pero sin equivocarte. </p>
  ","0","","","","","","","","","","",""
"","","","","","external-html","52","484310","0.0-23.0","49","1","2023-11-01 00:41:20","a725c3012b74bf33a1020a98cb69c237","186.13.97.33","Mozilla/5.0 (Windows NT 10.0; Win64; x64) AppleWebKit/537.36 (KHTML, like Gecko) Chrome/118.0.0.0 Safari/537.36","WebKit","Chrome","118.0.0.0","Windows","10.0","null","pt,en-US;q=0.9,en;q=0.8","true","11659","","","","instructions/instructions_words_first.html","","","","","","","","",""
"","","","","","call-function","53","484314","0.0-24.0","49","1","2023-11-01 00:41:20","a725c3012b74bf33a1020a98cb69c237","186.13.97.33","Mozilla/5.0 (Windows NT 10.0; Win64; x64) AppleWebKit/537.36 (KHTML, like Gecko) Chrome/118.0.0.0 Safari/537.36","WebKit","Chrome","118.0.0.0","Windows","10.0","null","pt,en-US;q=0.9,en;q=0.8","true","","","","","","","","","","","","","",""
"","","","","","html-keyboard-response","54","487103","0.0-25.0","49","1","2023-11-01 00:41:20","a725c3012b74bf33a1020a98cb69c237","186.13.97.33","Mozilla/5.0 (Windows NT 10.0; Win64; x64) AppleWebKit/537.36 (KHTML, like Gecko) Chrome/118.0.0.0 Safari/537.36","WebKit","Chrome","118.0.0.0","Windows","10.0","null","pt,en-US;q=0.9,en;q=0.8","true","null","<div style=""font-size:100px;"">X</div>","null","","","fixation","","","","","","","",""
"","","","","","audio-keyboard-response","55","487255","0.0-26.0","49","1","2023-11-01 00:41:20","a725c3012b74bf33a1020a98cb69c237","186.13.97.33","Mozilla/5.0 (Windows NT 10.0; Win64; x64) AppleWebKit/537.36 (KHTML, like Gecko) Chrome/118.0.0.0 Safari/537.36","WebKit","Chrome","118.0.0.0","Windows","10.0","null","pt,en-US;q=0.9,en;q=0.8","true","null","tones/440hz_short.mp3","null","","","tone_number_task","0","sesenta","tones/440hz_short.mp3","150","60","2","0",""
"","","","","","html-keyboard-response","56","488458","0.0-29.0-0.0","49","1","2023-11-01 00:41:20","a725c3012b74bf33a1020a98cb69c237","186.13.97.33","Mozilla/5.0 (Windows NT 10.0; Win64; x64) AppleWebKit/537.36 (KHTML, like Gecko) Chrome/118.0.0.0 Safari/537.36","WebKit","Chrome","118.0.0.0","Windows","10.0","null","pt,en-US;q=0.9,en;q=0.8","true","null","tones/440hz_short.mp3","null","","","empty_block","","sesenta","","","","2","0",""
"","","","","","html-keyboard-response","57","489239","0.0-29.0-1.0","49","1","2023-11-01 00:41:20","a725c3012b74bf33a1020a98cb69c237","186.13.97.33","Mozilla/5.0 (Windows NT 10.0; Win64; x64) AppleWebKit/537.36 (KHTML, like Gecko) Chrome/118.0.0.0 Safari/537.36","WebKit","Chrome","118.0.0.0","Windows","10.0","null","pt,en-US;q=0.9,en;q=0.8","true","779","tones/440hz_short.mp3","k","","","empty_block","","sesenta","","","","2","0",""
"","","","","","html-keyboard-response","58","492028","0.0-31.0","49","1","2023-11-01 00:41:20","a725c3012b74bf33a1020a98cb69c237","186.13.97.33","Mozilla/5.0 (Windows NT 10.0; Win64; x64) AppleWebKit/537.36 (KHTML, like Gecko) Chrome/118.0.0.0 Safari/537.36","WebKit","Chrome","118.0.0.0","Windows","10.0","null","pt,en-US;q=0.9,en;q=0.8","true","null","<div style=""font-size:100px;"">X</div>","null","","","fixation","","","","","","","",""
"","","","","","audio-keyboard-response","59","493180","0.0-32.0","49","1","2023-11-01 00:41:20","a725c3012b74bf33a1020a98cb69c237","186.13.97.33","Mozilla/5.0 (Windows NT 10.0; Win64; x64) AppleWebKit/537.36 (KHTML, like Gecko) Chrome/118.0.0.0 Safari/537.36","WebKit","Chrome","118.0.0.0","Windows","10.0","null","pt,en-US;q=0.9,en;q=0.8","true","null","tones/440hz_short.mp3","null","","","tone_number_task","992.5","treinta y cuatro","tones/440hz_short.mp3","1142.5","60","2","1",""
"","","","","","html-keyboard-response","60","493279","0.0-35.0-0.0","49","1","2023-11-01 00:41:20","a725c3012b74bf33a1020a98cb69c237","186.13.97.33","Mozilla/5.0 (Windows NT 10.0; Win64; x64) AppleWebKit/537.36 (KHTML, like Gecko) Chrome/118.0.0.0 Safari/537.36","WebKit","Chrome","118.0.0.0","Windows","10.0","null","pt,en-US;q=0.9,en;q=0.8","true","97","tones/440hz_short.mp3","a","","","empty_block","","treinta y cuatro","","","","2","1",""
"","","","","","html-keyboard-response","61","494481","0.0-35.0-1.0","49","1","2023-11-01 00:41:20","a725c3012b74bf33a1020a98cb69c237","186.13.97.33","Mozilla/5.0 (Windows NT 10.0; Win64; x64) AppleWebKit/537.36 (KHTML, like Gecko) Chrome/118.0.0.0 Safari/537.36","WebKit","Chrome","118.0.0.0","Windows","10.0","null","pt,en-US;q=0.9,en;q=0.8","true","null","tones/440hz_short.mp3","null","","","empty_block","","treinta y cuatro","","","","2","1",""
"","","","","","html-keyboard-response","62","497272","0.0-37.0","49","1","2023-11-01 00:41:20","a725c3012b74bf33a1020a98cb69c237","186.13.97.33","Mozilla/5.0 (Windows NT 10.0; Win64; x64) AppleWebKit/537.36 (KHTML, like Gecko) Chrome/118.0.0.0 Safari/537.36","WebKit","Chrome","118.0.0.0","Windows","10.0","null","pt,en-US;q=0.9,en;q=0.8","true","null","<div style=""font-size:100px;"">X</div>","null","","","fixation","","","","","","","",""
"","","","","","audio-keyboard-response","63","498156","0.0-38.0","49","1","2023-11-01 00:41:20","a725c3012b74bf33a1020a98cb69c237","186.13.97.33","Mozilla/5.0 (Windows NT 10.0; Win64; x64) AppleWebKit/537.36 (KHTML, like Gecko) Chrome/118.0.0.0 Safari/537.36","WebKit","Chrome","118.0.0.0","Windows","10.0","null","pt,en-US;q=0.9,en;q=0.8","true","891","tones/880hz_short.mp3","s","","","tone_number_task","1025","cincuenta","tones/880hz_short.mp3","1175","60","2","2",""
"","","","","","html-keyboard-response","64","498293","0.0-39.0-0.0","49","1","2023-11-01 00:41:20","a725c3012b74bf33a1020a98cb69c237","186.13.97.33","Mozilla/5.0 (Windows NT 10.0; Win64; x64) AppleWebKit/537.36 (KHTML, like Gecko) Chrome/118.0.0.0 Safari/537.36","WebKit","Chrome","118.0.0.0","Windows","10.0","null","pt,en-US;q=0.9,en;q=0.8","true","null","","null","","","delay_block","","","","","","2","2",""
"","","","","","html-keyboard-response","65","498445","0.0-39.0-1.0","49","1","2023-11-01 00:41:20","a725c3012b74bf33a1020a98cb69c237","186.13.97.33","Mozilla/5.0 (Windows NT 10.0; Win64; x64) AppleWebKit/537.36 (KHTML, like Gecko) Chrome/118.0.0.0 Safari/537.36","WebKit","Chrome","118.0.0.0","Windows","10.0","null","pt,en-US;q=0.9,en;q=0.8","true","null","<p id=""stimulus"" style=""font-size:60px;"">cincuenta</p>","null","","","tone_number_task_remaining_before_delay","","cincuenta","","284","60","2","2",""
"","","","","","html-keyboard-response","66","499648","0.0-42.0-0.0","49","1","2023-11-01 00:41:20","a725c3012b74bf33a1020a98cb69c237","186.13.97.33","Mozilla/5.0 (Windows NT 10.0; Win64; x64) AppleWebKit/537.36 (KHTML, like Gecko) Chrome/118.0.0.0 Safari/537.36","WebKit","Chrome","118.0.0.0","Windows","10.0","null","pt,en-US;q=0.9,en;q=0.8","true","null","<p id=""stimulus"" style=""font-size:60px;"">cincuenta</p>","null","","","empty_block","","cincuenta","","","","2","2",""
"","","","","","html-keyboard-response","67","502438","0.0-43.0","49","1","2023-11-01 00:41:20","a725c3012b74bf33a1020a98cb69c237","186.13.97.33","Mozilla/5.0 (Windows NT 10.0; Win64; x64) AppleWebKit/537.36 (KHTML, like Gecko) Chrome/118.0.0.0 Safari/537.36","WebKit","Chrome","118.0.0.0","Windows","10.0","null","pt,en-US;q=0.9,en;q=0.8","true","null","<div style=""font-size:100px;"">X</div>","null","","","fixation","","","","","","","",""
"","","","","","audio-keyboard-response","68","503615","0.0-44.0","49","1","2023-11-01 00:41:20","a725c3012b74bf33a1020a98cb69c237","186.13.97.33","Mozilla/5.0 (Windows NT 10.0; Win64; x64) AppleWebKit/537.36 (KHTML, like Gecko) Chrome/118.0.0.0 Safari/537.36","WebKit","Chrome","118.0.0.0","Windows","10.0","null","pt,en-US;q=0.9,en;q=0.8","true","null","tones/880hz_short.mp3","null","","","tone_number_task","1025","treinta y ocho","tones/880hz_short.mp3","1175","60","2","3",""
"","","","","","html-keyboard-response","69","503719","0.0-47.0-0.0","49","1","2023-11-01 00:41:20","a725c3012b74bf33a1020a98cb69c237","186.13.97.33","Mozilla/5.0 (Windows NT 10.0; Win64; x64) AppleWebKit/537.36 (KHTML, like Gecko) Chrome/118.0.0.0 Safari/537.36","WebKit","Chrome","118.0.0.0","Windows","10.0","null","pt,en-US;q=0.9,en;q=0.8","true","102","tones/880hz_short.mp3","s","","","empty_block","","treinta y ocho","","","","2","3",""
"","","","","","html-keyboard-response","70","504922","0.0-47.0-1.0","49","1","2023-11-01 00:41:20","a725c3012b74bf33a1020a98cb69c237","186.13.97.33","Mozilla/5.0 (Windows NT 10.0; Win64; x64) AppleWebKit/537.36 (KHTML, like Gecko) Chrome/118.0.0.0 Safari/537.36","WebKit","Chrome","118.0.0.0","Windows","10.0","null","pt,en-US;q=0.9,en;q=0.8","true","null","tones/880hz_short.mp3","null","","","empty_block","","treinta y ocho","","","","2","3",""
"","","","","","html-keyboard-response","71","507712","0.0-49.0","49","1","2023-11-01 00:41:20","a725c3012b74bf33a1020a98cb69c237","186.13.97.33","Mozilla/5.0 (Windows NT 10.0; Win64; x64) AppleWebKit/537.36 (KHTML, like Gecko) Chrome/118.0.0.0 Safari/537.36","WebKit","Chrome","118.0.0.0","Windows","10.0","null","pt,en-US;q=0.9,en;q=0.8","true","null","<div style=""font-size:100px;"">X</div>","null","","","fixation","","","","","","","",""
"","","","","","audio-keyboard-response","72","508890","0.0-50.0","49","1","2023-11-01 00:41:20","a725c3012b74bf33a1020a98cb69c237","186.13.97.33","Mozilla/5.0 (Windows NT 10.0; Win64; x64) AppleWebKit/537.36 (KHTML, like Gecko) Chrome/118.0.0.0 Safari/537.36","WebKit","Chrome","118.0.0.0","Windows","10.0","null","pt,en-US;q=0.9,en;q=0.8","true","null","tones/440hz_short.mp3","null","","","tone_number_task","1025","treinta y nueve","tones/440hz_short.mp3","1175","60","2","4",""
"","","","","","html-keyboard-response","73","508922","0.0-53.0-0.0","49","1","2023-11-01 00:41:20","a725c3012b74bf33a1020a98cb69c237","186.13.97.33","Mozilla/5.0 (Windows NT 10.0; Win64; x64) AppleWebKit/537.36 (KHTML, like Gecko) Chrome/118.0.0.0 Safari/537.36","WebKit","Chrome","118.0.0.0","Windows","10.0","null","pt,en-US;q=0.9,en;q=0.8","true","31","tones/440hz_short.mp3","a","","","empty_block","","treinta y nueve","","","","2","4",""
"","","","","","html-keyboard-response","74","509894","0.0-53.0-1.0","49","1","2023-11-01 00:41:20","a725c3012b74bf33a1020a98cb69c237","186.13.97.33","Mozilla/5.0 (Windows NT 10.0; Win64; x64) AppleWebKit/537.36 (KHTML, like Gecko) Chrome/118.0.0.0 Safari/537.36","WebKit","Chrome","118.0.0.0","Windows","10.0","null","pt,en-US;q=0.9,en;q=0.8","true","970","tones/440hz_short.mp3","j","","","empty_block","","treinta y nueve","","","","2","4",""
"","","","","","html-keyboard-response","75","512683","0.0-55.0","49","1","2023-11-01 00:41:20","a725c3012b74bf33a1020a98cb69c237","186.13.97.33","Mozilla/5.0 (Windows NT 10.0; Win64; x64) AppleWebKit/537.36 (KHTML, like Gecko) Chrome/118.0.0.0 Safari/537.36","WebKit","Chrome","118.0.0.0","Windows","10.0","null","pt,en-US;q=0.9,en;q=0.8","true","null","<div style=""font-size:100px;"">X</div>","null","","","fixation","","","","","","","",""
"","","","","","audio-keyboard-response","76","512937","0.0-56.0","49","1","2023-11-01 00:41:20","a725c3012b74bf33a1020a98cb69c237","186.13.97.33","Mozilla/5.0 (Windows NT 10.0; Win64; x64) AppleWebKit/537.36 (KHTML, like Gecko) Chrome/118.0.0.0 Safari/537.36","WebKit","Chrome","118.0.0.0","Windows","10.0","null","pt,en-US;q=0.9,en;q=0.8","true","null","tones/440hz_short.mp3","null","","","tone_number_task","102.5","sesenta y siete","tones/440hz_short.mp3","252.5","60","2","5",""
"","","","","","html-keyboard-response","77","513485","0.0-59.0-0.0","49","1","2023-11-01 00:41:20","a725c3012b74bf33a1020a98cb69c237","186.13.97.33","Mozilla/5.0 (Windows NT 10.0; Win64; x64) AppleWebKit/537.36 (KHTML, like Gecko) Chrome/118.0.0.0 Safari/537.36","WebKit","Chrome","118.0.0.0","Windows","10.0","null","pt,en-US;q=0.9,en;q=0.8","true","546","tones/440hz_short.mp3","a","","","empty_block","","sesenta y siete","","","","2","5",""
"","","","","","html-keyboard-response","78","514152","0.0-59.0-1.0","49","1","2023-11-01 00:41:20","a725c3012b74bf33a1020a98cb69c237","186.13.97.33","Mozilla/5.0 (Windows NT 10.0; Win64; x64) AppleWebKit/537.36 (KHTML, like Gecko) Chrome/118.0.0.0 Safari/537.36","WebKit","Chrome","118.0.0.0","Windows","10.0","null","pt,en-US;q=0.9,en;q=0.8","true","665","tones/440hz_short.mp3","k","","","empty_block","","sesenta y siete","","","","2","5",""
"","","","","","html-keyboard-response","79","516942","0.0-61.0","49","1","2023-11-01 00:41:20","a725c3012b74bf33a1020a98cb69c237","186.13.97.33","Mozilla/5.0 (Windows NT 10.0; Win64; x64) AppleWebKit/537.36 (KHTML, like Gecko) Chrome/118.0.0.0 Safari/537.36","WebKit","Chrome","118.0.0.0","Windows","10.0","null","pt,en-US;q=0.9,en;q=0.8","true","null","<div style=""font-size:100px;"">X</div>","null","","","fixation","","","","","","","",""
"","","","","","audio-keyboard-response","80","518087","0.0-62.0","49","1","2023-11-01 00:41:20","a725c3012b74bf33a1020a98cb69c237","186.13.97.33","Mozilla/5.0 (Windows NT 10.0; Win64; x64) AppleWebKit/537.36 (KHTML, like Gecko) Chrome/118.0.0.0 Safari/537.36","WebKit","Chrome","118.0.0.0","Windows","10.0","null","pt,en-US;q=0.9,en;q=0.8","true","null","tones/440hz_short.mp3","null","","","tone_number_task","992.5","cuarenta y nueve","tones/440hz_short.mp3","1142.5","60","2","6",""
"","","","","","html-keyboard-response","81","518178","0.0-65.0-0.0","49","1","2023-11-01 00:41:20","a725c3012b74bf33a1020a98cb69c237","186.13.97.33","Mozilla/5.0 (Windows NT 10.0; Win64; x64) AppleWebKit/537.36 (KHTML, like Gecko) Chrome/118.0.0.0 Safari/537.36","WebKit","Chrome","118.0.0.0","Windows","10.0","null","pt,en-US;q=0.9,en;q=0.8","true","89","tones/440hz_short.mp3","a","","","empty_block","","cuarenta y nueve","","","","2","6",""
"","","","","","html-keyboard-response","82","519097","0.0-65.0-1.0","49","1","2023-11-01 00:41:20","a725c3012b74bf33a1020a98cb69c237","186.13.97.33","Mozilla/5.0 (Windows NT 10.0; Win64; x64) AppleWebKit/537.36 (KHTML, like Gecko) Chrome/118.0.0.0 Safari/537.36","WebKit","Chrome","118.0.0.0","Windows","10.0","null","pt,en-US;q=0.9,en;q=0.8","true","917","tones/440hz_short.mp3","k","","","empty_block","","cuarenta y nueve","","","","2","6",""
"","","","","","html-keyboard-response","83","521886","0.0-67.0","49","1","2023-11-01 00:41:20","a725c3012b74bf33a1020a98cb69c237","186.13.97.33","Mozilla/5.0 (Windows NT 10.0; Win64; x64) AppleWebKit/537.36 (KHTML, like Gecko) Chrome/118.0.0.0 Safari/537.36","WebKit","Chrome","118.0.0.0","Windows","10.0","null","pt,en-US;q=0.9,en;q=0.8","true","null","<div style=""font-size:100px;"">X</div>","null","","","fixation","","","","","","","",""
"","","","","","audio-keyboard-response","84","522141","0.0-68.0","49","1","2023-11-01 00:41:20","a725c3012b74bf33a1020a98cb69c237","186.13.97.33","Mozilla/5.0 (Windows NT 10.0; Win64; x64) AppleWebKit/537.36 (KHTML, like Gecko) Chrome/118.0.0.0 Safari/537.36","WebKit","Chrome","118.0.0.0","Windows","10.0","null","pt,en-US;q=0.9,en;q=0.8","true","null","tones/880hz_short.mp3","null","","","tone_number_task","102.5","sesenta y tres","tones/880hz_short.mp3","252.5","60","2","7",""
"","","","","","html-keyboard-response","85","522679","0.0-71.0-0.0","49","1","2023-11-01 00:41:20","a725c3012b74bf33a1020a98cb69c237","186.13.97.33","Mozilla/5.0 (Windows NT 10.0; Win64; x64) AppleWebKit/537.36 (KHTML, like Gecko) Chrome/118.0.0.0 Safari/537.36","WebKit","Chrome","118.0.0.0","Windows","10.0","null","pt,en-US;q=0.9,en;q=0.8","true","536","tones/880hz_short.mp3","s","","","empty_block","","sesenta y tres","","","","2","7",""
"","","","","","html-keyboard-response","86","523434","0.0-71.0-1.0","49","1","2023-11-01 00:41:20","a725c3012b74bf33a1020a98cb69c237","186.13.97.33","Mozilla/5.0 (Windows NT 10.0; Win64; x64) AppleWebKit/537.36 (KHTML, like Gecko) Chrome/118.0.0.0 Safari/537.36","WebKit","Chrome","118.0.0.0","Windows","10.0","null","pt,en-US;q=0.9,en;q=0.8","true","754","tones/880hz_short.mp3","k","","","empty_block","","sesenta y tres","","","","2","7",""
"","","","","","html-keyboard-response","87","526225","0.0-73.0","49","1","2023-11-01 00:41:20","a725c3012b74bf33a1020a98cb69c237","186.13.97.33","Mozilla/5.0 (Windows NT 10.0; Win64; x64) AppleWebKit/537.36 (KHTML, like Gecko) Chrome/118.0.0.0 Safari/537.36","WebKit","Chrome","118.0.0.0","Windows","10.0","null","pt,en-US;q=0.9,en;q=0.8","true","null","<div style=""font-size:100px;"">X</div>","null","","","fixation","","","","","","","",""
"","","","","","audio-keyboard-response","88","527370","0.0-74.0","49","1","2023-11-01 00:41:20","a725c3012b74bf33a1020a98cb69c237","186.13.97.33","Mozilla/5.0 (Windows NT 10.0; Win64; x64) AppleWebKit/537.36 (KHTML, like Gecko) Chrome/118.0.0.0 Safari/537.36","WebKit","Chrome","118.0.0.0","Windows","10.0","null","pt,en-US;q=0.9,en;q=0.8","true","null","tones/880hz_short.mp3","null","","","tone_number_task","992.5","veintitres","tones/880hz_short.mp3","1142.5","60","2","8",""
"","","","","","html-keyboard-response","89","527971","0.0-77.0-0.0","49","1","2023-11-01 00:41:20","a725c3012b74bf33a1020a98cb69c237","186.13.97.33","Mozilla/5.0 (Windows NT 10.0; Win64; x64) AppleWebKit/537.36 (KHTML, like Gecko) Chrome/118.0.0.0 Safari/537.36","WebKit","Chrome","118.0.0.0","Windows","10.0","null","pt,en-US;q=0.9,en;q=0.8","true","599","tones/880hz_short.mp3","s","","","empty_block","","veintitres","","","","2","8",""
"","","","","","html-keyboard-response","90","528719","0.0-77.0-1.0","49","1","2023-11-01 00:41:20","a725c3012b74bf33a1020a98cb69c237","186.13.97.33","Mozilla/5.0 (Windows NT 10.0; Win64; x64) AppleWebKit/537.36 (KHTML, like Gecko) Chrome/118.0.0.0 Safari/537.36","WebKit","Chrome","118.0.0.0","Windows","10.0","null","pt,en-US;q=0.9,en;q=0.8","true","746","tones/880hz_short.mp3","j","","","empty_block","","veintitres","","","","2","8",""
"","","","","","html-keyboard-response","91","531508","0.0-79.0","49","1","2023-11-01 00:41:20","a725c3012b74bf33a1020a98cb69c237","186.13.97.33","Mozilla/5.0 (Windows NT 10.0; Win64; x64) AppleWebKit/537.36 (KHTML, like Gecko) Chrome/118.0.0.0 Safari/537.36","WebKit","Chrome","118.0.0.0","Windows","10.0","null","pt,en-US;q=0.9,en;q=0.8","true","null","<div style=""font-size:100px;"">X</div>","null","","","fixation","","","","","","","",""
"","","","","","audio-keyboard-response","92","531762","0.0-80.0","49","1","2023-11-01 00:41:20","a725c3012b74bf33a1020a98cb69c237","186.13.97.33","Mozilla/5.0 (Windows NT 10.0; Win64; x64) AppleWebKit/537.36 (KHTML, like Gecko) Chrome/118.0.0.0 Safari/537.36","WebKit","Chrome","118.0.0.0","Windows","10.0","null","pt,en-US;q=0.9,en;q=0.8","true","null","tones/880hz_short.mp3","null","","","tone_number_task","102.5","cincuenta y ocho","tones/880hz_short.mp3","252.5","60","2","9",""
"","","","","","html-keyboard-response","93","532975","0.0-83.0-0.0","49","1","2023-11-01 00:41:20","a725c3012b74bf33a1020a98cb69c237","186.13.97.33","Mozilla/5.0 (Windows NT 10.0; Win64; x64) AppleWebKit/537.36 (KHTML, like Gecko) Chrome/118.0.0.0 Safari/537.36","WebKit","Chrome","118.0.0.0","Windows","10.0","null","pt,en-US;q=0.9,en;q=0.8","true","null","tones/880hz_short.mp3","null","","","empty_block","","cincuenta y ocho","","","","2","9",""
"","","","","","html-keyboard-response","94","533109","0.0-83.0-1.0","49","1","2023-11-01 00:41:20","a725c3012b74bf33a1020a98cb69c237","186.13.97.33","Mozilla/5.0 (Windows NT 10.0; Win64; x64) AppleWebKit/537.36 (KHTML, like Gecko) Chrome/118.0.0.0 Safari/537.36","WebKit","Chrome","118.0.0.0","Windows","10.0","null","pt,en-US;q=0.9,en;q=0.8","true","132","tones/880hz_short.mp3","s","","","empty_block","","cincuenta y ocho","","","","2","9",""
"","","","","","html-keyboard-response","95","535899","0.0-85.0","49","1","2023-11-01 00:41:20","a725c3012b74bf33a1020a98cb69c237","186.13.97.33","Mozilla/5.0 (Windows NT 10.0; Win64; x64) AppleWebKit/537.36 (KHTML, like Gecko) Chrome/118.0.0.0 Safari/537.36","WebKit","Chrome","118.0.0.0","Windows","10.0","null","pt,en-US;q=0.9,en;q=0.8","true","null","<div style=""font-size:100px;"">X</div>","null","","","fixation","","","","","","","",""
"","","","","","audio-keyboard-response","96","536153","0.0-86.0","49","1","2023-11-01 00:41:20","a725c3012b74bf33a1020a98cb69c237","186.13.97.33","Mozilla/5.0 (Windows NT 10.0; Win64; x64) AppleWebKit/537.36 (KHTML, like Gecko) Chrome/118.0.0.0 Safari/537.36","WebKit","Chrome","118.0.0.0","Windows","10.0","null","pt,en-US;q=0.9,en;q=0.8","true","null","tones/880hz_short.mp3","null","","","tone_number_task","102.5","cincuenta y siete","tones/880hz_short.mp3","252.5","60","2","10",""
"","","","","","html-keyboard-response","97","536990","0.0-89.0-0.0","49","1","2023-11-01 00:41:20","a725c3012b74bf33a1020a98cb69c237","186.13.97.33","Mozilla/5.0 (Windows NT 10.0; Win64; x64) AppleWebKit/537.36 (KHTML, like Gecko) Chrome/118.0.0.0 Safari/537.36","WebKit","Chrome","118.0.0.0","Windows","10.0","null","pt,en-US;q=0.9,en;q=0.8","true","834","tones/880hz_short.mp3","s","","","empty_block","","cincuenta y siete","","","","2","10",""
"","","","","","html-keyboard-response","98","537635","0.0-89.0-1.0","49","1","2023-11-01 00:41:20","a725c3012b74bf33a1020a98cb69c237","186.13.97.33","Mozilla/5.0 (Windows NT 10.0; Win64; x64) AppleWebKit/537.36 (KHTML, like Gecko) Chrome/118.0.0.0 Safari/537.36","WebKit","Chrome","118.0.0.0","Windows","10.0","null","pt,en-US;q=0.9,en;q=0.8","true","641","tones/880hz_short.mp3","k","","","empty_block","","cincuenta y siete","","","","2","10",""
"","","","","","html-keyboard-response","99","540425","0.0-91.0","49","1","2023-11-01 00:41:20","a725c3012b74bf33a1020a98cb69c237","186.13.97.33","Mozilla/5.0 (Windows NT 10.0; Win64; x64) AppleWebKit/537.36 (KHTML, like Gecko) Chrome/118.0.0.0 Safari/537.36","WebKit","Chrome","118.0.0.0","Windows","10.0","null","pt,en-US;q=0.9,en;q=0.8","true","null","<div style=""font-size:100px;"">X</div>","null","","","fixation","","","","","","","",""
"","","","","","audio-keyboard-response","100","540578","0.0-92.0","49","1","2023-11-01 00:41:20","a725c3012b74bf33a1020a98cb69c237","186.13.97.33","Mozilla/5.0 (Windows NT 10.0; Win64; x64) AppleWebKit/537.36 (KHTML, like Gecko) Chrome/118.0.0.0 Safari/537.36","WebKit","Chrome","118.0.0.0","Windows","10.0","null","pt,en-US;q=0.9,en;q=0.8","true","null","tones/440hz_short.mp3","null","","","tone_number_task","0","cuarenta y dos","tones/440hz_short.mp3","150","60","2","11",""
"","","","","","html-keyboard-response","101","541780","0.0-95.0-0.0","49","1","2023-11-01 00:41:20","a725c3012b74bf33a1020a98cb69c237","186.13.97.33","Mozilla/5.0 (Windows NT 10.0; Win64; x64) AppleWebKit/537.36 (KHTML, like Gecko) Chrome/118.0.0.0 Safari/537.36","WebKit","Chrome","118.0.0.0","Windows","10.0","null","pt,en-US;q=0.9,en;q=0.8","true","null","tones/440hz_short.mp3","null","","","empty_block","","cuarenta y dos","","","","2","11",""
"","","","","","html-keyboard-response","102","541852","0.0-95.0-1.0","49","1","2023-11-01 00:41:20","a725c3012b74bf33a1020a98cb69c237","186.13.97.33","Mozilla/5.0 (Windows NT 10.0; Win64; x64) AppleWebKit/537.36 (KHTML, like Gecko) Chrome/118.0.0.0 Safari/537.36","WebKit","Chrome","118.0.0.0","Windows","10.0","null","pt,en-US;q=0.9,en;q=0.8","true","69","tones/440hz_short.mp3","a","","","empty_block","","cuarenta y dos","","","","2","11",""
"","","","","","html-keyboard-response","103","544641","0.0-97.0","49","1","2023-11-01 00:41:20","a725c3012b74bf33a1020a98cb69c237","186.13.97.33","Mozilla/5.0 (Windows NT 10.0; Win64; x64) AppleWebKit/537.36 (KHTML, like Gecko) Chrome/118.0.0.0 Safari/537.36","WebKit","Chrome","118.0.0.0","Windows","10.0","null","pt,en-US;q=0.9,en;q=0.8","true","null","<div style=""font-size:100px;"">X</div>","null","","","fixation","","","","","","","",""
"","","","","","audio-keyboard-response","104","545820","0.0-98.0","49","1","2023-11-01 00:41:20","a725c3012b74bf33a1020a98cb69c237","186.13.97.33","Mozilla/5.0 (Windows NT 10.0; Win64; x64) AppleWebKit/537.36 (KHTML, like Gecko) Chrome/118.0.0.0 Safari/537.36","WebKit","Chrome","118.0.0.0","Windows","10.0","null","pt,en-US;q=0.9,en;q=0.8","true","null","tones/440hz_short.mp3","null","","","tone_number_task","1025","cincuenta y tres","tones/440hz_short.mp3","1175","60","2","12",""
"","","","","","html-keyboard-response","105","545930","0.0-101.0-0.0","49","1","2023-11-01 00:41:20","a725c3012b74bf33a1020a98cb69c237","186.13.97.33","Mozilla/5.0 (Windows NT 10.0; Win64; x64) AppleWebKit/537.36 (KHTML, like Gecko) Chrome/118.0.0.0 Safari/537.36","WebKit","Chrome","118.0.0.0","Windows","10.0","null","pt,en-US;q=0.9,en;q=0.8","true","109","tones/440hz_short.mp3","a","","","empty_block","","cincuenta y tres","","","","2","12",""
"","","","","","html-keyboard-response","106","546621","0.0-101.0-1.0","49","1","2023-11-01 00:41:20","a725c3012b74bf33a1020a98cb69c237","186.13.97.33","Mozilla/5.0 (Windows NT 10.0; Win64; x64) AppleWebKit/537.36 (KHTML, like Gecko) Chrome/118.0.0.0 Safari/537.36","WebKit","Chrome","118.0.0.0","Windows","10.0","null","pt,en-US;q=0.9,en;q=0.8","true","690","tones/440hz_short.mp3","k","","","empty_block","","cincuenta y tres","","","","2","12",""
"","","","","","html-keyboard-response","107","549412","0.0-103.0","49","1","2023-11-01 00:41:20","a725c3012b74bf33a1020a98cb69c237","186.13.97.33","Mozilla/5.0 (Windows NT 10.0; Win64; x64) AppleWebKit/537.36 (KHTML, like Gecko) Chrome/118.0.0.0 Safari/537.36","WebKit","Chrome","118.0.0.0","Windows","10.0","null","pt,en-US;q=0.9,en;q=0.8","true","null","<div style=""font-size:100px;"">X</div>","null","","","fixation","","","","","","","",""
"","","","","","audio-keyboard-response","108","549565","0.0-104.0","49","1","2023-11-01 00:41:20","a725c3012b74bf33a1020a98cb69c237","186.13.97.33","Mozilla/5.0 (Windows NT 10.0; Win64; x64) AppleWebKit/537.36 (KHTML, like Gecko) Chrome/118.0.0.0 Safari/537.36","WebKit","Chrome","118.0.0.0","Windows","10.0","null","pt,en-US;q=0.9,en;q=0.8","true","null","tones/440hz_short.mp3","null","","","tone_number_task","0","cuarenta y ocho","tones/440hz_short.mp3","150","60","2","13",""
"","","","","","html-keyboard-response","109","550768","0.0-107.0-0.0","49","1","2023-11-01 00:41:20","a725c3012b74bf33a1020a98cb69c237","186.13.97.33","Mozilla/5.0 (Windows NT 10.0; Win64; x64) AppleWebKit/537.36 (KHTML, like Gecko) Chrome/118.0.0.0 Safari/537.36","WebKit","Chrome","118.0.0.0","Windows","10.0","null","pt,en-US;q=0.9,en;q=0.8","true","null","tones/440hz_short.mp3","null","","","empty_block","","cuarenta y ocho","","","","2","13",""
"","","","","","html-keyboard-response","110","551284","0.0-107.0-1.0","49","1","2023-11-01 00:41:20","a725c3012b74bf33a1020a98cb69c237","186.13.97.33","Mozilla/5.0 (Windows NT 10.0; Win64; x64) AppleWebKit/537.36 (KHTML, like Gecko) Chrome/118.0.0.0 Safari/537.36","WebKit","Chrome","118.0.0.0","Windows","10.0","null","pt,en-US;q=0.9,en;q=0.8","true","514","tones/440hz_short.mp3","a","","","empty_block","","cuarenta y ocho","","","","2","13",""
"","","","","","html-keyboard-response","111","554073","0.0-109.0","49","1","2023-11-01 00:41:20","a725c3012b74bf33a1020a98cb69c237","186.13.97.33","Mozilla/5.0 (Windows NT 10.0; Win64; x64) AppleWebKit/537.36 (KHTML, like Gecko) Chrome/118.0.0.0 Safari/537.36","WebKit","Chrome","118.0.0.0","Windows","10.0","null","pt,en-US;q=0.9,en;q=0.8","true","null","<div style=""font-size:100px;"">X</div>","null","","","fixation","","","","","","","",""
"","","","","","audio-keyboard-response","112","554226","0.0-110.0","49","1","2023-11-01 00:41:20","a725c3012b74bf33a1020a98cb69c237","186.13.97.33","Mozilla/5.0 (Windows NT 10.0; Win64; x64) AppleWebKit/537.36 (KHTML, like Gecko) Chrome/118.0.0.0 Safari/537.36","WebKit","Chrome","118.0.0.0","Windows","10.0","null","pt,en-US;q=0.9,en;q=0.8","true","null","tones/880hz_short.mp3","null","","","tone_number_task","0","cincuenta y tres","tones/880hz_short.mp3","150","60","2","14",""
"","","","","","html-keyboard-response","113","555429","0.0-113.0-0.0","49","1","2023-11-01 00:41:20","a725c3012b74bf33a1020a98cb69c237","186.13.97.33","Mozilla/5.0 (Windows NT 10.0; Win64; x64) AppleWebKit/537.36 (KHTML, like Gecko) Chrome/118.0.0.0 Safari/537.36","WebKit","Chrome","118.0.0.0","Windows","10.0","null","pt,en-US;q=0.9,en;q=0.8","true","null","tones/880hz_short.mp3","null","","","empty_block","","cincuenta y tres","","","","2","14",""
"","","","","","html-keyboard-response","114","555473","0.0-113.0-1.0","49","1","2023-11-01 00:41:20","a725c3012b74bf33a1020a98cb69c237","186.13.97.33","Mozilla/5.0 (Windows NT 10.0; Win64; x64) AppleWebKit/537.36 (KHTML, like Gecko) Chrome/118.0.0.0 Safari/537.36","WebKit","Chrome","118.0.0.0","Windows","10.0","null","pt,en-US;q=0.9,en;q=0.8","true","41","tones/880hz_short.mp3","s","","","empty_block","","cincuenta y tres","","","","2","14",""
"","","","","","html-keyboard-response","115","558262","0.0-115.0","49","1","2023-11-01 00:41:20","a725c3012b74bf33a1020a98cb69c237","186.13.97.33","Mozilla/5.0 (Windows NT 10.0; Win64; x64) AppleWebKit/537.36 (KHTML, like Gecko) Chrome/118.0.0.0 Safari/537.36","WebKit","Chrome","118.0.0.0","Windows","10.0","null","pt,en-US;q=0.9,en;q=0.8","true","null","<div style=""font-size:100px;"">X</div>","null","","","fixation","","","","","","","",""
"","","","","","audio-keyboard-response","116","559350","0.0-116.0","49","1","2023-11-01 00:41:20","a725c3012b74bf33a1020a98cb69c237","186.13.97.33","Mozilla/5.0 (Windows NT 10.0; Win64; x64) AppleWebKit/537.36 (KHTML, like Gecko) Chrome/118.0.0.0 Safari/537.36","WebKit","Chrome","118.0.0.0","Windows","10.0","null","pt,en-US;q=0.9,en;q=0.8","true","1088","tones/440hz_short.mp3","a","","","tone_number_task","992.5","sesenta y cuatro","tones/440hz_short.mp3","1142.5","60","2","15",""
"","","","","","html-keyboard-response","117","559407","0.0-118.0-0.0","49","1","2023-11-01 00:41:20","a725c3012b74bf33a1020a98cb69c237","186.13.97.33","Mozilla/5.0 (Windows NT 10.0; Win64; x64) AppleWebKit/537.36 (KHTML, like Gecko) Chrome/118.0.0.0 Safari/537.36","WebKit","Chrome","118.0.0.0","Windows","10.0","null","pt,en-US;q=0.9,en;q=0.8","true","null","<p id=""stimulus"" style=""font-size:60px;"">sesenta y cuatro</p>","null","","","tone_number_task_remaining_after_delay","","sesenta y cuatro","","","60","2","15",""
"","","","","","html-keyboard-response","118","560320","0.0-120.0-0.0","49","1","2023-11-01 00:41:20","a725c3012b74bf33a1020a98cb69c237","186.13.97.33","Mozilla/5.0 (Windows NT 10.0; Win64; x64) AppleWebKit/537.36 (KHTML, like Gecko) Chrome/118.0.0.0 Safari/537.36","WebKit","Chrome","118.0.0.0","Windows","10.0","null","pt,en-US;q=0.9,en;q=0.8","true","910","<p id=""stimulus"" style=""font-size:60px;"">sesenta y cuatro</p>","k","","","empty_block","","sesenta y cuatro","","","","2","15",""
"","","","","","html-keyboard-response","119","563110","0.0-121.0","49","1","2023-11-01 00:41:20","a725c3012b74bf33a1020a98cb69c237","186.13.97.33","Mozilla/5.0 (Windows NT 10.0; Win64; x64) AppleWebKit/537.36 (KHTML, like Gecko) Chrome/118.0.0.0 Safari/537.36","WebKit","Chrome","118.0.0.0","Windows","10.0","null","pt,en-US;q=0.9,en;q=0.8","true","null","<div style=""font-size:100px;"">X</div>","null","","","fixation","","","","","","","",""
"","","","","","audio-keyboard-response","120","564270","0.0-122.0","49","1","2023-11-01 00:41:20","a725c3012b74bf33a1020a98cb69c237","186.13.97.33","Mozilla/5.0 (Windows NT 10.0; Win64; x64) AppleWebKit/537.36 (KHTML, like Gecko) Chrome/118.0.0.0 Safari/537.36","WebKit","Chrome","118.0.0.0","Windows","10.0","null","pt,en-US;q=0.9,en;q=0.8","true","1160","tones/880hz_short.mp3","s","","","tone_number_task","1025","sesenta y dos","tones/880hz_short.mp3","1175","60","2","16",""
"","","","","","html-keyboard-response","121","564287","0.0-124.0-0.0","49","1","2023-11-01 00:41:20","a725c3012b74bf33a1020a98cb69c237","186.13.97.33","Mozilla/5.0 (Windows NT 10.0; Win64; x64) AppleWebKit/537.36 (KHTML, like Gecko) Chrome/118.0.0.0 Safari/537.36","WebKit","Chrome","118.0.0.0","Windows","10.0","null","pt,en-US;q=0.9,en;q=0.8","true","null","<p id=""stimulus"" style=""font-size:60px;"">sesenta y dos</p>","null","","","tone_number_task_remaining_after_delay","","sesenta y dos","","","60","2","16",""
"","","","","","html-keyboard-response","122","565491","0.0-126.0-0.0","49","1","2023-11-01 00:41:20","a725c3012b74bf33a1020a98cb69c237","186.13.97.33","Mozilla/5.0 (Windows NT 10.0; Win64; x64) AppleWebKit/537.36 (KHTML, like Gecko) Chrome/118.0.0.0 Safari/537.36","WebKit","Chrome","118.0.0.0","Windows","10.0","null","pt,en-US;q=0.9,en;q=0.8","true","null","<p id=""stimulus"" style=""font-size:60px;"">sesenta y dos</p>","null","","","empty_block","","sesenta y dos","","","","2","16",""
"","","","","","html-keyboard-response","123","568282","0.0-127.0","49","1","2023-11-01 00:41:20","a725c3012b74bf33a1020a98cb69c237","186.13.97.33","Mozilla/5.0 (Windows NT 10.0; Win64; x64) AppleWebKit/537.36 (KHTML, like Gecko) Chrome/118.0.0.0 Safari/537.36","WebKit","Chrome","118.0.0.0","Windows","10.0","null","pt,en-US;q=0.9,en;q=0.8","true","null","<div style=""font-size:100px;"">X</div>","null","","","fixation","","","","","","","",""
"","","","","","audio-keyboard-response","124","568435","0.0-128.0","49","1","2023-11-01 00:41:20","a725c3012b74bf33a1020a98cb69c237","186.13.97.33","Mozilla/5.0 (Windows NT 10.0; Win64; x64) AppleWebKit/537.36 (KHTML, like Gecko) Chrome/118.0.0.0 Safari/537.36","WebKit","Chrome","118.0.0.0","Windows","10.0","null","pt,en-US;q=0.9,en;q=0.8","true","null","tones/880hz_short.mp3","null","","","tone_number_task","0","treinta y ocho","tones/880hz_short.mp3","150","60","2","17",""
"","","","","","html-keyboard-response","125","569639","0.0-131.0-0.0","49","1","2023-11-01 00:41:20","a725c3012b74bf33a1020a98cb69c237","186.13.97.33","Mozilla/5.0 (Windows NT 10.0; Win64; x64) AppleWebKit/537.36 (KHTML, like Gecko) Chrome/118.0.0.0 Safari/537.36","WebKit","Chrome","118.0.0.0","Windows","10.0","null","pt,en-US;q=0.9,en;q=0.8","true","null","tones/880hz_short.mp3","null","","","empty_block","","treinta y ocho","","","","2","17",""
"","","","","","html-keyboard-response","126","570842","0.0-131.0-1.0","49","1","2023-11-01 00:41:20","a725c3012b74bf33a1020a98cb69c237","186.13.97.33","Mozilla/5.0 (Windows NT 10.0; Win64; x64) AppleWebKit/537.36 (KHTML, like Gecko) Chrome/118.0.0.0 Safari/537.36","WebKit","Chrome","118.0.0.0","Windows","10.0","null","pt,en-US;q=0.9,en;q=0.8","true","null","tones/880hz_short.mp3","null","","","empty_block","","treinta y ocho","","","","2","17",""
"","","","","","html-keyboard-response","127","573631","0.0-133.0","49","1","2023-11-01 00:41:20","a725c3012b74bf33a1020a98cb69c237","186.13.97.33","Mozilla/5.0 (Windows NT 10.0; Win64; x64) AppleWebKit/537.36 (KHTML, like Gecko) Chrome/118.0.0.0 Safari/537.36","WebKit","Chrome","118.0.0.0","Windows","10.0","null","pt,en-US;q=0.9,en;q=0.8","true","null","<div style=""font-size:100px;"">X</div>","null","","","fixation","","","","","","","",""
"","","","","","audio-keyboard-response","128","574700","0.0-134.0","49","1","2023-11-01 00:41:20","a725c3012b74bf33a1020a98cb69c237","186.13.97.33","Mozilla/5.0 (Windows NT 10.0; Win64; x64) AppleWebKit/537.36 (KHTML, like Gecko) Chrome/118.0.0.0 Safari/537.36","WebKit","Chrome","118.0.0.0","Windows","10.0","null","pt,en-US;q=0.9,en;q=0.8","true","1072","tones/880hz_short.mp3","s","","","tone_number_task","992.5","cincuenta y siete","tones/880hz_short.mp3","1142.5","60","2","18",""
"","","","","","html-keyboard-response","129","574773","0.0-136.0-0.0","49","1","2023-11-01 00:41:20","a725c3012b74bf33a1020a98cb69c237","186.13.97.33","Mozilla/5.0 (Windows NT 10.0; Win64; x64) AppleWebKit/537.36 (KHTML, like Gecko) Chrome/118.0.0.0 Safari/537.36","WebKit","Chrome","118.0.0.0","Windows","10.0","null","pt,en-US;q=0.9,en;q=0.8","true","null","<p id=""stimulus"" style=""font-size:60px;"">cincuenta y siete</p>","null","","","tone_number_task_remaining_after_delay","","cincuenta y siete","","","60","2","18",""
"","","","","","html-keyboard-response","130","575750","0.0-138.0-0.0","49","1","2023-11-01 00:41:20","a725c3012b74bf33a1020a98cb69c237","186.13.97.33","Mozilla/5.0 (Windows NT 10.0; Win64; x64) AppleWebKit/537.36 (KHTML, like Gecko) Chrome/118.0.0.0 Safari/537.36","WebKit","Chrome","118.0.0.0","Windows","10.0","null","pt,en-US;q=0.9,en;q=0.8","true","974","<p id=""stimulus"" style=""font-size:60px;"">cincuenta y siete</p>","k","","","empty_block","","cincuenta y siete","","","","2","18",""
"","","","","","html-keyboard-response","131","578541","0.0-139.0","49","1","2023-11-01 00:41:20","a725c3012b74bf33a1020a98cb69c237","186.13.97.33","Mozilla/5.0 (Windows NT 10.0; Win64; x64) AppleWebKit/537.36 (KHTML, like Gecko) Chrome/118.0.0.0 Safari/537.36","WebKit","Chrome","118.0.0.0","Windows","10.0","null","pt,en-US;q=0.9,en;q=0.8","true","null","<div style=""font-size:100px;"">X</div>","null","","","fixation","","","","","","","",""
"","","","","","audio-keyboard-response","132","579719","0.0-140.0","49","1","2023-11-01 00:41:20","a725c3012b74bf33a1020a98cb69c237","186.13.97.33","Mozilla/5.0 (Windows NT 10.0; Win64; x64) AppleWebKit/537.36 (KHTML, like Gecko) Chrome/118.0.0.0 Safari/537.36","WebKit","Chrome","118.0.0.0","Windows","10.0","null","pt,en-US;q=0.9,en;q=0.8","true","null","tones/880hz_short.mp3","null","","","tone_number_task","1025","cuarenta y nueve","tones/880hz_short.mp3","1175","60","2","19",""
"","","","","","html-keyboard-response","133","580347","0.0-143.0-0.0","49","1","2023-11-01 00:41:20","a725c3012b74bf33a1020a98cb69c237","186.13.97.33","Mozilla/5.0 (Windows NT 10.0; Win64; x64) AppleWebKit/537.36 (KHTML, like Gecko) Chrome/118.0.0.0 Safari/537.36","WebKit","Chrome","118.0.0.0","Windows","10.0","null","pt,en-US;q=0.9,en;q=0.8","true","626","tones/880hz_short.mp3","s","","","empty_block","","cuarenta y nueve","","","","2","19",""
"","","","","","html-keyboard-response","134","581395","0.0-143.0-1.0","49","1","2023-11-01 00:41:20","a725c3012b74bf33a1020a98cb69c237","186.13.97.33","Mozilla/5.0 (Windows NT 10.0; Win64; x64) AppleWebKit/537.36 (KHTML, like Gecko) Chrome/118.0.0.0 Safari/537.36","WebKit","Chrome","118.0.0.0","Windows","10.0","null","pt,en-US;q=0.9,en;q=0.8","true","1045","tones/880hz_short.mp3","k","","","empty_block","","cuarenta y nueve","","","","2","19",""
"","","","","","html-keyboard-response","135","584186","0.0-145.0","49","1","2023-11-01 00:41:20","a725c3012b74bf33a1020a98cb69c237","186.13.97.33","Mozilla/5.0 (Windows NT 10.0; Win64; x64) AppleWebKit/537.36 (KHTML, like Gecko) Chrome/118.0.0.0 Safari/537.36","WebKit","Chrome","118.0.0.0","Windows","10.0","null","pt,en-US;q=0.9,en;q=0.8","true","null","<div style=""font-size:100px;"">X</div>","null","","","fixation","","","","","","","",""
"","","","","","audio-keyboard-response","136","584442","0.0-146.0","49","1","2023-11-01 00:41:20","a725c3012b74bf33a1020a98cb69c237","186.13.97.33","Mozilla/5.0 (Windows NT 10.0; Win64; x64) AppleWebKit/537.36 (KHTML, like Gecko) Chrome/118.0.0.0 Safari/537.36","WebKit","Chrome","118.0.0.0","Windows","10.0","null","pt,en-US;q=0.9,en;q=0.8","true","null","tones/880hz_short.mp3","null","","","tone_number_task","102.5","sesenta y tres","tones/880hz_short.mp3","252.5","60","2","20",""
"","","","","","html-keyboard-response","137","585646","0.0-149.0-0.0","49","1","2023-11-01 00:41:20","a725c3012b74bf33a1020a98cb69c237","186.13.97.33","Mozilla/5.0 (Windows NT 10.0; Win64; x64) AppleWebKit/537.36 (KHTML, like Gecko) Chrome/118.0.0.0 Safari/537.36","WebKit","Chrome","118.0.0.0","Windows","10.0","null","pt,en-US;q=0.9,en;q=0.8","true","null","tones/880hz_short.mp3","null","","","empty_block","","sesenta y tres","","","","2","20",""
"","","","","","html-keyboard-response","138","585713","0.0-149.0-1.0","49","1","2023-11-01 00:41:20","a725c3012b74bf33a1020a98cb69c237","186.13.97.33","Mozilla/5.0 (Windows NT 10.0; Win64; x64) AppleWebKit/537.36 (KHTML, like Gecko) Chrome/118.0.0.0 Safari/537.36","WebKit","Chrome","118.0.0.0","Windows","10.0","null","pt,en-US;q=0.9,en;q=0.8","true","65","tones/880hz_short.mp3","s","","","empty_block","","sesenta y tres","","","","2","20",""
"","","","","","html-keyboard-response","139","588504","0.0-151.0","49","1","2023-11-01 00:41:20","a725c3012b74bf33a1020a98cb69c237","186.13.97.33","Mozilla/5.0 (Windows NT 10.0; Win64; x64) AppleWebKit/537.36 (KHTML, like Gecko) Chrome/118.0.0.0 Safari/537.36","WebKit","Chrome","118.0.0.0","Windows","10.0","null","pt,en-US;q=0.9,en;q=0.8","true","null","<div style=""font-size:100px;"">X</div>","null","","","fixation","","","","","","","",""
"","","","","","audio-keyboard-response","140","589682","0.0-152.0","49","1","2023-11-01 00:41:20","a725c3012b74bf33a1020a98cb69c237","186.13.97.33","Mozilla/5.0 (Windows NT 10.0; Win64; x64) AppleWebKit/537.36 (KHTML, like Gecko) Chrome/118.0.0.0 Safari/537.36","WebKit","Chrome","118.0.0.0","Windows","10.0","null","pt,en-US;q=0.9,en;q=0.8","true","null","tones/440hz_short.mp3","null","","","tone_number_task","1025","veintinueve","tones/440hz_short.mp3","1175","60","2","21",""
"","","","","","html-keyboard-response","141","590140","0.0-155.0-0.0","49","1","2023-11-01 00:41:20","a725c3012b74bf33a1020a98cb69c237","186.13.97.33","Mozilla/5.0 (Windows NT 10.0; Win64; x64) AppleWebKit/537.36 (KHTML, like Gecko) Chrome/118.0.0.0 Safari/537.36","WebKit","Chrome","118.0.0.0","Windows","10.0","null","pt,en-US;q=0.9,en;q=0.8","true","455","tones/440hz_short.mp3","a","","","empty_block","","veintinueve","","","","2","21",""
"","","","","","html-keyboard-response","142","590768","0.0-155.0-1.0","49","1","2023-11-01 00:41:20","a725c3012b74bf33a1020a98cb69c237","186.13.97.33","Mozilla/5.0 (Windows NT 10.0; Win64; x64) AppleWebKit/537.36 (KHTML, like Gecko) Chrome/118.0.0.0 Safari/537.36","WebKit","Chrome","118.0.0.0","Windows","10.0","null","pt,en-US;q=0.9,en;q=0.8","true","626","tones/440hz_short.mp3","j","","","empty_block","","veintinueve","","","","2","21",""
"","","","","","html-keyboard-response","143","593557","0.0-157.0","49","1","2023-11-01 00:41:20","a725c3012b74bf33a1020a98cb69c237","186.13.97.33","Mozilla/5.0 (Windows NT 10.0; Win64; x64) AppleWebKit/537.36 (KHTML, like Gecko) Chrome/118.0.0.0 Safari/537.36","WebKit","Chrome","118.0.0.0","Windows","10.0","null","pt,en-US;q=0.9,en;q=0.8","true","null","<div style=""font-size:100px;"">X</div>","null","","","fixation","","","","","","","",""
"","","","","","audio-keyboard-response","144","593710","0.0-158.0","49","1","2023-11-01 00:41:20","a725c3012b74bf33a1020a98cb69c237","186.13.97.33","Mozilla/5.0 (Windows NT 10.0; Win64; x64) AppleWebKit/537.36 (KHTML, like Gecko) Chrome/118.0.0.0 Safari/537.36","WebKit","Chrome","118.0.0.0","Windows","10.0","null","pt,en-US;q=0.9,en;q=0.8","true","null","tones/440hz_short.mp3","null","","","tone_number_task","0","sesenta y siete","tones/440hz_short.mp3","150","60","2","22",""
"","","","","","html-keyboard-response","145","594915","0.0-161.0-0.0","49","1","2023-11-01 00:41:20","a725c3012b74bf33a1020a98cb69c237","186.13.97.33","Mozilla/5.0 (Windows NT 10.0; Win64; x64) AppleWebKit/537.36 (KHTML, like Gecko) Chrome/118.0.0.0 Safari/537.36","WebKit","Chrome","118.0.0.0","Windows","10.0","null","pt,en-US;q=0.9,en;q=0.8","true","null","tones/440hz_short.mp3","null","","","empty_block","","sesenta y siete","","","","2","22",""
"","","","","","html-keyboard-response","146","595155","0.0-161.0-1.0","49","1","2023-11-01 00:41:20","a725c3012b74bf33a1020a98cb69c237","186.13.97.33","Mozilla/5.0 (Windows NT 10.0; Win64; x64) AppleWebKit/537.36 (KHTML, like Gecko) Chrome/118.0.0.0 Safari/537.36","WebKit","Chrome","118.0.0.0","Windows","10.0","null","pt,en-US;q=0.9,en;q=0.8","true","237","tones/440hz_short.mp3","a","","","empty_block","","sesenta y siete","","","","2","22",""
"","","","","","html-keyboard-response","147","597946","0.0-163.0","49","1","2023-11-01 00:41:20","a725c3012b74bf33a1020a98cb69c237","186.13.97.33","Mozilla/5.0 (Windows NT 10.0; Win64; x64) AppleWebKit/537.36 (KHTML, like Gecko) Chrome/118.0.0.0 Safari/537.36","WebKit","Chrome","118.0.0.0","Windows","10.0","null","pt,en-US;q=0.9,en;q=0.8","true","null","<div style=""font-size:100px;"">X</div>","null","","","fixation","","","","","","","",""
"","","","","","audio-keyboard-response","148","599124","0.0-164.0","49","1","2023-11-01 00:41:20","a725c3012b74bf33a1020a98cb69c237","186.13.97.33","Mozilla/5.0 (Windows NT 10.0; Win64; x64) AppleWebKit/537.36 (KHTML, like Gecko) Chrome/118.0.0.0 Safari/537.36","WebKit","Chrome","118.0.0.0","Windows","10.0","null","pt,en-US;q=0.9,en;q=0.8","true","null","tones/440hz_short.mp3","null","","","tone_number_task","1025","cincuenta y tres","tones/440hz_short.mp3","1175","60","2","23",""
"","","","","","html-keyboard-response","149","599210","0.0-167.0-0.0","49","1","2023-11-01 00:41:20","a725c3012b74bf33a1020a98cb69c237","186.13.97.33","Mozilla/5.0 (Windows NT 10.0; Win64; x64) AppleWebKit/537.36 (KHTML, like Gecko) Chrome/118.0.0.0 Safari/537.36","WebKit","Chrome","118.0.0.0","Windows","10.0","null","pt,en-US;q=0.9,en;q=0.8","true","84","tones/440hz_short.mp3","a","","","empty_block","","cincuenta y tres","","","","2","23",""
"","","","","","html-keyboard-response","150","599889","0.0-167.0-1.0","49","1","2023-11-01 00:41:20","a725c3012b74bf33a1020a98cb69c237","186.13.97.33","Mozilla/5.0 (Windows NT 10.0; Win64; x64) AppleWebKit/537.36 (KHTML, like Gecko) Chrome/118.0.0.0 Safari/537.36","WebKit","Chrome","118.0.0.0","Windows","10.0","null","pt,en-US;q=0.9,en;q=0.8","true","676","tones/440hz_short.mp3","k","","","empty_block","","cincuenta y tres","","","","2","23",""
"","","","","","html-keyboard-response","151","602679","0.0-169.0","49","1","2023-11-01 00:41:20","a725c3012b74bf33a1020a98cb69c237","186.13.97.33","Mozilla/5.0 (Windows NT 10.0; Win64; x64) AppleWebKit/537.36 (KHTML, like Gecko) Chrome/118.0.0.0 Safari/537.36","WebKit","Chrome","118.0.0.0","Windows","10.0","null","pt,en-US;q=0.9,en;q=0.8","true","null","<div style=""font-size:100px;"">X</div>","null","","","fixation","","","","","","","",""
"","","","","","audio-keyboard-response","152","603857","0.0-170.0","49","1","2023-11-01 00:41:20","a725c3012b74bf33a1020a98cb69c237","186.13.97.33","Mozilla/5.0 (Windows NT 10.0; Win64; x64) AppleWebKit/537.36 (KHTML, like Gecko) Chrome/118.0.0.0 Safari/537.36","WebKit","Chrome","118.0.0.0","Windows","10.0","null","pt,en-US;q=0.9,en;q=0.8","true","null","tones/440hz_short.mp3","null","","","tone_number_task","1025","cincuenta y cuatro","tones/440hz_short.mp3","1175","60","2","24",""
"","","","","","html-keyboard-response","153","604412","0.0-173.0-0.0","49","1","2023-11-01 00:41:20","a725c3012b74bf33a1020a98cb69c237","186.13.97.33","Mozilla/5.0 (Windows NT 10.0; Win64; x64) AppleWebKit/537.36 (KHTML, like Gecko) Chrome/118.0.0.0 Safari/537.36","WebKit","Chrome","118.0.0.0","Windows","10.0","null","pt,en-US;q=0.9,en;q=0.8","true","552","tones/440hz_short.mp3","a","","","empty_block","","cincuenta y cuatro","","","","2","24",""
"","","","","","html-keyboard-response","154","605500","0.0-173.0-1.0","49","1","2023-11-01 00:41:20","a725c3012b74bf33a1020a98cb69c237","186.13.97.33","Mozilla/5.0 (Windows NT 10.0; Win64; x64) AppleWebKit/537.36 (KHTML, like Gecko) Chrome/118.0.0.0 Safari/537.36","WebKit","Chrome","118.0.0.0","Windows","10.0","null","pt,en-US;q=0.9,en;q=0.8","true","1085","tones/440hz_short.mp3","k","","","empty_block","","cincuenta y cuatro","","","","2","24",""
"","","","","","html-keyboard-response","155","608290","0.0-175.0","49","1","2023-11-01 00:41:20","a725c3012b74bf33a1020a98cb69c237","186.13.97.33","Mozilla/5.0 (Windows NT 10.0; Win64; x64) AppleWebKit/537.36 (KHTML, like Gecko) Chrome/118.0.0.0 Safari/537.36","WebKit","Chrome","118.0.0.0","Windows","10.0","null","pt,en-US;q=0.9,en;q=0.8","true","null","<div style=""font-size:100px;"">X</div>","null","","","fixation","","","","","","","",""
"","","","","","audio-keyboard-response","156","608444","0.0-176.0","49","1","2023-11-01 00:41:20","a725c3012b74bf33a1020a98cb69c237","186.13.97.33","Mozilla/5.0 (Windows NT 10.0; Win64; x64) AppleWebKit/537.36 (KHTML, like Gecko) Chrome/118.0.0.0 Safari/537.36","WebKit","Chrome","118.0.0.0","Windows","10.0","null","pt,en-US;q=0.9,en;q=0.8","true","null","tones/440hz_short.mp3","null","","","tone_number_task","0","sesenta y cuatro","tones/440hz_short.mp3","150","60","2","25",""
"","","","","","html-keyboard-response","157","609526","0.0-179.0-0.0","49","1","2023-11-01 00:41:20","a725c3012b74bf33a1020a98cb69c237","186.13.97.33","Mozilla/5.0 (Windows NT 10.0; Win64; x64) AppleWebKit/537.36 (KHTML, like Gecko) Chrome/118.0.0.0 Safari/537.36","WebKit","Chrome","118.0.0.0","Windows","10.0","null","pt,en-US;q=0.9,en;q=0.8","true","1079","tones/440hz_short.mp3","a","","","empty_block","","sesenta y cuatro","","","","2","25",""
"","","","","","html-keyboard-response","158","610095","0.0-179.0-1.0","49","1","2023-11-01 00:41:20","a725c3012b74bf33a1020a98cb69c237","186.13.97.33","Mozilla/5.0 (Windows NT 10.0; Win64; x64) AppleWebKit/537.36 (KHTML, like Gecko) Chrome/118.0.0.0 Safari/537.36","WebKit","Chrome","118.0.0.0","Windows","10.0","null","pt,en-US;q=0.9,en;q=0.8","true","567","tones/440hz_short.mp3","k","","","empty_block","","sesenta y cuatro","","","","2","25",""
"","","","","","html-keyboard-response","159","612887","0.0-181.0","49","1","2023-11-01 00:41:20","a725c3012b74bf33a1020a98cb69c237","186.13.97.33","Mozilla/5.0 (Windows NT 10.0; Win64; x64) AppleWebKit/537.36 (KHTML, like Gecko) Chrome/118.0.0.0 Safari/537.36","WebKit","Chrome","118.0.0.0","Windows","10.0","null","pt,en-US;q=0.9,en;q=0.8","true","null","<div style=""font-size:100px;"">X</div>","null","","","fixation","","","","","","","",""
"","","","","","audio-keyboard-response","160","613143","0.0-182.0","49","1","2023-11-01 00:41:20","a725c3012b74bf33a1020a98cb69c237","186.13.97.33","Mozilla/5.0 (Windows NT 10.0; Win64; x64) AppleWebKit/537.36 (KHTML, like Gecko) Chrome/118.0.0.0 Safari/537.36","WebKit","Chrome","118.0.0.0","Windows","10.0","null","pt,en-US;q=0.9,en;q=0.8","true","null","tones/440hz_short.mp3","null","","","tone_number_task","102.5","sesenta y tres","tones/440hz_short.mp3","252.5","60","2","26",""
"","","","","","html-keyboard-response","161","613976","0.0-185.0-0.0","49","1","2023-11-01 00:41:20","a725c3012b74bf33a1020a98cb69c237","186.13.97.33","Mozilla/5.0 (Windows NT 10.0; Win64; x64) AppleWebKit/537.36 (KHTML, like Gecko) Chrome/118.0.0.0 Safari/537.36","WebKit","Chrome","118.0.0.0","Windows","10.0","null","pt,en-US;q=0.9,en;q=0.8","true","830","tones/440hz_short.mp3","a","","","empty_block","","sesenta y tres","","","","2","26",""
"","","","","","html-keyboard-response","162","614479","0.0-185.0-1.0","49","1","2023-11-01 00:41:20","a725c3012b74bf33a1020a98cb69c237","186.13.97.33","Mozilla/5.0 (Windows NT 10.0; Win64; x64) AppleWebKit/537.36 (KHTML, like Gecko) Chrome/118.0.0.0 Safari/537.36","WebKit","Chrome","118.0.0.0","Windows","10.0","null","pt,en-US;q=0.9,en;q=0.8","true","501","tones/440hz_short.mp3","k","","","empty_block","","sesenta y tres","","","","2","26",""
"","","","","","html-keyboard-response","163","617270","0.0-187.0","49","1","2023-11-01 00:41:20","a725c3012b74bf33a1020a98cb69c237","186.13.97.33","Mozilla/5.0 (Windows NT 10.0; Win64; x64) AppleWebKit/537.36 (KHTML, like Gecko) Chrome/118.0.0.0 Safari/537.36","WebKit","Chrome","118.0.0.0","Windows","10.0","null","pt,en-US;q=0.9,en;q=0.8","true","null","<div style=""font-size:100px;"">X</div>","null","","","fixation","","","","","","","",""
"","","","","","audio-keyboard-response","164","617423","0.0-188.0","49","1","2023-11-01 00:41:20","a725c3012b74bf33a1020a98cb69c237","186.13.97.33","Mozilla/5.0 (Windows NT 10.0; Win64; x64) AppleWebKit/537.36 (KHTML, like Gecko) Chrome/118.0.0.0 Safari/537.36","WebKit","Chrome","118.0.0.0","Windows","10.0","null","pt,en-US;q=0.9,en;q=0.8","true","null","tones/440hz_short.mp3","null","","","tone_number_task","0","cincuenta y tres","tones/440hz_short.mp3","150","60","2","27",""
"","","","","","html-keyboard-response","165","618628","0.0-191.0-0.0","49","1","2023-11-01 00:41:20","a725c3012b74bf33a1020a98cb69c237","186.13.97.33","Mozilla/5.0 (Windows NT 10.0; Win64; x64) AppleWebKit/537.36 (KHTML, like Gecko) Chrome/118.0.0.0 Safari/537.36","WebKit","Chrome","118.0.0.0","Windows","10.0","null","pt,en-US;q=0.9,en;q=0.8","true","null","tones/440hz_short.mp3","null","","","empty_block","","cincuenta y tres","","","","2","27",""
"","","","","","html-keyboard-response","166","618798","0.0-191.0-1.0","49","1","2023-11-01 00:41:20","a725c3012b74bf33a1020a98cb69c237","186.13.97.33","Mozilla/5.0 (Windows NT 10.0; Win64; x64) AppleWebKit/537.36 (KHTML, like Gecko) Chrome/118.0.0.0 Safari/537.36","WebKit","Chrome","118.0.0.0","Windows","10.0","null","pt,en-US;q=0.9,en;q=0.8","true","168","tones/440hz_short.mp3","a","","","empty_block","","cincuenta y tres","","","","2","27",""
"","","","","","html-keyboard-response","167","621589","0.0-193.0","49","1","2023-11-01 00:41:20","a725c3012b74bf33a1020a98cb69c237","186.13.97.33","Mozilla/5.0 (Windows NT 10.0; Win64; x64) AppleWebKit/537.36 (KHTML, like Gecko) Chrome/118.0.0.0 Safari/537.36","WebKit","Chrome","118.0.0.0","Windows","10.0","null","pt,en-US;q=0.9,en;q=0.8","true","null","<div style=""font-size:100px;"">X</div>","null","","","fixation","","","","","","","",""
"","","","","","audio-keyboard-response","168","621844","0.0-194.0","49","1","2023-11-01 00:41:20","a725c3012b74bf33a1020a98cb69c237","186.13.97.33","Mozilla/5.0 (Windows NT 10.0; Win64; x64) AppleWebKit/537.36 (KHTML, like Gecko) Chrome/118.0.0.0 Safari/537.36","WebKit","Chrome","118.0.0.0","Windows","10.0","null","pt,en-US;q=0.9,en;q=0.8","true","null","tones/880hz_short.mp3","null","","","tone_number_task","102.5","cincuenta y cinco","tones/880hz_short.mp3","252.5","60","2","28",""
"","","","","","html-keyboard-response","169","622494","0.0-197.0-0.0","49","1","2023-11-01 00:41:20","a725c3012b74bf33a1020a98cb69c237","186.13.97.33","Mozilla/5.0 (Windows NT 10.0; Win64; x64) AppleWebKit/537.36 (KHTML, like Gecko) Chrome/118.0.0.0 Safari/537.36","WebKit","Chrome","118.0.0.0","Windows","10.0","null","pt,en-US;q=0.9,en;q=0.8","true","646","tones/880hz_short.mp3","a","","","empty_block","","cincuenta y cinco","","","","2","28",""
"","","","","","html-keyboard-response","170","623697","0.0-197.0-1.0","49","1","2023-11-01 00:41:20","a725c3012b74bf33a1020a98cb69c237","186.13.97.33","Mozilla/5.0 (Windows NT 10.0; Win64; x64) AppleWebKit/537.36 (KHTML, like Gecko) Chrome/118.0.0.0 Safari/537.36","WebKit","Chrome","118.0.0.0","Windows","10.0","null","pt,en-US;q=0.9,en;q=0.8","true","null","tones/880hz_short.mp3","null","","","empty_block","","cincuenta y cinco","","","","2","28",""
"","","","","","html-keyboard-response","171","626487","0.0-199.0","49","1","2023-11-01 00:41:20","a725c3012b74bf33a1020a98cb69c237","186.13.97.33","Mozilla/5.0 (Windows NT 10.0; Win64; x64) AppleWebKit/537.36 (KHTML, like Gecko) Chrome/118.0.0.0 Safari/537.36","WebKit","Chrome","118.0.0.0","Windows","10.0","null","pt,en-US;q=0.9,en;q=0.8","true","null","<div style=""font-size:100px;"">X</div>","null","","","fixation","","","","","","","",""
"","","","","","audio-keyboard-response","172","626744","0.0-200.0","49","1","2023-11-01 00:41:20","a725c3012b74bf33a1020a98cb69c237","186.13.97.33","Mozilla/5.0 (Windows NT 10.0; Win64; x64) AppleWebKit/537.36 (KHTML, like Gecko) Chrome/118.0.0.0 Safari/537.36","WebKit","Chrome","118.0.0.0","Windows","10.0","null","pt,en-US;q=0.9,en;q=0.8","true","null","tones/880hz_short.mp3","null","","","tone_number_task","102.5","cincuenta y uno","tones/880hz_short.mp3","252.5","60","2","29",""
"","","","","","html-keyboard-response","173","627641","0.0-203.0-0.0","49","1","2023-11-01 00:41:20","a725c3012b74bf33a1020a98cb69c237","186.13.97.33","Mozilla/5.0 (Windows NT 10.0; Win64; x64) AppleWebKit/537.36 (KHTML, like Gecko) Chrome/118.0.0.0 Safari/537.36","WebKit","Chrome","118.0.0.0","Windows","10.0","null","pt,en-US;q=0.9,en;q=0.8","true","894","tones/880hz_short.mp3","s","","","empty_block","","cincuenta y uno","","","","2","29",""
"","","","","","html-keyboard-response","174","628197","0.0-203.0-1.0","49","1","2023-11-01 00:41:20","a725c3012b74bf33a1020a98cb69c237","186.13.97.33","Mozilla/5.0 (Windows NT 10.0; Win64; x64) AppleWebKit/537.36 (KHTML, like Gecko) Chrome/118.0.0.0 Safari/537.36","WebKit","Chrome","118.0.0.0","Windows","10.0","null","pt,en-US;q=0.9,en;q=0.8","true","554","tones/880hz_short.mp3","k","","","empty_block","","cincuenta y uno","","","","2","29",""
"","","","","","html-keyboard-response","175","630987","0.0-205.0","49","1","2023-11-01 00:41:20","a725c3012b74bf33a1020a98cb69c237","186.13.97.33","Mozilla/5.0 (Windows NT 10.0; Win64; x64) AppleWebKit/537.36 (KHTML, like Gecko) Chrome/118.0.0.0 Safari/537.36","WebKit","Chrome","118.0.0.0","Windows","10.0","null","pt,en-US;q=0.9,en;q=0.8","true","null","<div style=""font-size:100px;"">X</div>","null","","","fixation","","","","","","","",""
"","","","","","audio-keyboard-response","176","632134","0.0-206.0","49","1","2023-11-01 00:41:20","a725c3012b74bf33a1020a98cb69c237","186.13.97.33","Mozilla/5.0 (Windows NT 10.0; Win64; x64) AppleWebKit/537.36 (KHTML, like Gecko) Chrome/118.0.0.0 Safari/537.36","WebKit","Chrome","118.0.0.0","Windows","10.0","null","pt,en-US;q=0.9,en;q=0.8","true","null","tones/880hz_short.mp3","null","","","tone_number_task","992.5","cincuenta y nueve","tones/880hz_short.mp3","1142.5","60","2","30",""
"","","","","","html-keyboard-response","177","632200","0.0-209.0-0.0","49","1","2023-11-01 00:41:20","a725c3012b74bf33a1020a98cb69c237","186.13.97.33","Mozilla/5.0 (Windows NT 10.0; Win64; x64) AppleWebKit/537.36 (KHTML, like Gecko) Chrome/118.0.0.0 Safari/537.36","WebKit","Chrome","118.0.0.0","Windows","10.0","null","pt,en-US;q=0.9,en;q=0.8","true","62","tones/880hz_short.mp3","s","","","empty_block","","cincuenta y nueve","","","","2","30",""
"","","","","","html-keyboard-response","178","632788","0.0-209.0-1.0","49","1","2023-11-01 00:41:20","a725c3012b74bf33a1020a98cb69c237","186.13.97.33","Mozilla/5.0 (Windows NT 10.0; Win64; x64) AppleWebKit/537.36 (KHTML, like Gecko) Chrome/118.0.0.0 Safari/537.36","WebKit","Chrome","118.0.0.0","Windows","10.0","null","pt,en-US;q=0.9,en;q=0.8","true","586","tones/880hz_short.mp3","k","","","empty_block","","cincuenta y nueve","","","","2","30",""
"","","","","","html-keyboard-response","179","635579","0.0-211.0","49","1","2023-11-01 00:41:20","a725c3012b74bf33a1020a98cb69c237","186.13.97.33","Mozilla/5.0 (Windows NT 10.0; Win64; x64) AppleWebKit/537.36 (KHTML, like Gecko) Chrome/118.0.0.0 Safari/537.36","WebKit","Chrome","118.0.0.0","Windows","10.0","null","pt,en-US;q=0.9,en;q=0.8","true","null","<div style=""font-size:100px;"">X</div>","null","","","fixation","","","","","","","",""
"","","","","","audio-keyboard-response","180","635734","0.0-212.0","49","1","2023-11-01 00:41:20","a725c3012b74bf33a1020a98cb69c237","186.13.97.33","Mozilla/5.0 (Windows NT 10.0; Win64; x64) AppleWebKit/537.36 (KHTML, like Gecko) Chrome/118.0.0.0 Safari/537.36","WebKit","Chrome","118.0.0.0","Windows","10.0","null","pt,en-US;q=0.9,en;q=0.8","true","null","tones/880hz_short.mp3","null","","","tone_number_task","0","treinta y ocho","tones/880hz_short.mp3","150","60","2","31",""
"","","","","","html-keyboard-response","181","636939","0.0-215.0-0.0","49","1","2023-11-01 00:41:20","a725c3012b74bf33a1020a98cb69c237","186.13.97.33","Mozilla/5.0 (Windows NT 10.0; Win64; x64) AppleWebKit/537.36 (KHTML, like Gecko) Chrome/118.0.0.0 Safari/537.36","WebKit","Chrome","118.0.0.0","Windows","10.0","null","pt,en-US;q=0.9,en;q=0.8","true","null","tones/880hz_short.mp3","null","","","empty_block","","treinta y ocho","","","","2","31",""
"","","","","","html-keyboard-response","182","637137","0.0-215.0-1.0","49","1","2023-11-01 00:41:20","a725c3012b74bf33a1020a98cb69c237","186.13.97.33","Mozilla/5.0 (Windows NT 10.0; Win64; x64) AppleWebKit/537.36 (KHTML, like Gecko) Chrome/118.0.0.0 Safari/537.36","WebKit","Chrome","118.0.0.0","Windows","10.0","null","pt,en-US;q=0.9,en;q=0.8","true","194","tones/880hz_short.mp3","s","","","empty_block","","treinta y ocho","","","","2","31",""
"","","","","","html-keyboard-response","183","639928","0.0-217.0","49","1","2023-11-01 00:41:20","a725c3012b74bf33a1020a98cb69c237","186.13.97.33","Mozilla/5.0 (Windows NT 10.0; Win64; x64) AppleWebKit/537.36 (KHTML, like Gecko) Chrome/118.0.0.0 Safari/537.36","WebKit","Chrome","118.0.0.0","Windows","10.0","null","pt,en-US;q=0.9,en;q=0.8","true","null","<div style=""font-size:100px;"">X</div>","null","","","fixation","","","","","","","",""
"","","","","","audio-keyboard-response","184","641074","0.0-218.0","49","1","2023-11-01 00:41:20","a725c3012b74bf33a1020a98cb69c237","186.13.97.33","Mozilla/5.0 (Windows NT 10.0; Win64; x64) AppleWebKit/537.36 (KHTML, like Gecko) Chrome/118.0.0.0 Safari/537.36","WebKit","Chrome","118.0.0.0","Windows","10.0","null","pt,en-US;q=0.9,en;q=0.8","true","null","tones/440hz_short.mp3","null","","","tone_number_task","992.5","cuarenta y siete","tones/440hz_short.mp3","1142.5","60","2","32",""
"","","","","","html-keyboard-response","185","642279","0.0-221.0-0.0","49","1","2023-11-01 00:41:20","a725c3012b74bf33a1020a98cb69c237","186.13.97.33","Mozilla/5.0 (Windows NT 10.0; Win64; x64) AppleWebKit/537.36 (KHTML, like Gecko) Chrome/118.0.0.0 Safari/537.36","WebKit","Chrome","118.0.0.0","Windows","10.0","null","pt,en-US;q=0.9,en;q=0.8","true","null","tones/440hz_short.mp3","null","","","empty_block","","cuarenta y siete","","","","2","32",""
"","","","","","html-keyboard-response","186","642289","0.0-221.0-1.0","49","1","2023-11-01 00:41:20","a725c3012b74bf33a1020a98cb69c237","186.13.97.33","Mozilla/5.0 (Windows NT 10.0; Win64; x64) AppleWebKit/537.36 (KHTML, like Gecko) Chrome/118.0.0.0 Safari/537.36","WebKit","Chrome","118.0.0.0","Windows","10.0","null","pt,en-US;q=0.9,en;q=0.8","true","7","tones/440hz_short.mp3","a","","","empty_block","","cuarenta y siete","","","","2","32",""
"","","","","","html-keyboard-response","187","645080","0.0-223.0","49","1","2023-11-01 00:41:20","a725c3012b74bf33a1020a98cb69c237","186.13.97.33","Mozilla/5.0 (Windows NT 10.0; Win64; x64) AppleWebKit/537.36 (KHTML, like Gecko) Chrome/118.0.0.0 Safari/537.36","WebKit","Chrome","118.0.0.0","Windows","10.0","null","pt,en-US;q=0.9,en;q=0.8","true","null","<div style=""font-size:100px;"">X</div>","null","","","fixation","","","","","","","",""
"","","","","","audio-keyboard-response","188","645336","0.0-224.0","49","1","2023-11-01 00:41:20","a725c3012b74bf33a1020a98cb69c237","186.13.97.33","Mozilla/5.0 (Windows NT 10.0; Win64; x64) AppleWebKit/537.36 (KHTML, like Gecko) Chrome/118.0.0.0 Safari/537.36","WebKit","Chrome","118.0.0.0","Windows","10.0","null","pt,en-US;q=0.9,en;q=0.8","true","null","tones/880hz_short.mp3","null","","","tone_number_task","102.5","sesenta y nueve","tones/880hz_short.mp3","252.5","60","2","33",""
"","","","","","html-keyboard-response","189","646540","0.0-227.0-0.0","49","1","2023-11-01 00:41:20","a725c3012b74bf33a1020a98cb69c237","186.13.97.33","Mozilla/5.0 (Windows NT 10.0; Win64; x64) AppleWebKit/537.36 (KHTML, like Gecko) Chrome/118.0.0.0 Safari/537.36","WebKit","Chrome","118.0.0.0","Windows","10.0","null","pt,en-US;q=0.9,en;q=0.8","true","null","tones/880hz_short.mp3","null","","","empty_block","","sesenta y nueve","","","","2","33",""
"","","","","","html-keyboard-response","190","646614","0.0-227.0-1.0","49","1","2023-11-01 00:41:20","a725c3012b74bf33a1020a98cb69c237","186.13.97.33","Mozilla/5.0 (Windows NT 10.0; Win64; x64) AppleWebKit/537.36 (KHTML, like Gecko) Chrome/118.0.0.0 Safari/537.36","WebKit","Chrome","118.0.0.0","Windows","10.0","null","pt,en-US;q=0.9,en;q=0.8","true","71","tones/880hz_short.mp3","s","","","empty_block","","sesenta y nueve","","","","2","33",""
"","","","","","html-keyboard-response","191","649406","0.0-229.0","49","1","2023-11-01 00:41:20","a725c3012b74bf33a1020a98cb69c237","186.13.97.33","Mozilla/5.0 (Windows NT 10.0; Win64; x64) AppleWebKit/537.36 (KHTML, like Gecko) Chrome/118.0.0.0 Safari/537.36","WebKit","Chrome","118.0.0.0","Windows","10.0","null","pt,en-US;q=0.9,en;q=0.8","true","null","<div style=""font-size:100px;"">X</div>","null","","","fixation","","","","","","","",""
"","","","","","audio-keyboard-response","192","650551","0.0-230.0","49","1","2023-11-01 00:41:20","a725c3012b74bf33a1020a98cb69c237","186.13.97.33","Mozilla/5.0 (Windows NT 10.0; Win64; x64) AppleWebKit/537.36 (KHTML, like Gecko) Chrome/118.0.0.0 Safari/537.36","WebKit","Chrome","118.0.0.0","Windows","10.0","null","pt,en-US;q=0.9,en;q=0.8","true","null","tones/880hz_short.mp3","null","","","tone_number_task","992.5","cincuenta y dos","tones/880hz_short.mp3","1142.5","60","2","34",""
"","","","","","html-keyboard-response","193","650934","0.0-233.0-0.0","49","1","2023-11-01 00:41:20","a725c3012b74bf33a1020a98cb69c237","186.13.97.33","Mozilla/5.0 (Windows NT 10.0; Win64; x64) AppleWebKit/537.36 (KHTML, like Gecko) Chrome/118.0.0.0 Safari/537.36","WebKit","Chrome","118.0.0.0","Windows","10.0","null","pt,en-US;q=0.9,en;q=0.8","true","380","tones/880hz_short.mp3","s","","","empty_block","","cincuenta y dos","","","","2","34",""
"","","","","","html-keyboard-response","194","651560","0.0-233.0-1.0","49","1","2023-11-01 00:41:20","a725c3012b74bf33a1020a98cb69c237","186.13.97.33","Mozilla/5.0 (Windows NT 10.0; Win64; x64) AppleWebKit/537.36 (KHTML, like Gecko) Chrome/118.0.0.0 Safari/537.36","WebKit","Chrome","118.0.0.0","Windows","10.0","null","pt,en-US;q=0.9,en;q=0.8","true","624","tones/880hz_short.mp3","k","","","empty_block","","cincuenta y dos","","","","2","34",""
"","","","","","html-keyboard-response","195","654351","0.0-235.0","49","1","2023-11-01 00:41:20","a725c3012b74bf33a1020a98cb69c237","186.13.97.33","Mozilla/5.0 (Windows NT 10.0; Win64; x64) AppleWebKit/537.36 (KHTML, like Gecko) Chrome/118.0.0.0 Safari/537.36","WebKit","Chrome","118.0.0.0","Windows","10.0","null","pt,en-US;q=0.9,en;q=0.8","true","null","<div style=""font-size:100px;"">X</div>","null","","","fixation","","","","","","","",""
"","","","","","audio-keyboard-response","196","654504","0.0-236.0","49","1","2023-11-01 00:41:20","a725c3012b74bf33a1020a98cb69c237","186.13.97.33","Mozilla/5.0 (Windows NT 10.0; Win64; x64) AppleWebKit/537.36 (KHTML, like Gecko) Chrome/118.0.0.0 Safari/537.36","WebKit","Chrome","118.0.0.0","Windows","10.0","null","pt,en-US;q=0.9,en;q=0.8","true","null","tones/440hz_short.mp3","null","","","tone_number_task","0","treinta y dos","tones/440hz_short.mp3","150","60","2","35",""
"","","","","","html-keyboard-response","197","655708","0.0-239.0-0.0","49","1","2023-11-01 00:41:20","a725c3012b74bf33a1020a98cb69c237","186.13.97.33","Mozilla/5.0 (Windows NT 10.0; Win64; x64) AppleWebKit/537.36 (KHTML, like Gecko) Chrome/118.0.0.0 Safari/537.36","WebKit","Chrome","118.0.0.0","Windows","10.0","null","pt,en-US;q=0.9,en;q=0.8","true","null","tones/440hz_short.mp3","null","","","empty_block","","treinta y dos","","","","2","35",""
"","","","","","html-keyboard-response","198","656155","0.0-239.0-1.0","49","1","2023-11-01 00:41:20","a725c3012b74bf33a1020a98cb69c237","186.13.97.33","Mozilla/5.0 (Windows NT 10.0; Win64; x64) AppleWebKit/537.36 (KHTML, like Gecko) Chrome/118.0.0.0 Safari/537.36","WebKit","Chrome","118.0.0.0","Windows","10.0","null","pt,en-US;q=0.9,en;q=0.8","true","443","tones/440hz_short.mp3","a","","","empty_block","","treinta y dos","","","","2","35",""
"","","","","","html-keyboard-response","199","658945","0.0-241.0","49","1","2023-11-01 00:41:20","a725c3012b74bf33a1020a98cb69c237","186.13.97.33","Mozilla/5.0 (Windows NT 10.0; Win64; x64) AppleWebKit/537.36 (KHTML, like Gecko) Chrome/118.0.0.0 Safari/537.36","WebKit","Chrome","118.0.0.0","Windows","10.0","null","pt,en-US;q=0.9,en;q=0.8","true","null","<div style=""font-size:100px;"">X</div>","null","","","fixation","","","","","","","",""
"","","","","","audio-keyboard-response","200","659200","0.0-242.0","49","1","2023-11-01 00:41:20","a725c3012b74bf33a1020a98cb69c237","186.13.97.33","Mozilla/5.0 (Windows NT 10.0; Win64; x64) AppleWebKit/537.36 (KHTML, like Gecko) Chrome/118.0.0.0 Safari/537.36","WebKit","Chrome","118.0.0.0","Windows","10.0","null","pt,en-US;q=0.9,en;q=0.8","true","null","tones/880hz_short.mp3","null","","","tone_number_task","102.5","treinta y tres","tones/880hz_short.mp3","252.5","60","2","36",""
"","","","","","html-keyboard-response","201","660233","0.0-245.0-0.0","49","1","2023-11-01 00:41:20","a725c3012b74bf33a1020a98cb69c237","186.13.97.33","Mozilla/5.0 (Windows NT 10.0; Win64; x64) AppleWebKit/537.36 (KHTML, like Gecko) Chrome/118.0.0.0 Safari/537.36","WebKit","Chrome","118.0.0.0","Windows","10.0","null","pt,en-US;q=0.9,en;q=0.8","true","1030","tones/880hz_short.mp3","a","","","empty_block","","treinta y tres","","","","2","36",""
"","","","","","html-keyboard-response","202","660907","0.0-245.0-1.0","49","1","2023-11-01 00:41:20","a725c3012b74bf33a1020a98cb69c237","186.13.97.33","Mozilla/5.0 (Windows NT 10.0; Win64; x64) AppleWebKit/537.36 (KHTML, like Gecko) Chrome/118.0.0.0 Safari/537.36","WebKit","Chrome","118.0.0.0","Windows","10.0","null","pt,en-US;q=0.9,en;q=0.8","true","671","tones/880hz_short.mp3","j","","","empty_block","","treinta y tres","","","","2","36",""
"","","","","","html-keyboard-response","203","663698","0.0-247.0","49","1","2023-11-01 00:41:20","a725c3012b74bf33a1020a98cb69c237","186.13.97.33","Mozilla/5.0 (Windows NT 10.0; Win64; x64) AppleWebKit/537.36 (KHTML, like Gecko) Chrome/118.0.0.0 Safari/537.36","WebKit","Chrome","118.0.0.0","Windows","10.0","null","pt,en-US;q=0.9,en;q=0.8","true","null","<div style=""font-size:100px;"">X</div>","null","","","fixation","","","","","","","",""
"","","","","","audio-keyboard-response","204","664844","0.0-248.0","49","1","2023-11-01 00:41:20","a725c3012b74bf33a1020a98cb69c237","186.13.97.33","Mozilla/5.0 (Windows NT 10.0; Win64; x64) AppleWebKit/537.36 (KHTML, like Gecko) Chrome/118.0.0.0 Safari/537.36","WebKit","Chrome","118.0.0.0","Windows","10.0","null","pt,en-US;q=0.9,en;q=0.8","true","null","tones/880hz_short.mp3","null","","","tone_number_task","992.5","veinticuatro","tones/880hz_short.mp3","1142.5","60","2","37",""
"","","","","","html-keyboard-response","205","665137","0.0-251.0-0.0","49","1","2023-11-01 00:41:20","a725c3012b74bf33a1020a98cb69c237","186.13.97.33","Mozilla/5.0 (Windows NT 10.0; Win64; x64) AppleWebKit/537.36 (KHTML, like Gecko) Chrome/118.0.0.0 Safari/537.36","WebKit","Chrome","118.0.0.0","Windows","10.0","null","pt,en-US;q=0.9,en;q=0.8","true","289","tones/880hz_short.mp3","s","","","empty_block","","veinticuatro","","","","2","37",""
"","","","","","html-keyboard-response","206","665689","0.0-251.0-1.0","49","1","2023-11-01 00:41:20","a725c3012b74bf33a1020a98cb69c237","186.13.97.33","Mozilla/5.0 (Windows NT 10.0; Win64; x64) AppleWebKit/537.36 (KHTML, like Gecko) Chrome/118.0.0.0 Safari/537.36","WebKit","Chrome","118.0.0.0","Windows","10.0","null","pt,en-US;q=0.9,en;q=0.8","true","549","tones/880hz_short.mp3","j","","","empty_block","","veinticuatro","","","","2","37",""
"","","","","","html-keyboard-response","207","668479","0.0-253.0","49","1","2023-11-01 00:41:20","a725c3012b74bf33a1020a98cb69c237","186.13.97.33","Mozilla/5.0 (Windows NT 10.0; Win64; x64) AppleWebKit/537.36 (KHTML, like Gecko) Chrome/118.0.0.0 Safari/537.36","WebKit","Chrome","118.0.0.0","Windows","10.0","null","pt,en-US;q=0.9,en;q=0.8","true","null","<div style=""font-size:100px;"">X</div>","null","","","fixation","","","","","","","",""
"","","","","","audio-keyboard-response","208","669625","0.0-254.0","49","1","2023-11-01 00:41:20","a725c3012b74bf33a1020a98cb69c237","186.13.97.33","Mozilla/5.0 (Windows NT 10.0; Win64; x64) AppleWebKit/537.36 (KHTML, like Gecko) Chrome/118.0.0.0 Safari/537.36","WebKit","Chrome","118.0.0.0","Windows","10.0","null","pt,en-US;q=0.9,en;q=0.8","true","null","tones/440hz_short.mp3","null","","","tone_number_task","992.5","treinta y seis","tones/440hz_short.mp3","1142.5","60","2","38",""
"","","","","","html-keyboard-response","209","670830","0.0-257.0-0.0","49","1","2023-11-01 00:41:20","a725c3012b74bf33a1020a98cb69c237","186.13.97.33","Mozilla/5.0 (Windows NT 10.0; Win64; x64) AppleWebKit/537.36 (KHTML, like Gecko) Chrome/118.0.0.0 Safari/537.36","WebKit","Chrome","118.0.0.0","Windows","10.0","null","pt,en-US;q=0.9,en;q=0.8","true","null","tones/440hz_short.mp3","null","","","empty_block","","treinta y seis","","","","2","38",""
"","","","","","html-keyboard-response","210","670875","0.0-257.0-1.0","49","1","2023-11-01 00:41:20","a725c3012b74bf33a1020a98cb69c237","186.13.97.33","Mozilla/5.0 (Windows NT 10.0; Win64; x64) AppleWebKit/537.36 (KHTML, like Gecko) Chrome/118.0.0.0 Safari/537.36","WebKit","Chrome","118.0.0.0","Windows","10.0","null","pt,en-US;q=0.9,en;q=0.8","true","42","tones/440hz_short.mp3","s","","","empty_block","","treinta y seis","","","","2","38",""
"","","","","","html-keyboard-response","211","673674","0.0-259.0","49","1","2023-11-01 00:41:20","a725c3012b74bf33a1020a98cb69c237","186.13.97.33","Mozilla/5.0 (Windows NT 10.0; Win64; x64) AppleWebKit/537.36 (KHTML, like Gecko) Chrome/118.0.0.0 Safari/537.36","WebKit","Chrome","118.0.0.0","Windows","10.0","null","pt,en-US;q=0.9,en;q=0.8","true","null","<div style=""font-size:100px;"">X</div>","null","","","fixation","","","","","","","",""
"","","","","","audio-keyboard-response","212","674855","0.0-260.0","49","1","2023-11-01 00:41:20","a725c3012b74bf33a1020a98cb69c237","186.13.97.33","Mozilla/5.0 (Windows NT 10.0; Win64; x64) AppleWebKit/537.36 (KHTML, like Gecko) Chrome/118.0.0.0 Safari/537.36","WebKit","Chrome","118.0.0.0","Windows","10.0","null","pt,en-US;q=0.9,en;q=0.8","true","null","tones/440hz_short.mp3","null","","","tone_number_task","1025","veintinueve","tones/440hz_short.mp3","1175","60","2","39",""
"","","","","","html-keyboard-response","213","675019","0.0-263.0-0.0","49","1","2023-11-01 00:41:20","a725c3012b74bf33a1020a98cb69c237","186.13.97.33","Mozilla/5.0 (Windows NT 10.0; Win64; x64) AppleWebKit/537.36 (KHTML, like Gecko) Chrome/118.0.0.0 Safari/537.36","WebKit","Chrome","118.0.0.0","Windows","10.0","null","pt,en-US;q=0.9,en;q=0.8","true","161","tones/440hz_short.mp3","a","","","empty_block","","veintinueve","","","","2","39",""
"","","","","","html-keyboard-response","214","675627","0.0-263.0-1.0","49","1","2023-11-01 00:41:20","a725c3012b74bf33a1020a98cb69c237","186.13.97.33","Mozilla/5.0 (Windows NT 10.0; Win64; x64) AppleWebKit/537.36 (KHTML, like Gecko) Chrome/118.0.0.0 Safari/537.36","WebKit","Chrome","118.0.0.0","Windows","10.0","null","pt,en-US;q=0.9,en;q=0.8","true","604","tones/440hz_short.mp3","j","","","empty_block","","veintinueve","","","","2","39",""
